year    month   day   hour  minute  B_enl V_enl   n_enl       T_enl
[year] [month] [day] [hour][minute] [nT]  [km/s]  [cm-3]      [kK]
2015    3        3     0   5    5.0631   477.4    5.166      34.542
2015    3        3     0  10    5.0670   477.3    5.174      34.537
2015    3        3     0  15    5.0709   477.2    5.181      34.532
2015    3        3     0  20    5.0749   477.1    5.189      34.527
2015    3        3     0  26    5.0788   477.0    5.197      34.523
2015    3        3     0  31    5.0828   477.0    5.205      34.519
2015    3        3     0  36    5.0867   476.9    5.212      34.516
2015    3        3     0  42    5.0907   476.8    5.220      34.512
2015    3        3     0  47    5.0947   476.7    5.228      34.509
2015    3        3     0  52    5.0987   476.6    5.235      34.506
2015    3        3     0  58    5.1027   476.5    5.243      34.503
2015    3        3     1   3    5.1067   476.4    5.251      34.501
2015    3        3     1   8    5.1108   476.3    5.258      34.498
2015    3        3     1  13    5.1148   476.2    5.266      34.496
2015    3        3     1  19    5.1189   476.1    5.273      34.494
2015    3        3     1  24    5.1229   476.1    5.281      34.492
2015    3        3     1  29    5.1270   476.0    5.289      34.490
2015    3        3     1  35    5.1311   475.9    5.296      34.488
2015    3        3     1  40    5.1353   475.8    5.304      34.487
2015    3        3     1  45    5.1393   475.7    5.312      34.486
2015    3        3     1  51    5.1435   475.6    5.319      34.485
2015    3        3     1  56    5.1476   475.5    5.327      34.484
2015    3        3     2   1    5.1518   475.5    5.335      34.483
2015    3        3     2   7    5.1560   475.4    5.343      34.483
2015    3        3     2  12    5.1602   475.3    5.350      34.483
2015    3        3     2  17    5.1643   475.2    5.358      34.483
2015    3        3     2  22    5.1686   475.2    5.366      34.485
2015    3        3     2  28    5.1728   475.1    5.374      34.486
2015    3        3     2  33    5.1769   475.0    5.381      34.489
2015    3        3     2  38    5.1812   474.9    5.389      34.491
2015    3        3     2  44    5.1853   474.9    5.397      34.494
2015    3        3     2  49    5.1895   474.8    5.404      34.497
2015    3        3     2  54    5.1936   474.7    5.412      34.500
2015    3        3     3   0    5.1978   474.7    5.419      34.503
2015    3        3     3   5    5.2020   474.6    5.427      34.507
2015    3        3     3  10    5.2061   474.5    5.434      34.510
2015    3        3     3  15    5.2102   474.5    5.441      34.514
2015    3        3     3  21    5.2143   474.4    5.448      34.518
2015    3        3     3  26    5.2184   474.4    5.455      34.521
2015    3        3     3  31    5.2225   474.3    5.462      34.525
2015    3        3     3  37    5.2265   474.2    5.469      34.528
2015    3        3     3  42    5.2306   474.2    5.475      34.531
2015    3        3     3  47    5.2347   474.1    5.482      34.534
2015    3        3     3  53    5.2387   474.1    5.488      34.536
2015    3        3     3  58    5.2428   474.0    5.495      34.539
2015    3        3     4   3    5.2468   473.9    5.501      34.541
2015    3        3     4   8    5.2508   473.9    5.507      34.543
2015    3        3     4  14    5.2548   473.8    5.513      34.544
2015    3        3     4  19    5.2588   473.8    5.519      34.546
2015    3        3     4  24    5.2628   473.7    5.525      34.547
2015    3        3     4  30    5.2669   473.6    5.531      34.548
2015    3        3     4  35    5.2709   473.6    5.537      34.549
2015    3        3     4  40    5.2749   473.5    5.543      34.549
2015    3        3     4  46    5.2789   473.5    5.548      34.550
2015    3        3     4  51    5.2829   473.4    5.554      34.550
2015    3        3     4  56    5.2869   473.3    5.560      34.550
2015    3        3     5   1    5.2909   473.3    5.565      34.550
2015    3        3     5   7    5.2949   473.2    5.571      34.550
2015    3        3     5  12    5.2989   473.2    5.576      34.550
2015    3        3     5  17    5.3029   473.1    5.582      34.549
2015    3        3     5  23    5.3068   473.0    5.587      34.549
2015    3        3     5  28    5.3109   473.0    5.593      34.548
2015    3        3     5  33    5.3149   472.9    5.598      34.547
2015    3        3     5  39    5.3189   472.9    5.604      34.547
2015    3        3     5  44    5.3229   472.8    5.609      34.546
2015    3        3     5  49    5.3269   472.7    5.615      34.545
2015    3        3     5  54    5.3309   472.7    5.620      34.545
2015    3        3     6   0    5.3350   472.6    5.626      34.544
2015    3        3     6   5    5.3390   472.6    5.631      34.544
2015    3        3     6  10    5.3431   472.5    5.637      34.544
2015    3        3     6  16    5.3471   472.4    5.642      34.543
2015    3        3     6  21    5.3512   472.4    5.648      34.543
2015    3        3     6  26    5.3553   472.3    5.654      34.544
2015    3        3     6  32    5.3594   472.3    5.659      34.544
2015    3        3     6  37    5.3636   472.2    5.665      34.545
2015    3        3     6  42    5.3677   472.2    5.671      34.547
2015    3        3     6  48    5.3719   472.1    5.677      34.548
2015    3        3     6  53    5.3760   472.1    5.683      34.551
2015    3        3     6  58    5.3802   472.0    5.689      34.554
2015    3        3     7   3    5.3844   472.0    5.695      34.557
2015    3        3     7   9    5.3887   471.9    5.701      34.561
2015    3        3     7  14    5.3929   471.9    5.707      34.566
2015    3        3     7  19    5.3971   471.8    5.713      34.571
2015    3        3     7  25    5.4014   471.8    5.720      34.576
2015    3        3     7  30    5.4057   471.7    5.726      34.582
2015    3        3     7  35    5.4099   471.7    5.732      34.588
2015    3        3     7  41    5.4142   471.6    5.738      34.595
2015    3        3     7  46    5.4185   471.6    5.744      34.602
2015    3        3     7  51    5.4228   471.5    5.750      34.609
2015    3        3     7  56    5.4271   471.5    5.756      34.616
2015    3        3     8   2    5.4314   471.4    5.762      34.623
2015    3        3     8   7    5.4357   471.4    5.768      34.631
2015    3        3     8  12    5.4401   471.4    5.774      34.639
2015    3        3     8  18    5.4444   471.3    5.780      34.647
2015    3        3     8  23    5.4488   471.3    5.786      34.655
2015    3        3     8  28    5.4531   471.2    5.793      34.663
2015    3        3     8  34    5.4575   471.2    5.799      34.672
2015    3        3     8  39    5.4619   471.2    5.805      34.681
2015    3        3     8  44    5.4664   471.1    5.811      34.690
2015    3        3     8  49    5.4708   471.1    5.818      34.701
2015    3        3     8  55    5.4752   471.0    5.824      34.712
2015    3        3     9   0    5.4797   471.0    5.830      34.724
2015    3        3     9   5    5.4842   471.0    5.836      34.736
2015    3        3     9  11    5.4886   471.0    5.843      34.748
2015    3        3     9  16    5.4931   470.9    5.849      34.762
2015    3        3     9  21    5.4976   470.9    5.855      34.776
2015    3        3     9  27    5.5020   470.9    5.861      34.790
2015    3        3     9  32    5.5065   470.9    5.867      34.805
2015    3        3     9  37    5.5109   470.8    5.873      34.821
2015    3        3     9  42    5.5153   470.8    5.879      34.836
2015    3        3     9  48    5.5197   470.8    5.885      34.852
2015    3        3     9  53    5.5240   470.8    5.890      34.869
2015    3        3     9  58    5.5283   470.8    5.896      34.885
2015    3        3    10   4    5.5327   470.7    5.901      34.901
2015    3        3    10   9    5.5370   470.7    5.906      34.916
2015    3        3    10  14    5.5412   470.7    5.911      34.931
2015    3        3    10  20    5.5455   470.7    5.916      34.946
2015    3        3    10  25    5.5497   470.7    5.921      34.961
2015    3        3    10  30    5.5540   470.7    5.925      34.975
2015    3        3    10  36    5.5582   470.7    5.930      34.989
2015    3        3    10  41    5.5623   470.6    5.934      35.002
2015    3        3    10  46    5.5665   470.6    5.938      35.014
2015    3        3    10  51    5.5707   470.6    5.942      35.027
2015    3        3    10  57    5.5748   470.6    5.946      35.038
2015    3        3    11   2    5.5790   470.6    5.950      35.050
2015    3        3    11   7    5.5831   470.6    5.954      35.060
2015    3        3    11  13    5.5872   470.6    5.958      35.071
2015    3        3    11  18    5.5914   470.5    5.962      35.081
2015    3        3    11  23    5.5955   470.5    5.965      35.091
2015    3        3    11  29    5.5996   470.5    5.969      35.100
2015    3        3    11  34    5.6037   470.5    5.972      35.109
2015    3        3    11  39    5.6078   470.5    5.976      35.118
2015    3        3    11  44    5.6119   470.5    5.979      35.127
2015    3        3    11  50    5.6160   470.5    5.983      35.135
2015    3        3    11  55    5.6201   470.4    5.986      35.143
2015    3        3    12   0    5.6242   470.4    5.989      35.151
2015    3        3    12   6    5.6283   470.4    5.993      35.159
2015    3        3    12  11    5.6324   470.4    5.996      35.167
2015    3        3    12  16    5.6364   470.4    5.999      35.175
2015    3        3    12  22    5.6405   470.4    6.003      35.182
2015    3        3    12  27    5.6446   470.3    6.006      35.190
2015    3        3    12  32    5.6487   470.3    6.010      35.197
2015    3        3    12  37    5.6528   470.3    6.013      35.204
2015    3        3    12  43    5.6569   470.3    6.017      35.212
2015    3        3    12  48    5.6610   470.3    6.020      35.220
2015    3        3    12  53    5.6652   470.3    6.024      35.227
2015    3        3    12  59    5.6693   470.3    6.028      35.235
2015    3        3    13   4    5.6734   470.2    6.031      35.243
2015    3        3    13   9    5.6776   470.2    6.035      35.252
2015    3        3    13  15    5.6818   470.2    6.039      35.260
2015    3        3    13  20    5.6860   470.2    6.043      35.269
2015    3        3    13  25    5.6902   470.2    6.047      35.279
2015    3        3    13  30    5.6943   470.2    6.052      35.288
2015    3        3    13  36    5.6986   470.2    6.056      35.299
2015    3        3    13  41    5.7027   470.1    6.060      35.310
2015    3        3    13  46    5.7070   470.1    6.065      35.322
2015    3        3    13  52    5.7112   470.1    6.069      35.334
2015    3        3    13  57    5.7154   470.1    6.074      35.347
2015    3        3    14   2    5.7197   470.1    6.078      35.360
2015    3        3    14   8    5.7240   470.1    6.083      35.374
2015    3        3    14  13    5.7282   470.1    6.087      35.388
2015    3        3    14  18    5.7324   470.1    6.092      35.402
2015    3        3    14  23    5.7367   470.1    6.096      35.417
2015    3        3    14  29    5.7410   470.1    6.101      35.432
2015    3        3    14  34    5.7452   470.1    6.105      35.447
2015    3        3    14  39    5.7495   470.1    6.110      35.463
2015    3        3    14  45    5.7538   470.1    6.114      35.478
2015    3        3    14  50    5.7580   470.1    6.119      35.494
2015    3        3    14  55    5.7623   470.1    6.124      35.510
2015    3        3    15   1    5.7667   470.1    6.128      35.526
2015    3        3    15   6    5.7710   470.1    6.133      35.543
2015    3        3    15  11    5.7753   470.1    6.138      35.560
2015    3        3    15  16    5.7796   470.1    6.143      35.578
2015    3        3    15  22    5.7840   470.1    6.148      35.597
2015    3        3    15  27    5.7883   470.1    6.152      35.617
2015    3        3    15  32    5.7927   470.1    6.157      35.637
2015    3        3    15  38    5.7970   470.1    6.162      35.657
2015    3        3    15  43    5.8014   470.1    6.167      35.679
2015    3        3    15  48    5.8058   470.1    6.171      35.701
2015    3        3    15  54    5.8101   470.1    6.176      35.724
2015    3        3    15  59    5.8143   470.1    6.180      35.748
2015    3        3    16   4    5.8186   470.1    6.184      35.772
2015    3        3    16  10    5.8229   470.2    6.188      35.796
2015    3        3    16  15    5.8271   470.2    6.192      35.821
2015    3        3    16  20    5.8314   470.2    6.196      35.846
2015    3        3    16  25    5.8356   470.2    6.200      35.870
2015    3        3    16  31    5.8397   470.2    6.203      35.895
2015    3        3    16  36    5.8439   470.3    6.206      35.919
2015    3        3    16  41    5.8480   470.3    6.209      35.943
2015    3        3    16  47    5.8521   470.3    6.212      35.966
2015    3        3    16  52    5.8562   470.3    6.215      35.989
2015    3        3    16  57    5.8603   470.3    6.218      36.012
2015    3        3    17   3    5.8643   470.4    6.220      36.034
2015    3        3    17   8    5.8683   470.4    6.222      36.056
2015    3        3    17  13    5.8724   470.4    6.225      36.077
2015    3        3    17  18    5.8763   470.4    6.227      36.097
2015    3        3    17  24    5.8803   470.4    6.229      36.117
2015    3        3    17  29    5.8843   470.5    6.230      36.137
2015    3        3    17  34    5.8883   470.5    6.232      36.156
2015    3        3    17  40    5.8923   470.5    6.234      36.175
2015    3        3    17  45    5.8962   470.5    6.235      36.193
2015    3        3    17  50    5.9001   470.6    6.237      36.211
2015    3        3    17  56    5.9041   470.6    6.238      36.228
2015    3        3    18   1    5.9080   470.6    6.240      36.246
2015    3        3    18   6    5.9119   470.6    6.241      36.263
2015    3        3    18  11    5.9159   470.6    6.242      36.280
2015    3        3    18  17    5.9198   470.7    6.244      36.296
2015    3        3    18  22    5.9237   470.7    6.245      36.313
2015    3        3    18  27    5.9277   470.7    6.246      36.329
2015    3        3    18  33    5.9316   470.7    6.247      36.345
2015    3        3    18  38    5.9355   470.7    6.249      36.361
2015    3        3    18  43    5.9395   470.8    6.250      36.376
2015    3        3    18  49    5.9434   470.8    6.251      36.392
2015    3        3    18  54    5.9474   470.8    6.252      36.407
2015    3        3    18  59    5.9513   470.8    6.254      36.423
2015    3        3    19   4    5.9552   470.8    6.255      36.438
2015    3        3    19  10    5.9592   470.9    6.256      36.454
2015    3        3    19  15    5.9632   470.9    6.257      36.469
2015    3        3    19  20    5.9671   470.9    6.259      36.485
2015    3        3    19  26    5.9711   470.9    6.260      36.501
2015    3        3    19  31    5.9751   470.9    6.262      36.517
2015    3        3    19  36    5.9790   471.0    6.263      36.532
2015    3        3    19  42    5.9830   471.0    6.265      36.548
2015    3        3    19  47    5.9870   471.0    6.267      36.565
2015    3        3    19  52    5.9910   471.0    6.269      36.581
2015    3        3    19  58    5.9950   471.1    6.271      36.598
2015    3        3    20   3    5.9991   471.1    6.273      36.615
2015    3        3    20   8    6.0031   471.1    6.275      36.633
2015    3        3    20  13    6.0071   471.1    6.277      36.651
2015    3        3    20  19    6.0111   471.1    6.280      36.669
2015    3        3    20  24    6.0152   471.2    6.282      36.688
2015    3        3    20  29    6.0193   471.2    6.285      36.708
2015    3        3    20  35    6.0233   471.2    6.288      36.728
2015    3        3    20  40    6.0274   471.3    6.291      36.750
2015    3        3    20  45    6.0314   471.3    6.293      36.771
2015    3        3    20  51    6.0354   471.3    6.296      36.794
2015    3        3    20  56    6.0395   471.3    6.299      36.817
2015    3        3    21   1    6.0436   471.4    6.302      36.840
2015    3        3    21   6    6.0476   471.4    6.306      36.863
2015    3        3    21  12    6.0517   471.4    6.309      36.887
2015    3        3    21  17    6.0557   471.5    6.312      36.912
2015    3        3    21  22    6.0597   471.5    6.315      36.937
2015    3        3    21  28    6.0638   471.5    6.319      36.962
2015    3        3    21  33    6.0678   471.6    6.322      36.987
2015    3        3    21  38    6.0719   471.6    6.325      37.013
2015    3        3    21  44    6.0759   471.6    6.329      37.039
2015    3        3    21  49    6.0799   471.7    6.333      37.065
2015    3        3    21  54    6.0839   471.7    6.336      37.091
2015    3        3    21  59    6.0881   471.8    6.340      37.118
2015    3        3    22   5    6.0921   471.8    6.344      37.145
2015    3        3    22  10    6.0962   471.8    6.348      37.174
2015    3        3    22  15    6.1002   471.9    6.351      37.205
2015    3        3    22  21    6.1042   471.9    6.355      37.236
2015    3        3    22  26    6.1083   472.0    6.359      37.268
2015    3        3    22  31    6.1123   472.0    6.362      37.302
2015    3        3    22  37    6.1163   472.1    6.365      37.336
2015    3        3    22  42    6.1203   472.1    6.369      37.370
2015    3        3    22  47    6.1242   472.2    6.372      37.405
2015    3        3    22  52    6.1282   472.2    6.374      37.440
2015    3        3    22  58    6.1321   472.3    6.377      37.475
2015    3        3    23   3    6.1360   472.3    6.379      37.511
2015    3        3    23   8    6.1398   472.4    6.382      37.547
2015    3        3    23  14    6.1437   472.5    6.383      37.583
2015    3        3    23  19    6.1475   472.5    6.385      37.618
2015    3        3    23  24    6.1513   472.6    6.387      37.652
2015    3        3    23  30    6.1551   472.6    6.388      37.686
2015    3        3    23  35    6.1588   472.7    6.389      37.719
2015    3        3    23  40    6.1626   472.7    6.390      37.752
2015    3        3    23  45    6.1664   472.8    6.391      37.783
2015    3        3    23  51    6.1701   472.8    6.392      37.815
2015    3        3    23  56    6.1737   472.9    6.392      37.845
2015    3        4     0   1    6.1775   473.0    6.393      37.875
2015    3        4     0   7    6.1812   473.0    6.393      37.905
2015    3        4     0  12    6.1848   473.1    6.393      37.934
2015    3        4     0  17    6.1886   473.1    6.393      37.963
2015    3        4     0  23    6.1922   473.2    6.393      37.991
2015    3        4     0  28    6.1959   473.2    6.393      38.018
2015    3        4     0  33    6.1996   473.3    6.393      38.046
2015    3        4     0  39    6.2033   473.3    6.393      38.072
2015    3        4     0  44    6.2070   473.4    6.393      38.099
2015    3        4     0  49    6.2106   473.4    6.392      38.125
2015    3        4     0  54    6.2143   473.5    6.392      38.151
2015    3        4     1   0    6.2180   473.5    6.392      38.177
2015    3        4     1   5    6.2217   473.6    6.391      38.202
2015    3        4     1  10    6.2253   473.6    6.391      38.227
2015    3        4     1  16    6.2290   473.7    6.390      38.252
2015    3        4     1  21    6.2326   473.7    6.389      38.277
2015    3        4     1  26    6.2363   473.8    6.389      38.301
2015    3        4     1  32    6.2400   473.9    6.388      38.326
2015    3        4     1  37    6.2437   473.9    6.388      38.350
2015    3        4     1  42    6.2474   474.0    6.387      38.374
2015    3        4     1  47    6.2511   474.0    6.386      38.398
2015    3        4     1  53    6.2548   474.1    6.386      38.422
2015    3        4     1  58    6.2585   474.1    6.385      38.446
2015    3        4     2   3    6.2622   474.2    6.385      38.470
2015    3        4     2   9    6.2659   474.2    6.384      38.494
2015    3        4     2  14    6.2696   474.3    6.384      38.519
2015    3        4     2  19    6.2733   474.3    6.383      38.543
2015    3        4     2  25    6.2771   474.4    6.383      38.567
2015    3        4     2  30    6.2807   474.4    6.383      38.591
2015    3        4     2  35    6.2845   474.5    6.382      38.616
2015    3        4     2  40    6.2882   474.5    6.382      38.640
2015    3        4     2  46    6.2919   474.6    6.382      38.665
2015    3        4     2  51    6.2957   474.6    6.382      38.691
2015    3        4     2  56    6.2995   474.7    6.382      38.716
2015    3        4     3   2    6.3032   474.8    6.382      38.742
2015    3        4     3   7    6.3069   474.8    6.382      38.768
2015    3        4     3  12    6.3108   474.9    6.383      38.794
2015    3        4     3  18    6.3145   474.9    6.383      38.821
2015    3        4     3  23    6.3183   475.0    6.384      38.849
2015    3        4     3  28    6.3221   475.0    6.385      38.877
2015    3        4     3  33    6.3258   475.1    6.386      38.906
2015    3        4     3  39    6.3296   475.2    6.387      38.935
2015    3        4     3  44    6.3334   475.2    6.388      38.965
2015    3        4     3  49    6.3371   475.3    6.389      38.996
2015    3        4     3  55    6.3408   475.3    6.390      39.027
2015    3        4     4   0    6.3446   475.4    6.392      39.059
2015    3        4     4   5    6.3483   475.5    6.394      39.092
2015    3        4     4  11    6.3521   475.5    6.395      39.125
2015    3        4     4  16    6.3559   475.6    6.397      39.160
2015    3        4     4  21    6.3596   475.7    6.399      39.195
2015    3        4     4  26    6.3633   475.7    6.401      39.230
2015    3        4     4  32    6.3671   475.8    6.404      39.267
2015    3        4     4  37    6.3708   475.9    6.406      39.305
2015    3        4     4  42    6.3746   475.9    6.408      39.343
2015    3        4     4  48    6.3784   476.0    6.411      39.382
2015    3        4     4  53    6.3821   476.1    6.413      39.421
2015    3        4     4  58    6.3858   476.2    6.416      39.461
2015    3        4     5   4    6.3895   476.2    6.419      39.502
2015    3        4     5   9    6.3933   476.3    6.421      39.544
2015    3        4     5  14    6.3970   476.4    6.424      39.587
2015    3        4     5  19    6.4008   476.5    6.427      39.633
2015    3        4     5  25    6.4045   476.5    6.429      39.679
2015    3        4     5  30    6.4081   476.6    6.432      39.727
2015    3        4     5  35    6.4118   476.7    6.434      39.775
2015    3        4     5  41    6.4155   476.8    6.437      39.824
2015    3        4     5  46    6.4192   476.9    6.439      39.874
2015    3        4     5  51    6.4229   476.9    6.441      39.925
2015    3        4     5  57    6.4264   477.0    6.443      39.975
2015    3        4     6   2    6.4301   477.1    6.444      40.026
2015    3        4     6   7    6.4337   477.2    6.445      40.078
2015    3        4     6  13    6.4372   477.3    6.447      40.129
2015    3        4     6  18    6.4409   477.4    6.448      40.180
2015    3        4     6  23    6.4444   477.4    6.449      40.231
2015    3        4     6  28    6.4479   477.5    6.449      40.281
2015    3        4     6  34    6.4515   477.6    6.450      40.330
2015    3        4     6  39    6.4550   477.7    6.450      40.378
2015    3        4     6  44    6.4585   477.8    6.450      40.426
2015    3        4     6  50    6.4620   477.9    6.450      40.473
2015    3        4     6  55    6.4655   477.9    6.450      40.519
2015    3        4     7   0    6.4690   478.0    6.450      40.565
2015    3        4     7   6    6.4725   478.1    6.450      40.609
2015    3        4     7  11    6.4760   478.2    6.449      40.654
2015    3        4     7  16    6.4794   478.3    6.449      40.697
2015    3        4     7  21    6.4829   478.4    6.448      40.740
2015    3        4     7  27    6.4864   478.5    6.447      40.782
2015    3        4     7  32    6.4899   478.5    6.446      40.824
2015    3        4     7  37    6.4933   478.6    6.445      40.865
2015    3        4     7  43    6.4968   478.7    6.444      40.906
2015    3        4     7  48    6.5002   478.8    6.443      40.946
2015    3        4     7  53    6.5037   478.9    6.442      40.986
2015    3        4     7  59    6.5072   479.0    6.441      41.026
2015    3        4     8   4    6.5106   479.1    6.440      41.065
2015    3        4     8   9    6.5140   479.1    6.439      41.103
2015    3        4     8  14    6.5175   479.2    6.437      41.142
2015    3        4     8  20    6.5210   479.3    6.436      41.179
2015    3        4     8  25    6.5244   479.4    6.435      41.217
2015    3        4     8  30    6.5278   479.5    6.433      41.255
2015    3        4     8  36    6.5313   479.6    6.432      41.292
2015    3        4     8  41    6.5347   479.7    6.430      41.329
2015    3        4     8  46    6.5381   479.7    6.429      41.366
2015    3        4     8  52    6.5415   479.8    6.427      41.403
2015    3        4     8  57    6.5450   479.9    6.426      41.439
2015    3        4     9   2    6.5484   480.0    6.425      41.475
2015    3        4     9   7    6.5518   480.1    6.423      41.512
2015    3        4     9  13    6.5552   480.2    6.422      41.548
2015    3        4     9  18    6.5586   480.3    6.420      41.584
2015    3        4     9  23    6.5620   480.4    6.419      41.620
2015    3        4     9  29    6.5655   480.5    6.417      41.657
2015    3        4     9  34    6.5689   480.6    6.416      41.693
2015    3        4     9  39    6.5723   480.6    6.415      41.729
2015    3        4     9  45    6.5757   480.7    6.413      41.765
2015    3        4     9  50    6.5791   480.8    6.412      41.802
2015    3        4     9  55    6.5825   480.9    6.411      41.839
2015    3        4    10   0    6.5859   481.0    6.410      41.875
2015    3        4    10   6    6.5893   481.1    6.408      41.912
2015    3        4    10  11    6.5927   481.2    6.407      41.950
2015    3        4    10  16    6.5961   481.3    6.406      41.987
2015    3        4    10  22    6.5995   481.4    6.406      42.025
2015    3        4    10  27    6.6029   481.5    6.405      42.063
2015    3        4    10  32    6.6063   481.6    6.404      42.102
2015    3        4    10  38    6.6097   481.7    6.404      42.141
2015    3        4    10  43    6.6131   481.8    6.403      42.180
2015    3        4    10  48    6.6166   481.9    6.403      42.219
2015    3        4    10  54    6.6199   482.0    6.403      42.260
2015    3        4    10  59    6.6234   482.1    6.403      42.301
2015    3        4    11   4    6.6267   482.2    6.403      42.342
2015    3        4    11   9    6.6301   482.2    6.403      42.384
2015    3        4    11  15    6.6336   482.3    6.404      42.427
2015    3        4    11  20    6.6370   482.4    6.404      42.470
2015    3        4    11  25    6.6404   482.5    6.405      42.514
2015    3        4    11  31    6.6438   482.7    6.406      42.560
2015    3        4    11  36    6.6473   482.8    6.407      42.607
2015    3        4    11  41    6.6506   482.9    6.408      42.655
2015    3        4    11  47    6.6540   483.0    6.409      42.704
2015    3        4    11  52    6.6574   483.1    6.410      42.754
2015    3        4    11  57    6.6609   483.2    6.412      42.805
2015    3        4    12   2    6.6643   483.3    6.413      42.857
2015    3        4    12   8    6.6677   483.4    6.414      42.910
2015    3        4    12  13    6.6710   483.5    6.415      42.964
2015    3        4    12  18    6.6745   483.6    6.417      43.019
2015    3        4    12  24    6.6779   483.8    6.418      43.075
2015    3        4    12  29    6.6811   483.9    6.419      43.132
2015    3        4    12  34    6.6845   484.0    6.420      43.189
2015    3        4    12  40    6.6879   484.1    6.421      43.248
2015    3        4    12  45    6.6912   484.2    6.421      43.306
2015    3        4    12  50    6.6945   484.3    6.422      43.365
2015    3        4    12  55    6.6979   484.5    6.422      43.424
2015    3        4    13   1    6.7012   484.6    6.423      43.483
2015    3        4    13   6    6.7044   484.7    6.423      43.542
2015    3        4    13  11    6.7077   484.8    6.423      43.600
2015    3        4    13  17    6.7108   485.0    6.423      43.659
2015    3        4    13  22    6.7141   485.1    6.422      43.717
2015    3        4    13  27    6.7173   485.2    6.422      43.775
2015    3        4    13  33    6.7204   485.3    6.421      43.832
2015    3        4    13  38    6.7236   485.5    6.420      43.889
2015    3        4    13  43    6.7268   485.6    6.420      43.946
2015    3        4    13  48    6.7299   485.7    6.419      44.001
2015    3        4    13  54    6.7331   485.8    6.418      44.056
2015    3        4    13  59    6.7362   486.0    6.416      44.110
2015    3        4    14   4    6.7392   486.1    6.415      44.164
2015    3        4    14  10    6.7423   486.2    6.414      44.217
2015    3        4    14  15    6.7453   486.3    6.412      44.269
2015    3        4    14  20    6.7485   486.5    6.411      44.321
2015    3        4    14  26    6.7514   486.6    6.409      44.372
2015    3        4    14  31    6.7544   486.7    6.408      44.423
2015    3        4    14  36    6.7575   486.8    6.406      44.474
2015    3        4    14  42    6.7605   487.0    6.404      44.523
2015    3        4    14  47    6.7635   487.1    6.403      44.573
2015    3        4    14  52    6.7665   487.2    6.401      44.622
2015    3        4    14  57    6.7695   487.4    6.399      44.671
2015    3        4    15   3    6.7725   487.5    6.397      44.719
2015    3        4    15   8    6.7754   487.6    6.395      44.768
2015    3        4    15  13    6.7784   487.7    6.393      44.816
2015    3        4    15  19    6.7814   487.9    6.392      44.863
2015    3        4    15  24    6.7843   488.0    6.390      44.911
2015    3        4    15  29    6.7873   488.1    6.388      44.958
2015    3        4    15  35    6.7903   488.3    6.386      45.005
2015    3        4    15  40    6.7932   488.4    6.384      45.053
2015    3        4    15  45    6.7961   488.5    6.382      45.100
2015    3        4    15  50    6.7992   488.7    6.380      45.147
2015    3        4    15  56    6.8021   488.8    6.378      45.195
2015    3        4    16   1    6.8049   488.9    6.377      45.242
2015    3        4    16   6    6.8079   489.1    6.375      45.289
2015    3        4    16  12    6.8107   489.2    6.373      45.336
2015    3        4    16  17    6.8136   489.4    6.371      45.384
2015    3        4    16  22    6.8164   489.5    6.369      45.431
2015    3        4    16  28    6.8193   489.6    6.367      45.478
2015    3        4    16  33    6.8221   489.8    6.365      45.525
2015    3        4    16  38    6.8250   489.9    6.363      45.572
2015    3        4    16  43    6.8279   490.1    6.362      45.619
2015    3        4    16  49    6.8307   490.2    6.360      45.666
2015    3        4    16  54    6.8334   490.4    6.358      45.713
2015    3        4    16  59    6.8363   490.5    6.356      45.760
2015    3        4    17   5    6.8390   490.7    6.354      45.807
2015    3        4    17  10    6.8419   490.8    6.353      45.855
2015    3        4    17  15    6.8446   491.0    6.351      45.902
2015    3        4    17  21    6.8475   491.1    6.349      45.950
2015    3        4    17  26    6.8502   491.3    6.348      45.998
2015    3        4    17  31    6.8530   491.4    6.346      46.046
2015    3        4    17  36    6.8558   491.6    6.344      46.094
2015    3        4    17  42    6.8586   491.7    6.343      46.142
2015    3        4    17  47    6.8613   491.9    6.341      46.190
2015    3        4    17  52    6.8641   492.0    6.340      46.238
2015    3        4    17  58    6.8669   492.2    6.338      46.286
2015    3        4    18   3    6.8696   492.3    6.337      46.334
2015    3        4    18   8    6.8724   492.5    6.335      46.382
2015    3        4    18  14    6.8751   492.7    6.334      46.429
2015    3        4    18  19    6.8778   492.8    6.332      46.477
2015    3        4    18  24    6.8805   493.0    6.331      46.524
2015    3        4    18  29    6.8832   493.1    6.330      46.571
2015    3        4    18  35    6.8857   493.3    6.328      46.618
2015    3        4    18  40    6.8884   493.5    6.327      46.666
2015    3        4    18  45    6.8911   493.6    6.326      46.714
2015    3        4    18  51    6.8936   493.8    6.324      46.763
2015    3        4    18  56    6.8962   494.0    6.323      46.811
2015    3        4    19   1    6.8988   494.1    6.322      46.860
2015    3        4    19   7    6.9014   494.3    6.320      46.909
2015    3        4    19  12    6.9040   494.5    6.319      46.959
2015    3        4    19  17    6.9066   494.6    6.317      47.008
2015    3        4    19  23    6.9092   494.8    6.316      47.058
2015    3        4    19  28    6.9116   495.0    6.314      47.108
2015    3        4    19  33    6.9142   495.2    6.312      47.159
2015    3        4    19  38    6.9167   495.4    6.311      47.210
2015    3        4    19  44    6.9192   495.5    6.309      47.260
2015    3        4    19  49    6.9217   495.7    6.307      47.311
2015    3        4    19  54    6.9243   495.9    6.305      47.361
2015    3        4    20   0    6.9266   496.1    6.303      47.411
2015    3        4    20   5    6.9291   496.2    6.301      47.461
2015    3        4    20  10    6.9315   496.4    6.299      47.510
2015    3        4    20  16    6.9340   496.6    6.296      47.560
2015    3        4    20  21    6.9364   496.8    6.294      47.610
2015    3        4    20  26    6.9386   497.0    6.292      47.660
2015    3        4    20  31    6.9410   497.2    6.289      47.709
2015    3        4    20  37    6.9434   497.3    6.287      47.759
2015    3        4    20  42    6.9456   497.5    6.284      47.808
2015    3        4    20  47    6.9479   497.7    6.281      47.858
2015    3        4    20  53    6.9502   497.9    6.279      47.907
2015    3        4    20  58    6.9525   498.1    6.276      47.957
2015    3        4    21   3    6.9546   498.3    6.273      48.006
2015    3        4    21   9    6.9569   498.5    6.270      48.055
2015    3        4    21  14    6.9592   498.7    6.267      48.105
2015    3        4    21  19    6.9612   498.8    6.264      48.154
2015    3        4    21  24    6.9634   499.0    6.261      48.203
2015    3        4    21  30    6.9656   499.2    6.258      48.252
2015    3        4    21  35    6.9677   499.4    6.255      48.301
2015    3        4    21  40    6.9698   499.6    6.252      48.350
2015    3        4    21  46    6.9718   499.8    6.249      48.400
2015    3        4    21  51    6.9740   500.0    6.245      48.449
2015    3        4    21  56    6.9760   500.2    6.242      48.498
2015    3        4    22   2    6.9782   500.4    6.239      48.548
2015    3        4    22   7    6.9802   500.6    6.236      48.598
2015    3        4    22  12    6.9823   500.7    6.232      48.648
2015    3        4    22  17    6.9843   500.9    6.229      48.698
2015    3        4    22  23    6.9863   501.1    6.226      48.749
2015    3        4    22  28    6.9884   501.3    6.222      48.800
2015    3        4    22  33    6.9903   501.5    6.219      48.851
2015    3        4    22  39    6.9924   501.7    6.216      48.902
2015    3        4    22  44    6.9943   501.9    6.212      48.953
2015    3        4    22  49    6.9964   502.1    6.209      49.004
2015    3        4    22  55    6.9984   502.3    6.206      49.055
2015    3        4    23   0    7.0003   502.5    6.202      49.106
2015    3        4    23   5    7.0023   502.7    6.199      49.157
2015    3        4    23  10    7.0042   502.9    6.195      49.208
2015    3        4    23  16    7.0061   503.1    6.192      49.259
2015    3        4    23  21    7.0080   503.3    6.188      49.309
2015    3        4    23  26    7.0100   503.5    6.185      49.359
2015    3        4    23  32    7.0118   503.7    6.181      49.409
2015    3        4    23  37    7.0137   503.9    6.177      49.459
2015    3        4    23  42    7.0156   504.1    6.174      49.509
2015    3        4    23  48    7.0175   504.3    6.170      49.558
2015    3        4    23  53    7.0193   504.5    6.166      49.607
2015    3        4    23  58    7.0212   504.7    6.163      49.655
2015    3        5     0   4    7.0230   505.0    6.159      49.703
2015    3        5     0   9    7.0248   505.2    6.155      49.752
2015    3        5     0  14    7.0266   505.4    6.152      49.800
2015    3        5     0  19    7.0285   505.6    6.148      49.847
2015    3        5     0  25    7.0304   505.8    6.144      49.895
2015    3        5     0  30    7.0321   506.0    6.140      49.942
2015    3        5     0  35    7.0341   506.2    6.137      49.990
2015    3        5     0  41    7.0359   506.4    6.133      50.037
2015    3        5     0  46    7.0377   506.6    6.129      50.085
2015    3        5     0  51    7.0396   506.9    6.126      50.133
2015    3        5     0  57    7.0414   507.1    6.122      50.180
2015    3        5     1   2    7.0432   507.3    6.118      50.228
2015    3        5     1   7    7.0451   507.5    6.115      50.275
2015    3        5     1  12    7.0469   507.7    6.111      50.322
2015    3        5     1  18    7.0486   508.0    6.107      50.369
2015    3        5     1  23    7.0504   508.2    6.103      50.416
2015    3        5     1  28    7.0521   508.4    6.100      50.463
2015    3        5     1  34    7.0536   508.7    6.096      50.509
2015    3        5     1  39    7.0553   508.9    6.092      50.554
2015    3        5     1  44    7.0568   509.1    6.087      50.599
2015    3        5     1  50    7.0584   509.4    6.083      50.644
2015    3        5     1  55    7.0600   509.6    6.079      50.688
2015    3        5     2   0    7.0614   509.8    6.075      50.731
2015    3        5     2   5    7.0629   510.1    6.070      50.774
2015    3        5     2  11    7.0643   510.3    6.066      50.817
2015    3        5     2  16    7.0657   510.5    6.061      50.859
2015    3        5     2  21    7.0669   510.8    6.057      50.900
2015    3        5     2  27    7.0682   511.0    6.052      50.942
2015    3        5     2  32    7.0695   511.2    6.048      50.983
2015    3        5     2  37    7.0709   511.5    6.043      51.023
2015    3        5     2  43    7.0721   511.7    6.038      51.063
2015    3        5     2  48    7.0733   511.9    6.034      51.103
2015    3        5     2  53    7.0746   512.2    6.029      51.143
2015    3        5     2  58    7.0758   512.4    6.025      51.183
2015    3        5     3   4    7.0769   512.6    6.020      51.223
2015    3        5     3   9    7.0781   512.9    6.015      51.263
2015    3        5     3  14    7.0792   513.1    6.011      51.303
2015    3        5     3  20    7.0803   513.3    6.006      51.343
2015    3        5     3  25    7.0814   513.6    6.001      51.383
2015    3        5     3  30    7.0826   513.8    5.996      51.423
2015    3        5     3  36    7.0835   514.0    5.992      51.464
2015    3        5     3  41    7.0845   514.3    5.987      51.505
2015    3        5     3  46    7.0855   514.5    5.982      51.545
2015    3        5     3  51    7.0866   514.7    5.977      51.587
2015    3        5     3  57    7.0874   515.0    5.972      51.628
2015    3        5     4   2    7.0884   515.2    5.967      51.669
2015    3        5     4   7    7.0894   515.5    5.962      51.711
2015    3        5     4  13    7.0903   515.7    5.957      51.753
2015    3        5     4  18    7.0910   515.9    5.952      51.795
2015    3        5     4  23    7.0920   516.2    5.947      51.837
2015    3        5     4  29    7.0928   516.4    5.942      51.880
2015    3        5     4  34    7.0936   516.6    5.937      51.922
2015    3        5     4  39    7.0944   516.9    5.931      51.965
2015    3        5     4  44    7.0951   517.1    5.926      52.008
2015    3        5     4  50    7.0960   517.4    5.921      52.051
2015    3        5     4  55    7.0967   517.6    5.916      52.095
2015    3        5     5   0    7.0973   517.8    5.911      52.139
2015    3        5     5   6    7.0980   518.1    5.905      52.184
2015    3        5     5  11    7.0987   518.3    5.900      52.228
2015    3        5     5  16    7.0996   518.6    5.895      52.274
2015    3        5     5  22    7.1001   518.8    5.889      52.320
2015    3        5     5  27    7.1009   519.0    5.884      52.366
2015    3        5     5  32    7.1014   519.3    5.878      52.413
2015    3        5     5  37    7.1021   519.5    5.873      52.460
2015    3        5     5  43    7.1028   519.8    5.868      52.508
2015    3        5     5  48    7.1033   520.0    5.862      52.555
2015    3        5     5  53    7.1039   520.3    5.857      52.603
2015    3        5     5  59    7.1044   520.5    5.851      52.651
2015    3        5     6   4    7.1050   520.7    5.846      52.699
2015    3        5     6   9    7.1057   521.0    5.840      52.747
2015    3        5     6  15    7.1062   521.2    5.834      52.795
2015    3        5     6  20    7.1066   521.5    5.829      52.843
2015    3        5     6  25    7.1073   521.7    5.823      52.891
2015    3        5     6  31    7.1076   522.0    5.818      52.938
2015    3        5     6  36    7.1083   522.2    5.812      52.986
2015    3        5     6  41    7.1088   522.5    5.806      53.034
2015    3        5     6  46    7.1092   522.7    5.801      53.081
2015    3        5     6  52    7.1097   522.9    5.795      53.128
2015    3        5     6  57    7.1101   523.2    5.789      53.175
2015    3        5     7   2    7.1104   523.4    5.784      53.222
2015    3        5     7   8    7.1110   523.7    5.778      53.269
2015    3        5     7  13    7.1112   523.9    5.772      53.316
2015    3        5     7  18    7.1118   524.2    5.767      53.362
2015    3        5     7  24    7.1120   524.4    5.761      53.408
2015    3        5     7  29    7.1126   524.7    5.755      53.454
2015    3        5     7  34    7.1128   524.9    5.750      53.500
2015    3        5     7  39    7.1133   525.2    5.744      53.546
2015    3        5     7  45    7.1135   525.4    5.738      53.591
2015    3        5     7  50    7.1139   525.7    5.733      53.637
2015    3        5     7  55    7.1142   525.9    5.727      53.682
2015    3        5     8   1    7.1147   526.2    5.722      53.727
2015    3        5     8   6    7.1150   526.4    5.716      53.772
2015    3        5     8  11    7.1152   526.7    5.711      53.817
2015    3        5     8  17    7.1155   526.9    5.705      53.862
2015    3        5     8  22    7.1156   527.2    5.700      53.907
2015    3        5     8  27    7.1158   527.4    5.694      53.952
2015    3        5     8  32    7.1159   527.7    5.689      53.997
2015    3        5     8  38    7.1161   527.9    5.684      54.042
2015    3        5     8  43    7.1162   528.2    5.678      54.087
2015    3        5     8  48    7.1163   528.4    5.673      54.133
2015    3        5     8  54    7.1163   528.7    5.668      54.177
2015    3        5     8  59    7.1164   529.0    5.662      54.222
2015    3        5     9   4    7.1164   529.2    5.657      54.266
2015    3        5     9  10    7.1163   529.5    5.651      54.310
2015    3        5     9  15    7.1160   529.7    5.646      54.354
2015    3        5     9  20    7.1158   530.0    5.640      54.397
2015    3        5     9  25    7.1156   530.2    5.635      54.439
2015    3        5     9  31    7.1155   530.5    5.629      54.481
2015    3        5     9  36    7.1151   530.8    5.624      54.523
2015    3        5     9  41    7.1148   531.0    5.618      54.565
2015    3        5     9  47    7.1145   531.3    5.612      54.605
2015    3        5     9  52    7.1143   531.5    5.607      54.646
2015    3        5     9  57    7.1139   531.8    5.601      54.686
2015    3        5    10   3    7.1135   532.1    5.595      54.725
2015    3        5    10   8    7.1129   532.3    5.589      54.765
2015    3        5    10  13    7.1124   532.6    5.583      54.804
2015    3        5    10  18    7.1121   532.8    5.577      54.843
2015    3        5    10  24    7.1114   533.1    5.571      54.881
2015    3        5    10  29    7.1109   533.3    5.565      54.919
2015    3        5    10  34    7.1104   533.6    5.559      54.957
2015    3        5    10  40    7.1099   533.9    5.552      54.995
2015    3        5    10  45    7.1092   534.1    5.546      55.032
2015    3        5    10  50    7.1086   534.4    5.540      55.069
2015    3        5    10  56    7.1080   534.6    5.534      55.106
2015    3        5    11   1    7.1075   534.9    5.527      55.142
2015    3        5    11   6    7.1067   535.1    5.521      55.178
2015    3        5    11  11    7.1062   535.4    5.515      55.214
2015    3        5    11  17    7.1053   535.6    5.508      55.250
2015    3        5    11  22    7.1046   535.9    5.502      55.285
2015    3        5    11  27    7.1039   536.1    5.496      55.321
2015    3        5    11  33    7.1033   536.4    5.489      55.356
2015    3        5    11  38    7.1024   536.6    5.483      55.391
2015    3        5    11  43    7.1018   536.9    5.476      55.426
2015    3        5    11  49    7.1010   537.1    5.470      55.461
2015    3        5    11  54    7.1000   537.4    5.463      55.496
2015    3        5    11  59    7.0994   537.6    5.457      55.530
2015    3        5    12   5    7.0986   537.9    5.450      55.565
2015    3        5    12  10    7.0976   538.1    5.444      55.599
2015    3        5    12  15    7.0969   538.4    5.437      55.634
2015    3        5    12  20    7.0959   538.6    5.431      55.669
2015    3        5    12  26    7.0952   538.9    5.424      55.703
2015    3        5    12  31    7.0943   539.1    5.418      55.738
2015    3        5    12  36    7.0933   539.4    5.411      55.773
2015    3        5    12  42    7.0924   539.6    5.405      55.808
2015    3        5    12  47    7.0915   539.9    5.398      55.843
2015    3        5    12  52    7.0905   540.1    5.392      55.878
2015    3        5    12  58    7.0896   540.4    5.385      55.913
2015    3        5    13   3    7.0887   540.6    5.379      55.949
2015    3        5    13   8    7.0879   540.8    5.372      55.985
2015    3        5    13  13    7.0869   541.1    5.366      56.021
2015    3        5    13  19    7.0858   541.3    5.360      56.057
2015    3        5    13  24    7.0848   541.6    5.353      56.094
2015    3        5    13  29    7.0840   541.8    5.347      56.130
2015    3        5    13  35    7.0828   542.1    5.341      56.167
2015    3        5    13  40    7.0820   542.3    5.335      56.205
2015    3        5    13  45    7.0809   542.6    5.329      56.242
2015    3        5    13  51    7.0799   542.8    5.322      56.279
2015    3        5    13  56    7.0789   543.1    5.316      56.317
2015    3        5    14   1    7.0776   543.3    5.310      56.355
2015    3        5    14   6    7.0767   543.5    5.304      56.393
2015    3        5    14  12    7.0756   543.8    5.298      56.432
2015    3        5    14  17    7.0744   544.0    5.292      56.470
2015    3        5    14  22    7.0731   544.3    5.287      56.509
2015    3        5    14  28    7.0722   544.5    5.281      56.547
2015    3        5    14  33    7.0708   544.8    5.275      56.586
2015    3        5    14  38    7.0696   545.0    5.269      56.625
2015    3        5    14  44    7.0686   545.2    5.264      56.663
2015    3        5    14  49    7.0672   545.5    5.258      56.702
2015    3        5    14  54    7.0659   545.7    5.252      56.741
2015    3        5    14  59    7.0649   546.0    5.247      56.780
2015    3        5    15   5    7.0636   546.2    5.241      56.819
2015    3        5    15  10    7.0623   546.4    5.236      56.858
2015    3        5    15  15    7.0610   546.7    5.231      56.896
2015    3        5    15  21    7.0597   546.9    5.225      56.935
2015    3        5    15  26    7.0584   547.1    5.220      56.974
2015    3        5    15  31    7.0569   547.4    5.215      57.013
2015    3        5    15  37    7.0555   547.6    5.210      57.052
2015    3        5    15  42    7.0542   547.9    5.205      57.091
2015    3        5    15  47    7.0530   548.1    5.200      57.131
2015    3        5    15  52    7.0514   548.3    5.196      57.171
2015    3        5    15  58    7.0501   548.6    5.191      57.211
2015    3        5    16   3    7.0489   548.8    5.186      57.251
2015    3        5    16   8    7.0473   549.0    5.182      57.290
2015    3        5    16  14    7.0461   549.3    5.177      57.330
2015    3        5    16  19    7.0447   549.5    5.173      57.370
2015    3        5    16  24    7.0431   549.7    5.168      57.411
2015    3        5    16  30    7.0418   550.0    5.163      57.451
2015    3        5    16  35    7.0405   550.2    5.159      57.492
2015    3        5    16  40    7.0390   550.4    5.154      57.532
2015    3        5    16  45    7.0376   550.7    5.150      57.573
2015    3        5    16  51    7.0362   550.9    5.145      57.613
2015    3        5    16  56    7.0350   551.2    5.140      57.653
2015    3        5    17   1    7.0335   551.4    5.135      57.692
2015    3        5    17   7    7.0321   551.6    5.131      57.731
2015    3        5    17  12    7.0307   551.9    5.126      57.769
2015    3        5    17  17    7.0294   552.1    5.121      57.807
2015    3        5    17  23    7.0278   552.4    5.116      57.844
2015    3        5    17  28    7.0264   552.6    5.110      57.881
2015    3        5    17  33    7.0249   552.8    5.105      57.918
2015    3        5    17  38    7.0235   553.1    5.100      57.953
2015    3        5    17  44    7.0220   553.3    5.095      57.988
2015    3        5    17  49    7.0206   553.6    5.089      58.023
2015    3        5    17  54    7.0191   553.8    5.084      58.057
2015    3        5    18   0    7.0176   554.0    5.078      58.090
2015    3        5    18   5    7.0161   554.3    5.073      58.123
2015    3        5    18  10    7.0145   554.5    5.067      58.156
2015    3        5    18  16    7.0130   554.7    5.062      58.188
2015    3        5    18  21    7.0115   555.0    5.056      58.220
2015    3        5    18  26    7.0098   555.2    5.050      58.251
2015    3        5    18  32    7.0084   555.5    5.045      58.282
2015    3        5    18  37    7.0068   555.7    5.039      58.313
2015    3        5    18  42    7.0052   555.9    5.034      58.343
2015    3        5    18  47    7.0036   556.2    5.028      58.373
2015    3        5    18  53    7.0021   556.4    5.022      58.403
2015    3        5    18  58    7.0004   556.6    5.017      58.433
2015    3        5    19   3    6.9988   556.9    5.011      58.462
2015    3        5    19   9    6.9973   557.1    5.005      58.492
2015    3        5    19  14    6.9957   557.3    4.999      58.521
2015    3        5    19  19    6.9941   557.6    4.994      58.550
2015    3        5    19  25    6.9925   557.8    4.988      58.579
2015    3        5    19  30    6.9909   558.0    4.982      58.608
2015    3        5    19  35    6.9893   558.3    4.977      58.636
2015    3        5    19  40    6.9877   558.5    4.971      58.665
2015    3        5    19  46    6.9861   558.7    4.966      58.694
2015    3        5    19  51    6.9844   559.0    4.960      58.723
2015    3        5    19  56    6.9828   559.2    4.954      58.752
2015    3        5    20   2    6.9812   559.4    4.949      58.782
2015    3        5    20   7    6.9795   559.7    4.944      58.811
2015    3        5    20  12    6.9779   559.9    4.938      58.841
2015    3        5    20  18    6.9762   560.1    4.933      58.871
2015    3        5    20  23    6.9746   560.4    4.927      58.901
2015    3        5    20  28    6.9730   560.6    4.922      58.932
2015    3        5    20  33    6.9713   560.8    4.917      58.962
2015    3        5    20  39    6.9697   561.1    4.912      58.993
2015    3        5    20  44    6.9680   561.3    4.906      59.025
2015    3        5    20  49    6.9663   561.5    4.901      59.056
2015    3        5    20  55    6.9646   561.8    4.896      59.088
2015    3        5    21   0    6.9629   562.0    4.891      59.120
2015    3        5    21   5    6.9612   562.2    4.886      59.152
2015    3        5    21  11    6.9595   562.4    4.881      59.184
2015    3        5    21  16    6.9577   562.7    4.876      59.217
2015    3        5    21  21    6.9560   562.9    4.871      59.249
2015    3        5    21  26    6.9543   563.1    4.867      59.282
2015    3        5    21  32    6.9526   563.4    4.862      59.315
2015    3        5    21  37    6.9508   563.6    4.857      59.348
2015    3        5    21  42    6.9491   563.8    4.853      59.381
2015    3        5    21  48    6.9473   564.0    4.848      59.414
2015    3        5    21  53    6.9456   564.3    4.843      59.447
2015    3        5    21  58    6.9438   564.5    4.839      59.480
2015    3        5    22   4    6.9420   564.7    4.834      59.512
2015    3        5    22   9    6.9403   564.9    4.830      59.545
2015    3        5    22  14    6.9385   565.2    4.826      59.578
2015    3        5    22  19    6.9367   565.4    4.821      59.611
2015    3        5    22  25    6.9349   565.6    4.817      59.644
2015    3        5    22  30    6.9332   565.8    4.813      59.677
2015    3        5    22  35    6.9314   566.1    4.808      59.710
2015    3        5    22  41    6.9297   566.3    4.804      59.743
2015    3        5    22  46    6.9280   566.5    4.800      59.777
2015    3        5    22  51    6.9262   566.7    4.796      59.810
2015    3        5    22  57    6.9245   566.9    4.792      59.843
2015    3        5    23   2    6.9228   567.1    4.788      59.877
2015    3        5    23   7    6.9211   567.4    4.784      59.910
2015    3        5    23  12    6.9194   567.6    4.780      59.944
2015    3        5    23  18    6.9178   567.8    4.776      59.978
2015    3        5    23  23    6.9161   568.0    4.772      60.012
2015    3        5    23  28    6.9145   568.2    4.768      60.047
2015    3        5    23  34    6.9129   568.4    4.764      60.081
2015    3        5    23  39    6.9113   568.6    4.761      60.116
2015    3        5    23  44    6.9097   568.9    4.757      60.151
2015    3        5    23  50    6.9081   569.1    4.753      60.186
2015    3        5    23  55    6.9066   569.3    4.749      60.221
2015    3        6     0   0    6.9050   569.5    4.745      60.256
2015    3        6     0   6    6.9035   569.7    4.741      60.291
2015    3        6     0  11    6.9020   570.0    4.736      60.325
2015    3        6     0  16    6.9004   570.2    4.732      60.360
2015    3        6     0  21    6.8989   570.4    4.728      60.394
2015    3        6     0  27    6.8974   570.6    4.724      60.427
2015    3        6     0  32    6.8959   570.8    4.719      60.461
2015    3        6     0  37    6.8943   571.1    4.715      60.493
2015    3        6     0  43    6.8928   571.3    4.711      60.526
2015    3        6     0  48    6.8912   571.5    4.706      60.558
2015    3        6     0  53    6.8897   571.7    4.702      60.589
2015    3        6     0  59    6.8882   571.9    4.697      60.620
2015    3        6     1   4    6.8866   572.2    4.693      60.651
2015    3        6     1   9    6.8850   572.4    4.688      60.682
2015    3        6     1  14    6.8835   572.6    4.684      60.712
2015    3        6     1  20    6.8820   572.8    4.679      60.742
2015    3        6     1  25    6.8804   573.0    4.675      60.772
2015    3        6     1  30    6.8789   573.2    4.670      60.802
2015    3        6     1  36    6.8773   573.5    4.666      60.832
2015    3        6     1  41    6.8758   573.7    4.661      60.861
2015    3        6     1  46    6.8742   573.9    4.657      60.891
2015    3        6     1  52    6.8727   574.1    4.652      60.920
2015    3        6     1  57    6.8711   574.3    4.648      60.950
2015    3        6     2   2    6.8696   574.6    4.643      60.979
2015    3        6     2   7    6.8681   574.8    4.639      61.009
2015    3        6     2  13    6.8666   575.0    4.635      61.039
2015    3        6     2  18    6.8650   575.2    4.630      61.068
2015    3        6     2  23    6.8635   575.4    4.626      61.098
2015    3        6     2  29    6.8619   575.6    4.622      61.128
2015    3        6     2  34    6.8604   575.9    4.617      61.158
2015    3        6     2  39    6.8588   576.1    4.613      61.189
2015    3        6     2  45    6.8573   576.3    4.609      61.219
2015    3        6     2  50    6.8557   576.5    4.605      61.250
2015    3        6     2  55    6.8541   576.7    4.601      61.281
2015    3        6     3   0    6.8526   577.0    4.597      61.313
2015    3        6     3   6    6.8510   577.2    4.593      61.344
2015    3        6     3  11    6.8494   577.4    4.589      61.376
2015    3        6     3  16    6.8479   577.6    4.585      61.408
2015    3        6     3  22    6.8463   577.8    4.581      61.440
2015    3        6     3  27    6.8446   578.1    4.577      61.472
2015    3        6     3  32    6.8431   578.3    4.573      61.505
2015    3        6     3  38    6.8414   578.5    4.569      61.537
2015    3        6     3  43    6.8398   578.7    4.565      61.570
2015    3        6     3  48    6.8381   578.9    4.561      61.603
2015    3        6     3  53    6.8365   579.2    4.558      61.635
2015    3        6     3  59    6.8348   579.4    4.554      61.668
2015    3        6     4   4    6.8331   579.6    4.550      61.701
2015    3        6     4   9    6.8315   579.8    4.546      61.734
2015    3        6     4  15    6.8298   580.0    4.542      61.767
2015    3        6     4  20    6.8281   580.3    4.538      61.800
2015    3        6     4  25    6.8264   580.5    4.535      61.833
2015    3        6     4  31    6.8247   580.7    4.531      61.865
2015    3        6     4  36    6.8229   580.9    4.527      61.898
2015    3        6     4  41    6.8212   581.1    4.523      61.930
2015    3        6     4  46    6.8195   581.4    4.519      61.962
2015    3        6     4  52    6.8178   581.6    4.515      61.994
2015    3        6     4  57    6.8161   581.8    4.511      62.026
2015    3        6     5   2    6.8143   582.0    4.507      62.058
2015    3        6     5   8    6.8126   582.2    4.503      62.089
2015    3        6     5  13    6.8108   582.4    4.500      62.121
2015    3        6     5  18    6.8091   582.6    4.496      62.152
2015    3        6     5  24    6.8074   582.9    4.492      62.183
2015    3        6     5  29    6.8057   583.1    4.488      62.214
2015    3        6     5  34    6.8040   583.3    4.484      62.245
2015    3        6     5  39    6.8023   583.5    4.480      62.276
2015    3        6     5  45    6.8006   583.7    4.476      62.307
2015    3        6     5  50    6.7989   583.9    4.472      62.339
2015    3        6     5  55    6.7971   584.1    4.468      62.370
2015    3        6     6   1    6.7955   584.3    4.465      62.400
2015    3        6     6   6    6.7938   584.5    4.461      62.431
2015    3        6     6  11    6.7922   584.7    4.457      62.462
2015    3        6     6  17    6.7905   585.0    4.453      62.493
2015    3        6     6  22    6.7889   585.2    4.449      62.524
2015    3        6     6  27    6.7873   585.4    4.445      62.555
2015    3        6     6  33    6.7856   585.6    4.441      62.586
2015    3        6     6  38    6.7840   585.8    4.438      62.617
2015    3        6     6  43    6.7824   586.0    4.434      62.648
2015    3        6     6  48    6.7808   586.2    4.430      62.680
2015    3        6     6  54    6.7792   586.4    4.426      62.711
2015    3        6     6  59    6.7776   586.6    4.422      62.742
2015    3        6     7   4    6.7761   586.8    4.418      62.774
2015    3        6     7  10    6.7745   587.1    4.414      62.805
2015    3        6     7  15    6.7729   587.3    4.411      62.836
2015    3        6     7  20    6.7714   587.5    4.407      62.867
2015    3        6     7  26    6.7698   587.7    4.403      62.898
2015    3        6     7  31    6.7683   587.9    4.399      62.929
2015    3        6     7  36    6.7667   588.1    4.395      62.960
2015    3        6     7  41    6.7652   588.3    4.391      62.991
2015    3        6     7  47    6.7636   588.5    4.387      63.021
2015    3        6     7  52    6.7621   588.7    4.383      63.051
2015    3        6     7  57    6.7605   588.9    4.379      63.082
2015    3        6     8   3    6.7589   589.1    4.375      63.112
2015    3        6     8   8    6.7574   589.3    4.371      63.142
2015    3        6     8  13    6.7558   589.5    4.367      63.172
2015    3        6     8  19    6.7543   589.8    4.363      63.202
2015    3        6     8  24    6.7527   590.0    4.359      63.231
2015    3        6     8  29    6.7512   590.2    4.356      63.261
2015    3        6     8  34    6.7497   590.4    4.352      63.291
2015    3        6     8  40    6.7481   590.6    4.348      63.321
2015    3        6     8  45    6.7466   590.8    4.344      63.351
2015    3        6     8  50    6.7450   591.0    4.340      63.381
2015    3        6     8  56    6.7435   591.2    4.336      63.411
2015    3        6     9   1    6.7420   591.4    4.333      63.441
2015    3        6     9   6    6.7405   591.6    4.329      63.471
2015    3        6     9  12    6.7390   591.8    4.325      63.501
2015    3        6     9  17    6.7374   592.0    4.322      63.531
2015    3        6     9  22    6.7359   592.2    4.318      63.562
2015    3        6     9  27    6.7344   592.4    4.314      63.592
2015    3        6     9  33    6.7329   592.6    4.311      63.623
2015    3        6     9  38    6.7314   592.8    4.307      63.654
2015    3        6     9  43    6.7298   593.0    4.304      63.685
2015    3        6     9  49    6.7283   593.2    4.300      63.716
2015    3        6     9  54    6.7267   593.4    4.297      63.747
2015    3        6     9  59    6.7252   593.6    4.293      63.778
2015    3        6    10   5    6.7236   593.8    4.290      63.809
2015    3        6    10  10    6.7220   594.1    4.286      63.840
2015    3        6    10  15    6.7204   594.3    4.283      63.871
2015    3        6    10  20    6.7188   594.5    4.279      63.901
2015    3        6    10  26    6.7172   594.7    4.276      63.932
2015    3        6    10  31    6.7156   594.9    4.272      63.962
2015    3        6    10  36    6.7140   595.1    4.269      63.993
2015    3        6    10  42    6.7123   595.3    4.266      64.023
2015    3        6    10  47    6.7107   595.5    4.262      64.053
2015    3        6    10  52    6.7090   595.7    4.259      64.083
2015    3        6    10  58    6.7074   595.9    4.255      64.113
2015    3        6    11   3    6.7057   596.1    4.252      64.142
2015    3        6    11   8    6.7040   596.3    4.248      64.172
2015    3        6    11  13    6.7023   596.5    4.245      64.201
2015    3        6    11  19    6.7006   596.7    4.241      64.230
2015    3        6    11  24    6.6989   596.9    4.238      64.259
2015    3        6    11  29    6.6972   597.1    4.234      64.288
2015    3        6    11  35    6.6955   597.3    4.230      64.317
2015    3        6    11  40    6.6938   597.5    4.227      64.345
2015    3        6    11  45    6.6921   597.7    4.223      64.373
2015    3        6    11  51    6.6904   597.9    4.220      64.402
2015    3        6    11  56    6.6887   598.1    4.216      64.430
2015    3        6    12   1    6.6870   598.2    4.212      64.458
2015    3        6    12   6    6.6852   598.4    4.209      64.486
2015    3        6    12  12    6.6835   598.6    4.205      64.514
2015    3        6    12  17    6.6818   598.8    4.202      64.542
2015    3        6    12  22    6.6801   599.0    4.198      64.570
2015    3        6    12  28    6.6784   599.2    4.194      64.599
2015    3        6    12  33    6.6767   599.4    4.191      64.626
2015    3        6    12  38    6.6750   599.6    4.187      64.655
2015    3        6    12  44    6.6733   599.8    4.184      64.683
2015    3        6    12  49    6.6716   600.0    4.180      64.711
2015    3        6    12  54    6.6700   600.2    4.177      64.739
2015    3        6    13   0    6.6683   600.4    4.173      64.768
2015    3        6    13   5    6.6666   600.5    4.170      64.796
2015    3        6    13  10    6.6649   600.7    4.166      64.825
2015    3        6    13  15    6.6633   600.9    4.163      64.853
2015    3        6    13  21    6.6616   601.1    4.159      64.882
2015    3        6    13  26    6.6600   601.3    4.156      64.911
2015    3        6    13  31    6.6583   601.5    4.153      64.939
2015    3        6    13  37    6.6567   601.7    4.149      64.968
2015    3        6    13  42    6.6550   601.9    4.146      64.997
2015    3        6    13  47    6.6534   602.1    4.142      65.026
2015    3        6    13  53    6.6518   602.3    4.139      65.055
2015    3        6    13  58    6.6502   602.4    4.136      65.085
2015    3        6    14   3    6.6486   602.6    4.133      65.114
2015    3        6    14   8    6.6469   602.8    4.129      65.143
2015    3        6    14  14    6.6453   603.0    4.126      65.173
2015    3        6    14  19    6.6437   603.2    4.123      65.202
2015    3        6    14  24    6.6421   603.4    4.119      65.232
2015    3        6    14  30    6.6405   603.6    4.116      65.261
2015    3        6    14  35    6.6389   603.8    4.113      65.291
2015    3        6    14  40    6.6373   604.0    4.110      65.320
2015    3        6    14  46    6.6357   604.2    4.107      65.350
2015    3        6    14  51    6.6341   604.4    4.103      65.379
2015    3        6    14  56    6.6325   604.5    4.100      65.408
2015    3        6    15   1    6.6309   604.7    4.097      65.437
2015    3        6    15   7    6.6293   604.9    4.094      65.466
2015    3        6    15  12    6.6277   605.1    4.090      65.496
2015    3        6    15  17    6.6261   605.3    4.087      65.525
2015    3        6    15  23    6.6244   605.5    4.084      65.554
2015    3        6    15  28    6.6228   605.7    4.081      65.583
2015    3        6    15  33    6.6212   605.9    4.078      65.612
2015    3        6    15  39    6.6195   606.1    4.075      65.641
2015    3        6    15  44    6.6179   606.3    4.071      65.669
2015    3        6    15  49    6.6162   606.4    4.068      65.698
2015    3        6    15  54    6.6146   606.6    4.065      65.727
2015    3        6    16   0    6.6129   606.8    4.062      65.756
2015    3        6    16   5    6.6112   607.0    4.059      65.784
2015    3        6    16  10    6.6095   607.2    4.055      65.813
2015    3        6    16  16    6.6078   607.4    4.052      65.841
2015    3        6    16  21    6.6061   607.6    4.049      65.870
2015    3        6    16  26    6.6044   607.8    4.046      65.898
2015    3        6    16  32    6.6026   607.9    4.043      65.926
2015    3        6    16  37    6.6009   608.1    4.040      65.954
2015    3        6    16  42    6.5991   608.3    4.036      65.982
2015    3        6    16  47    6.5974   608.5    4.033      66.010
2015    3        6    16  53    6.5956   608.7    4.030      66.038
2015    3        6    16  58    6.5939   608.9    4.027      66.066
2015    3        6    17   3    6.5921   609.1    4.024      66.094
2015    3        6    17   9    6.5903   609.2    4.020      66.121
2015    3        6    17  14    6.5885   609.4    4.017      66.148
2015    3        6    17  19    6.5867   609.6    4.014      66.176
2015    3        6    17  25    6.5849   609.8    4.011      66.203
2015    3        6    17  30    6.5830   610.0    4.007      66.230
2015    3        6    17  35    6.5812   610.1    4.004      66.257
2015    3        6    17  40    6.5794   610.3    4.001      66.284
2015    3        6    17  46    6.5776   610.5    3.998      66.311
2015    3        6    17  51    6.5757   610.7    3.995      66.337
2015    3        6    17  56    6.5739   610.8    3.992      66.364
2015    3        6    18   2    6.5721   611.0    3.988      66.391
2015    3        6    18   7    6.5702   611.2    3.985      66.417
2015    3        6    18  12    6.5684   611.4    3.982      66.443
2015    3        6    18  18    6.5666   611.5    3.979      66.470
2015    3        6    18  23    6.5647   611.7    3.976      66.496
2015    3        6    18  28    6.5629   611.9    3.973      66.522
2015    3        6    18  34    6.5611   612.1    3.970      66.548
2015    3        6    18  39    6.5592   612.2    3.967      66.574
2015    3        6    18  44    6.5574   612.4    3.964      66.600
2015    3        6    18  49    6.5556   612.6    3.961      66.626
2015    3        6    18  55    6.5538   612.8    3.958      66.653
2015    3        6    19   0    6.5520   612.9    3.955      66.679
2015    3        6    19   5    6.5501   613.1    3.952      66.705
2015    3        6    19  11    6.5483   613.3    3.949      66.731
2015    3        6    19  16    6.5465   613.4    3.946      66.757
2015    3        6    19  21    6.5447   613.6    3.943      66.784
2015    3        6    19  27    6.5429   613.8    3.940      66.810
2015    3        6    19  32    6.5411   613.9    3.937      66.837
2015    3        6    19  37    6.5393   614.1    3.934      66.864
2015    3        6    19  42    6.5375   614.3    3.931      66.890
2015    3        6    19  48    6.5358   614.4    3.928      66.917
2015    3        6    19  53    6.5340   614.6    3.926      66.944
2015    3        6    19  58    6.5322   614.8    3.923      66.971
2015    3        6    20   4    6.5305   614.9    3.920      66.998
2015    3        6    20   9    6.5287   615.1    3.917      67.026
2015    3        6    20  14    6.5270   615.3    3.914      67.053
2015    3        6    20  20    6.5252   615.4    3.912      67.081
2015    3        6    20  25    6.5235   615.6    3.909      67.108
2015    3        6    20  30    6.5217   615.8    3.906      67.135
2015    3        6    20  35    6.5200   615.9    3.903      67.162
2015    3        6    20  41    6.5183   616.1    3.901      67.189
2015    3        6    20  46    6.5165   616.3    3.898      67.216
2015    3        6    20  51    6.5148   616.4    3.895      67.243
2015    3        6    20  57    6.5130   616.6    3.893      67.269
2015    3        6    21   2    6.5113   616.8    3.890      67.295
2015    3        6    21   7    6.5096   616.9    3.887      67.321
2015    3        6    21  13    6.5079   617.1    3.884      67.347
2015    3        6    21  18    6.5061   617.3    3.882      67.372
2015    3        6    21  23    6.5044   617.4    3.879      67.397
2015    3        6    21  28    6.5026   617.6    3.876      67.423
2015    3        6    21  34    6.5009   617.8    3.874      67.447
2015    3        6    21  39    6.4992   617.9    3.871      67.472
2015    3        6    21  44    6.4974   618.1    3.868      67.497
2015    3        6    21  50    6.4957   618.3    3.866      67.521
2015    3        6    21  55    6.4939   618.4    3.863      67.545
2015    3        6    22   0    6.4921   618.6    3.860      67.569
2015    3        6    22   6    6.4904   618.7    3.858      67.593
2015    3        6    22  11    6.4886   618.9    3.855      67.616
2015    3        6    22  16    6.4868   619.1    3.852      67.640
2015    3        6    22  21    6.4850   619.2    3.850      67.663
2015    3        6    22  27    6.4832   619.4    3.847      67.687
2015    3        6    22  32    6.4814   619.6    3.845      67.710
2015    3        6    22  37    6.4796   619.7    3.842      67.733
2015    3        6    22  43    6.4777   619.9    3.839      67.757
2015    3        6    22  48    6.4759   620.0    3.837      67.780
2015    3        6    22  53    6.4740   620.2    3.834      67.803
2015    3        6    22  59    6.4722   620.4    3.832      67.826
2015    3        6    23   4    6.4703   620.5    3.829      67.850
2015    3        6    23   9    6.4684   620.7    3.826      67.873
2015    3        6    23  15    6.4665   620.8    3.824      67.896
2015    3        6    23  20    6.4646   621.0    3.821      67.919
2015    3        6    23  25    6.4626   621.2    3.818      67.941
2015    3        6    23  30    6.4607   621.3    3.816      67.964
2015    3        6    23  36    6.4588   621.5    3.813      67.987
2015    3        6    23  41    6.4568   621.6    3.810      68.010
2015    3        6    23  46    6.4548   621.8    3.808      68.032
2015    3        6    23  52    6.4529   621.9    3.805      68.055
2015    3        6    23  57    6.4509   622.1    3.802      68.077
2015    3        7     0   2    6.4489   622.2    3.800      68.099
2015    3        7     0   8    6.4469   622.4    3.797      68.121
2015    3        7     0  13    6.4449   622.5    3.794      68.143
2015    3        7     0  18    6.4429   622.7    3.791      68.165
2015    3        7     0  23    6.4409   622.8    3.789      68.187
2015    3        7     0  29    6.4390   623.0    3.786      68.209
2015    3        7     0  34    6.4370   623.1    3.783      68.231
2015    3        7     0  39    6.4349   623.3    3.780      68.253
2015    3        7     0  45    6.4330   623.4    3.777      68.274
2015    3        7     0  50    6.4310   623.6    3.775      68.296
2015    3        7     0  55    6.4290   623.7    3.772      68.317
2015    3        7     1   1    6.4270   623.9    3.769      68.338
2015    3        7     1   6    6.4250   624.0    3.766      68.360
2015    3        7     1  11    6.4230   624.1    3.764      68.381
2015    3        7     1  16    6.4211   624.3    3.761      68.402
2015    3        7     1  22    6.4191   624.4    3.758      68.422
2015    3        7     1  27    6.4171   624.6    3.755      68.443
2015    3        7     1  32    6.4152   624.7    3.753      68.463
2015    3        7     1  38    6.4132   624.8    3.750      68.484
2015    3        7     1  43    6.4113   625.0    3.747      68.504
2015    3        7     1  48    6.4093   625.1    3.744      68.523
2015    3        7     1  54    6.4074   625.2    3.742      68.543
2015    3        7     1  59    6.4055   625.4    3.739      68.562
2015    3        7     2   4    6.4036   625.5    3.736      68.581
2015    3        7     2   9    6.4016   625.7    3.734      68.600
2015    3        7     2  15    6.3997   625.8    3.731      68.619
2015    3        7     2  20    6.3978   625.9    3.728      68.637
2015    3        7     2  25    6.3959   626.1    3.726      68.655
2015    3        7     2  31    6.3940   626.2    3.723      68.673
2015    3        7     2  36    6.3921   626.3    3.720      68.690
2015    3        7     2  41    6.3902   626.5    3.718      68.708
2015    3        7     2  47    6.3883   626.6    3.715      68.725
2015    3        7     2  52    6.3864   626.7    3.713      68.742
2015    3        7     2  57    6.3845   626.9    3.710      68.758
2015    3        7     3   2    6.3826   627.0    3.707      68.775
2015    3        7     3   8    6.3807   627.1    3.705      68.791
2015    3        7     3  13    6.3788   627.3    3.702      68.807
2015    3        7     3  18    6.3769   627.4    3.700      68.823
2015    3        7     3  24    6.3751   627.5    3.697      68.838
2015    3        7     3  29    6.3732   627.6    3.695      68.854
2015    3        7     3  34    6.3713   627.8    3.692      68.870
2015    3        7     3  40    6.3694   627.9    3.690      68.885
2015    3        7     3  45    6.3675   628.0    3.687      68.901
2015    3        7     3  50    6.3656   628.2    3.685      68.916
2015    3        7     3  55    6.3637   628.3    3.682      68.931
2015    3        7     4   1    6.3618   628.4    3.680      68.946
2015    3        7     4   6    6.3599   628.6    3.677      68.962
2015    3        7     4  11    6.3580   628.7    3.675      68.977
2015    3        7     4  17    6.3561   628.8    3.672      68.992
2015    3        7     4  22    6.3542   628.9    3.670      69.007
2015    3        7     4  27    6.3522   629.1    3.668      69.022
2015    3        7     4  33    6.3503   629.2    3.665      69.037
2015    3        7     4  38    6.3484   629.3    3.663      69.053
2015    3        7     4  43    6.3464   629.5    3.660      69.068
2015    3        7     4  49    6.3445   629.6    3.658      69.083
2015    3        7     4  54    6.3425   629.7    3.655      69.098
2015    3        7     4  59    6.3406   629.8    3.653      69.113
2015    3        7     5   4    6.3386   630.0    3.650      69.128
2015    3        7     5  10    6.3366   630.1    3.648      69.143
2015    3        7     5  15    6.3346   630.2    3.646      69.158
2015    3        7     5  20    6.3326   630.3    3.643      69.173
2015    3        7     5  26    6.3305   630.5    3.641      69.188
2015    3        7     5  31    6.3285   630.6    3.638      69.202
2015    3        7     5  36    6.3265   630.7    3.636      69.217
2015    3        7     5  42    6.3244   630.8    3.633      69.232
2015    3        7     5  47    6.3224   630.9    3.631      69.247
2015    3        7     5  52    6.3203   631.1    3.628      69.261
2015    3        7     5  57    6.3182   631.2    3.626      69.276
2015    3        7     6   3    6.3161   631.3    3.624      69.290
2015    3        7     6   8    6.3140   631.4    3.621      69.305
2015    3        7     6  13    6.3119   631.5    3.619      69.319
2015    3        7     6  19    6.3098   631.6    3.616      69.333
2015    3        7     6  24    6.3076   631.8    3.614      69.347
2015    3        7     6  29    6.3055   631.9    3.611      69.361
2015    3        7     6  35    6.3033   632.0    3.609      69.375
2015    3        7     6  40    6.3011   632.1    3.606      69.389
2015    3        7     6  45    6.2990   632.2    3.604      69.403
2015    3        7     6  50    6.2968   632.3    3.602      69.416
2015    3        7     6  56    6.2946   632.4    3.599      69.429
2015    3        7     7   1    6.2924   632.5    3.597      69.442
2015    3        7     7   6    6.2902   632.6    3.594      69.456
2015    3        7     7  12    6.2880   632.8    3.592      69.468
2015    3        7     7  17    6.2858   632.9    3.589      69.481
2015    3        7     7  22    6.2836   633.0    3.587      69.493
2015    3        7     7  28    6.2814   633.1    3.585      69.506
2015    3        7     7  33    6.2792   633.2    3.582      69.518
2015    3        7     7  38    6.2770   633.3    3.580      69.529
2015    3        7     7  43    6.2748   633.4    3.578      69.541
2015    3        7     7  49    6.2726   633.5    3.575      69.553
2015    3        7     7  54    6.2703   633.6    3.573      69.564
2015    3        7     7  59    6.2681   633.7    3.571      69.575
2015    3        7     8   5    6.2659   633.8    3.568      69.586
2015    3        7     8  10    6.2637   633.9    3.566      69.597
2015    3        7     8  15    6.2615   634.0    3.564      69.607
2015    3        7     8  21    6.2593   634.1    3.561      69.617
2015    3        7     8  26    6.2571   634.2    3.559      69.627
2015    3        7     8  31    6.2549   634.3    3.557      69.637
2015    3        7     8  36    6.2526   634.4    3.554      69.647
2015    3        7     8  42    6.2504   634.5    3.552      69.656
2015    3        7     8  47    6.2482   634.6    3.550      69.665
2015    3        7     8  52    6.2460   634.7    3.548      69.673
2015    3        7     8  58    6.2438   634.8    3.545      69.682
2015    3        7     9   3    6.2416   634.9    3.543      69.690
2015    3        7     9   8    6.2394   634.9    3.541      69.698
2015    3        7     9  14    6.2372   635.0    3.538      69.706
2015    3        7     9  19    6.2350   635.1    3.536      69.713
2015    3        7     9  24    6.2328   635.2    3.534      69.720
2015    3        7     9  29    6.2306   635.3    3.532      69.727
2015    3        7     9  35    6.2284   635.4    3.529      69.734
2015    3        7     9  40    6.2262   635.5    3.527      69.740
2015    3        7     9  45    6.2240   635.6    3.525      69.747
2015    3        7     9  51    6.2218   635.7    3.523      69.753
2015    3        7     9  56    6.2196   635.8    3.521      69.760
2015    3        7    10   1    6.2175   635.8    3.518      69.766
2015    3        7    10   7    6.2153   635.9    3.516      69.773
2015    3        7    10  12    6.2131   636.0    3.514      69.779
2015    3        7    10  17    6.2110   636.1    3.512      69.786
2015    3        7    10  23    6.2088   636.2    3.510      69.792
2015    3        7    10  28    6.2067   636.3    3.508      69.799
2015    3        7    10  33    6.2045   636.4    3.506      69.806
2015    3        7    10  38    6.2024   636.4    3.504      69.813
2015    3        7    10  44    6.2003   636.5    3.502      69.820
2015    3        7    10  49    6.1981   636.6    3.500      69.827
2015    3        7    10  54    6.1960   636.7    3.498      69.834
2015    3        7    11   0    6.1939   636.8    3.496      69.842
2015    3        7    11   5    6.1918   636.9    3.494      69.850
2015    3        7    11  10    6.1896   636.9    3.492      69.858
2015    3        7    11  16    6.1875   637.0    3.490      69.866
2015    3        7    11  21    6.1853   637.1    3.488      69.875
2015    3        7    11  26    6.1832   637.2    3.486      69.883
2015    3        7    11  31    6.1810   637.3    3.484      69.891
2015    3        7    11  37    6.1788   637.4    3.482      69.899
2015    3        7    11  42    6.1767   637.5    3.480      69.907
2015    3        7    11  47    6.1745   637.5    3.478      69.915
2015    3        7    11  53    6.1723   637.6    3.476      69.923
2015    3        7    11  58    6.1700   637.7    3.474      69.931
2015    3        7    12   3    6.1678   637.8    3.472      69.938
2015    3        7    12   9    6.1655   637.9    3.470      69.945
2015    3        7    12  14    6.1633   638.0    3.468      69.951
2015    3        7    12  19    6.1610   638.0    3.466      69.957
2015    3        7    12  24    6.1588   638.1    3.464      69.963
2015    3        7    12  30    6.1565   638.2    3.462      69.969
2015    3        7    12  35    6.1541   638.3    3.460      69.975
2015    3        7    12  40    6.1518   638.4    3.458      69.980
2015    3        7    12  46    6.1495   638.4    3.455      69.985
2015    3        7    12  51    6.1471   638.5    3.453      69.990
2015    3        7    12  56    6.1448   638.6    3.451      69.994
2015    3        7    13   2    6.1424   638.7    3.449      69.998
2015    3        7    13   7    6.1400   638.8    3.447      70.002
2015    3        7    13  12    6.1376   638.8    3.445      70.005
2015    3        7    13  17    6.1352   638.9    3.442      70.009
2015    3        7    13  23    6.1328   639.0    3.440      70.012
2015    3        7    13  28    6.1304   639.0    3.438      70.014
2015    3        7    13  33    6.1279   639.1    3.436      70.017
2015    3        7    13  39    6.1255   639.2    3.433      70.019
2015    3        7    13  44    6.1230   639.3    3.431      70.020
2015    3        7    13  49    6.1205   639.3    3.429      70.022
2015    3        7    13  55    6.1181   639.4    3.427      70.023
2015    3        7    14   0    6.1156   639.5    3.424      70.024
2015    3        7    14   5    6.1131   639.5    3.422      70.025
2015    3        7    14  10    6.1106   639.6    3.420      70.026
2015    3        7    14  16    6.1081   639.7    3.418      70.026
2015    3        7    14  21    6.1056   639.7    3.416      70.026
2015    3        7    14  26    6.1031   639.8    3.414      70.027
2015    3        7    14  32    6.1006   639.8    3.411      70.027
2015    3        7    14  37    6.0980   639.9    3.409      70.027
2015    3        7    14  42    6.0955   639.9    3.407      70.027
2015    3        7    14  48    6.0930   640.0    3.405      70.027
2015    3        7    14  53    6.0905   640.1    3.403      70.027
2015    3        7    14  58    6.0880   640.1    3.401      70.028
2015    3        7    15   4    6.0855   640.2    3.399      70.028
2015    3        7    15   9    6.0830   640.2    3.397      70.028
2015    3        7    15  14    6.0805   640.3    3.395      70.029
2015    3        7    15  19    6.0780   640.3    3.394      70.030
2015    3        7    15  25    6.0756   640.4    3.392      70.031
2015    3        7    15  30    6.0731   640.4    3.390      70.033
2015    3        7    15  35    6.0706   640.5    3.388      70.034
2015    3        7    15  41    6.0682   640.5    3.387      70.036
2015    3        7    15  46    6.0658   640.6    3.385      70.039
2015    3        7    15  51    6.0633   640.6    3.384      70.042
2015    3        7    15  57    6.0609   640.7    3.382      70.045
2015    3        7    16   2    6.0585   640.7    3.381      70.049
2015    3        7    16   7    6.0561   640.8    3.379      70.052
2015    3        7    16  12    6.0537   640.8    3.378      70.056
2015    3        7    16  18    6.0514   640.9    3.376      70.060
2015    3        7    16  23    6.0489   640.9    3.375      70.063
2015    3        7    16  28    6.0466   641.0    3.373      70.067
2015    3        7    16  34    6.0442   641.0    3.372      70.070
2015    3        7    16  39    6.0418   641.0    3.370      70.073
2015    3        7    16  44    6.0394   641.1    3.369      70.076
2015    3        7    16  50    6.0370   641.1    3.367      70.078
2015    3        7    16  55    6.0346   641.2    3.365      70.080
2015    3        7    17   0    6.0322   641.2    3.364      70.082
2015    3        7    17   5    6.0298   641.3    3.362      70.083
2015    3        7    17  11    6.0274   641.3    3.361      70.084
2015    3        7    17  16    6.0250   641.4    3.359      70.085
2015    3        7    17  21    6.0226   641.4    3.357      70.087
2015    3        7    17  27    6.0202   641.5    3.356      70.088
2015    3        7    17  32    6.0177   641.5    3.354      70.088
2015    3        7    17  37    6.0153   641.6    3.353      70.089
2015    3        7    17  43    6.0129   641.6    3.351      70.090
2015    3        7    17  48    6.0105   641.7    3.349      70.090
2015    3        7    17  53    6.0080   641.7    3.348      70.091
2015    3        7    17  58    6.0056   641.8    3.346      70.092
2015    3        7    18   4    6.0031   641.8    3.344      70.093
2015    3        7    18   9    6.0007   641.9    3.343      70.094
2015    3        7    18  14    5.9982   641.9    3.341      70.095
2015    3        7    18  20    5.9957   642.0    3.339      70.095
2015    3        7    18  25    5.9932   642.0    3.338      70.096
2015    3        7    18  30    5.9907   642.1    3.336      70.096
2015    3        7    18  36    5.9881   642.1    3.334      70.096
2015    3        7    18  41    5.9856   642.2    3.332      70.096
2015    3        7    18  46    5.9830   642.2    3.330      70.095
2015    3        7    18  51    5.9804   642.3    3.329      70.094
2015    3        7    18  57    5.9778   642.3    3.327      70.092
2015    3        7    19   2    5.9752   642.4    3.325      70.090
2015    3        7    19   7    5.9726   642.4    3.323      70.087
2015    3        7    19  13    5.9700   642.4    3.321      70.084
2015    3        7    19  18    5.9673   642.5    3.319      70.080
2015    3        7    19  23    5.9647   642.5    3.317      70.076
2015    3        7    19  29    5.9620   642.6    3.315      70.071
2015    3        7    19  34    5.9593   642.6    3.313      70.066
2015    3        7    19  39    5.9567   642.7    3.311      70.061
2015    3        7    19  45    5.9540   642.7    3.309      70.055
2015    3        7    19  50    5.9513   642.7    3.307      70.049
2015    3        7    19  55    5.9486   642.8    3.305      70.042
2015    3        7    20   0    5.9459   642.8    3.302      70.035
2015    3        7    20   6    5.9432   642.9    3.300      70.028
2015    3        7    20  11    5.9404   642.9    3.298      70.021
2015    3        7    20  16    5.9377   642.9    3.296      70.013
2015    3        7    20  22    5.9350   643.0    3.294      70.006
2015    3        7    20  27    5.9323   643.0    3.292      69.998
2015    3        7    20  32    5.9295   643.0    3.290      69.990
2015    3        7    20  38    5.9268   643.1    3.288      69.982
2015    3        7    20  43    5.9241   643.1    3.286      69.974
2015    3        7    20  48    5.9213   643.1    3.284      69.967
2015    3        7    20  53    5.9186   643.1    3.282      69.959
2015    3        7    20  59    5.9158   643.2    3.280      69.951
2015    3        7    21   4    5.9131   643.2    3.279      69.944
2015    3        7    21   9    5.9104   643.2    3.277      69.937
2015    3        7    21  15    5.9077   643.2    3.275      69.930
2015    3        7    21  20    5.9050   643.3    3.273      69.924
2015    3        7    21  25    5.9022   643.3    3.271      69.917
2015    3        7    21  31    5.8995   643.3    3.270      69.911
2015    3        7    21  36    5.8968   643.3    3.268      69.906
2015    3        7    21  41    5.8941   643.3    3.266      69.901
2015    3        7    21  46    5.8914   643.3    3.265      69.896
2015    3        7    21  52    5.8887   643.4    3.263      69.892
2015    3        7    21  57    5.8860   643.4    3.261      69.888
2015    3        7    22   2    5.8833   643.4    3.260      69.884
2015    3        7    22   8    5.8807   643.4    3.258      69.881
2015    3        7    22  13    5.8780   643.4    3.257      69.877
2015    3        7    22  18    5.8753   643.4    3.255      69.874
2015    3        7    22  24    5.8726   643.5    3.254      69.871
2015    3        7    22  29    5.8700   643.5    3.252      69.868
2015    3        7    22  34    5.8673   643.5    3.251      69.865
2015    3        7    22  39    5.8646   643.5    3.249      69.862
2015    3        7    22  45    5.8619   643.5    3.248      69.860
2015    3        7    22  50    5.8593   643.5    3.246      69.857
2015    3        7    22  55    5.8566   643.5    3.245      69.853
2015    3        7    23   1    5.8539   643.6    3.243      69.850
2015    3        7    23   6    5.8513   643.6    3.242      69.847
2015    3        7    23  11    5.8486   643.6    3.241      69.844
2015    3        7    23  17    5.8459   643.6    3.239      69.840
2015    3        7    23  22    5.8433   643.6    3.238      69.837
2015    3        7    23  27    5.8406   643.6    3.236      69.833
2015    3        7    23  33    5.8379   643.6    3.235      69.829
2015    3        7    23  38    5.8353   643.6    3.233      69.825
2015    3        7    23  43    5.8326   643.7    3.232      69.821
2015    3        7    23  48    5.8299   643.7    3.231      69.817
2015    3        7    23  54    5.8272   643.7    3.229      69.812
2015    3        7    23  59    5.8245   643.7    3.228      69.808
2015    3        8     0   4    5.8219   643.7    3.226      69.803
2015    3        8     0  10    5.8192   643.7    3.225      69.798
2015    3        8     0  15    5.8165   643.7    3.223      69.793
2015    3        8     0  20    5.8138   643.7    3.222      69.787
2015    3        8     0  26    5.8111   643.8    3.220      69.781
2015    3        8     0  31    5.8084   643.8    3.219      69.775
2015    3        8     0  36    5.8057   643.8    3.218      69.769
2015    3        8     0  41    5.8029   643.8    3.216      69.762
2015    3        8     0  47    5.8002   643.8    3.215      69.755
2015    3        8     0  52    5.7975   643.8    3.213      69.748
2015    3        8     0  57    5.7948   643.8    3.212      69.740
2015    3        8     1   3    5.7920   643.8    3.210      69.733
2015    3        8     1   8    5.7893   643.9    3.209      69.725
2015    3        8     1  13    5.7866   643.9    3.207      69.716
2015    3        8     1  19    5.7838   643.9    3.206      69.707
2015    3        8     1  24    5.7811   643.9    3.204      69.699
2015    3        8     1  29    5.7783   643.9    3.203      69.690
2015    3        8     1  34    5.7755   643.9    3.201      69.681
2015    3        8     1  40    5.7728   643.9    3.199      69.672
2015    3        8     1  45    5.7700   643.9    3.198      69.662
2015    3        8     1  50    5.7672   643.9    3.196      69.653
2015    3        8     1  56    5.7644   643.9    3.195      69.643
2015    3        8     2   1    5.7616   643.9    3.193      69.632
2015    3        8     2   6    5.7588   644.0    3.191      69.622
2015    3        8     2  12    5.7560   644.0    3.190      69.611
2015    3        8     2  17    5.7532   644.0    3.188      69.600
2015    3        8     2  22    5.7503   644.0    3.186      69.589
2015    3        8     2  27    5.7475   644.0    3.185      69.577
2015    3        8     2  33    5.7447   644.0    3.183      69.565
2015    3        8     2  38    5.7418   644.0    3.181      69.553
2015    3        8     2  43    5.7390   644.0    3.180      69.541
2015    3        8     2  49    5.7362   644.0    3.178      69.528
2015    3        8     2  54    5.7333   644.0    3.176      69.516
2015    3        8     2  59    5.7304   644.0    3.174      69.502
2015    3        8     3   5    5.7276   644.0    3.172      69.489
2015    3        8     3  10    5.7247   644.0    3.171      69.476
2015    3        8     3  15    5.7218   643.9    3.169      69.462
2015    3        8     3  20    5.7190   643.9    3.167      69.448
2015    3        8     3  26    5.7161   643.9    3.165      69.434
2015    3        8     3  31    5.7132   643.9    3.163      69.419
2015    3        8     3  36    5.7103   643.9    3.161      69.405
2015    3        8     3  42    5.7074   643.9    3.159      69.390
2015    3        8     3  47    5.7045   643.9    3.158      69.375
2015    3        8     3  52    5.7016   643.9    3.156      69.359
2015    3        8     3  58    5.6987   643.9    3.154      69.344
2015    3        8     4   3    5.6959   643.8    3.152      69.329
2015    3        8     4   8    5.6929   643.8    3.150      69.313
2015    3        8     4  13    5.6901   643.8    3.148      69.297
2015    3        8     4  19    5.6872   643.8    3.147      69.282
2015    3        8     4  24    5.6843   643.8    3.145      69.267
2015    3        8     4  29    5.6814   643.7    3.143      69.252
2015    3        8     4  35    5.6785   643.7    3.142      69.237
2015    3        8     4  40    5.6756   643.7    3.140      69.222
2015    3        8     4  45    5.6727   643.7    3.139      69.207
2015    3        8     4  51    5.6698   643.7    3.137      69.193
2015    3        8     4  56    5.6669   643.6    3.136      69.180
2015    3        8     5   1    5.6640   643.6    3.134      69.167
2015    3        8     5   7    5.6611   643.6    3.133      69.154
2015    3        8     5  12    5.6582   643.6    3.131      69.142
2015    3        8     5  17    5.6553   643.5    3.130      69.130
2015    3        8     5  22    5.6524   643.5    3.129      69.118
2015    3        8     5  28    5.6496   643.5    3.128      69.107
2015    3        8     5  33    5.6467   643.4    3.126      69.095
2015    3        8     5  38    5.6438   643.4    3.125      69.084
2015    3        8     5  44    5.6409   643.4    3.124      69.073
2015    3        8     5  49    5.6380   643.4    3.123      69.063
2015    3        8     5  54    5.6351   643.3    3.121      69.052
2015    3        8     6   0    5.6323   643.3    3.120      69.041
2015    3        8     6   5    5.6294   643.3    3.119      69.031
2015    3        8     6  10    5.6266   643.2    3.118      69.022
2015    3        8     6  15    5.6237   643.2    3.117      69.013
2015    3        8     6  21    5.6209   643.2    3.116      69.004
2015    3        8     6  26    5.6181   643.2    3.115      68.996
2015    3        8     6  31    5.6152   643.1    3.114      68.987
2015    3        8     6  37    5.6124   643.1    3.113      68.979
2015    3        8     6  42    5.6096   643.1    3.111      68.971
2015    3        8     6  47    5.6068   643.1    3.110      68.963
2015    3        8     6  53    5.6039   643.0    3.109      68.954
2015    3        8     6  58    5.6011   643.0    3.108      68.945
2015    3        8     7   3    5.5982   643.0    3.107      68.935
2015    3        8     7   8    5.5954   643.0    3.105      68.925
2015    3        8     7  14    5.5925   642.9    3.104      68.913
2015    3        8     7  19    5.5897   642.9    3.103      68.901
2015    3        8     7  24    5.5868   642.9    3.101      68.888
2015    3        8     7  30    5.5839   642.9    3.100      68.875
2015    3        8     7  35    5.5810   642.8    3.098      68.860
2015    3        8     7  40    5.5781   642.8    3.097      68.845
2015    3        8     7  46    5.5752   642.8    3.095      68.829
2015    3        8     7  51    5.5722   642.7    3.094      68.813
2015    3        8     7  56    5.5693   642.7    3.092      68.796
2015    3        8     8   1    5.5663   642.7    3.091      68.778
2015    3        8     8   7    5.5634   642.7    3.089      68.759
2015    3        8     8  12    5.5604   642.6    3.088      68.739
2015    3        8     8  17    5.5575   642.6    3.086      68.719
2015    3        8     8  23    5.5545   642.6    3.084      68.699
2015    3        8     8  28    5.5515   642.5    3.083      68.677
2015    3        8     8  33    5.5485   642.5    3.081      68.656
2015    3        8     8  39    5.5455   642.5    3.079      68.633
2015    3        8     8  44    5.5425   642.4    3.078      68.610
2015    3        8     8  49    5.5395   642.4    3.076      68.587
2015    3        8     8  55    5.5364   642.3    3.074      68.563
2015    3        8     9   0    5.5334   642.3    3.072      68.538
2015    3        8     9   5    5.5304   642.3    3.071      68.514
2015    3        8     9  10    5.5273   642.2    3.069      68.489
2015    3        8     9  16    5.5243   642.2    3.067      68.463
2015    3        8     9  21    5.5212   642.1    3.066      68.438
2015    3        8     9  26    5.5182   642.1    3.064      68.412
2015    3        8     9  32    5.5152   642.0    3.062      68.386
2015    3        8     9  37    5.5121   642.0    3.061      68.360
2015    3        8     9  42    5.5091   641.9    3.059      68.334
2015    3        8     9  48    5.5061   641.9    3.057      68.308
2015    3        8     9  53    5.5030   641.8    3.056      68.282
2015    3        8     9  58    5.5000   641.7    3.054      68.256
2015    3        8    10   3    5.4970   641.7    3.053      68.231
2015    3        8    10   9    5.4940   641.6    3.051      68.205
2015    3        8    10  14    5.4910   641.6    3.050      68.180
2015    3        8    10  19    5.4880   641.5    3.049      68.155
2015    3        8    10  25    5.4850   641.4    3.047      68.131
2015    3        8    10  30    5.4821   641.4    3.046      68.107
2015    3        8    10  35    5.4791   641.3    3.045      68.084
2015    3        8    10  41    5.4761   641.3    3.044      68.063
2015    3        8    10  46    5.4732   641.2    3.043      68.041
2015    3        8    10  51    5.4702   641.1    3.041      68.021
2015    3        8    10  56    5.4672   641.1    3.040      68.001
2015    3        8    11   2    5.4643   641.0    3.039      67.982
2015    3        8    11   7    5.4613   640.9    3.038      67.963
2015    3        8    11  12    5.4584   640.9    3.037      67.945
2015    3        8    11  18    5.4554   640.8    3.036      67.927
2015    3        8    11  23    5.4525   640.7    3.035      67.910
2015    3        8    11  28    5.4495   640.6    3.034      67.893
2015    3        8    11  34    5.4466   640.6    3.033      67.876
2015    3        8    11  39    5.4437   640.5    3.032      67.859
2015    3        8    11  44    5.4408   640.4    3.031      67.843
2015    3        8    11  49    5.4379   640.4    3.030      67.828
2015    3        8    11  55    5.4349   640.3    3.030      67.813
2015    3        8    12   0    5.4320   640.2    3.029      67.798
2015    3        8    12   5    5.4291   640.2    3.028      67.783
2015    3        8    12  11    5.4262   640.1    3.027      67.769
2015    3        8    12  16    5.4233   640.0    3.026      67.755
2015    3        8    12  21    5.4204   640.0    3.025      67.740
2015    3        8    12  27    5.4175   639.9    3.025      67.726
2015    3        8    12  32    5.4145   639.8    3.024      67.711
2015    3        8    12  37    5.4116   639.8    3.023      67.695
2015    3        8    12  42    5.4087   639.7    3.022      67.680
2015    3        8    12  48    5.4057   639.6    3.021      67.665
2015    3        8    12  53    5.4027   639.6    3.020      67.648
2015    3        8    12  58    5.3998   639.5    3.019      67.631
2015    3        8    13   4    5.3968   639.4    3.018      67.614
2015    3        8    13   9    5.3938   639.4    3.017      67.596
2015    3        8    13  14    5.3908   639.3    3.016      67.578
2015    3        8    13  20    5.3877   639.2    3.015      67.559
2015    3        8    13  25    5.3847   639.1    3.014      67.539
2015    3        8    13  30    5.3817   639.1    3.012      67.519
2015    3        8    13  36    5.3787   639.0    3.011      67.499
2015    3        8    13  41    5.3756   638.9    3.010      67.477
2015    3        8    13  46    5.3725   638.9    3.009      67.455
2015    3        8    13  51    5.3695   638.8    3.008      67.433
2015    3        8    13  57    5.3664   638.7    3.006      67.410
2015    3        8    14   2    5.3633   638.6    3.005      67.386
2015    3        8    14   7    5.3602   638.6    3.004      67.362
2015    3        8    14  13    5.3571   638.5    3.002      67.337
2015    3        8    14  18    5.3540   638.4    3.001      67.311
2015    3        8    14  23    5.3508   638.3    3.000      67.285
2015    3        8    14  29    5.3477   638.2    2.998      67.258
2015    3        8    14  34    5.3445   638.2    2.997      67.230
2015    3        8    14  39    5.3414   638.1    2.995      67.202
2015    3        8    14  44    5.3382   638.0    2.994      67.173
2015    3        8    14  50    5.3351   637.9    2.992      67.144
2015    3        8    14  55    5.3319   637.8    2.991      67.113
2015    3        8    15   0    5.3288   637.7    2.989      67.082
2015    3        8    15   6    5.3256   637.7    2.988      67.051
2015    3        8    15  11    5.3225   637.6    2.987      67.019
2015    3        8    15  16    5.3193   637.5    2.985      66.987
2015    3        8    15  22    5.3162   637.4    2.984      66.954
2015    3        8    15  27    5.3131   637.3    2.982      66.922
2015    3        8    15  32    5.3100   637.2    2.981      66.889
2015    3        8    15  37    5.3069   637.1    2.980      66.855
2015    3        8    15  43    5.3039   637.0    2.978      66.822
2015    3        8    15  48    5.3008   636.9    2.977      66.788
2015    3        8    15  53    5.2978   636.8    2.976      66.755
2015    3        8    15  59    5.2948   636.7    2.975      66.721
2015    3        8    16   4    5.2918   636.6    2.974      66.688
2015    3        8    16   9    5.2888   636.5    2.973      66.654
2015    3        8    16  15    5.2858   636.4    2.972      66.620
2015    3        8    16  20    5.2828   636.3    2.971      66.587
2015    3        8    16  25    5.2799   636.2    2.970      66.553
2015    3        8    16  30    5.2769   636.1    2.969      66.520
2015    3        8    16  36    5.2740   636.0    2.968      66.487
2015    3        8    16  41    5.2710   635.9    2.967      66.455
2015    3        8    16  46    5.2681   635.8    2.966      66.423
2015    3        8    16  52    5.2651   635.7    2.965      66.391
2015    3        8    16  57    5.2622   635.6    2.965      66.360
2015    3        8    17   2    5.2593   635.5    2.964      66.330
2015    3        8    17   8    5.2564   635.4    2.963      66.300
2015    3        8    17  13    5.2535   635.3    2.962      66.271
2015    3        8    17  18    5.2505   635.1    2.962      66.242
2015    3        8    17  23    5.2477   635.0    2.961      66.214
2015    3        8    17  29    5.2448   634.9    2.960      66.186
2015    3        8    17  34    5.2420   634.8    2.960      66.159
2015    3        8    17  39    5.2391   634.7    2.959      66.133
2015    3        8    17  45    5.2362   634.6    2.959      66.108
2015    3        8    17  50    5.2334   634.5    2.958      66.083
2015    3        8    17  55    5.2305   634.4    2.958      66.059
2015    3        8    18   1    5.2276   634.3    2.957      66.036
2015    3        8    18   6    5.2248   634.1    2.957      66.014
2015    3        8    18  11    5.2219   634.0    2.956      65.991
2015    3        8    18  17    5.2191   633.9    2.956      65.969
2015    3        8    18  22    5.2162   633.8    2.955      65.947
2015    3        8    18  27    5.2133   633.7    2.955      65.925
2015    3        8    18  32    5.2105   633.6    2.954      65.903
2015    3        8    18  38    5.2076   633.5    2.953      65.881
2015    3        8    18  43    5.2048   633.4    2.953      65.859
2015    3        8    18  48    5.2019   633.3    2.952      65.837
2015    3        8    18  54    5.1990   633.2    2.952      65.814
2015    3        8    18  59    5.1962   633.1    2.951      65.790
2015    3        8    19   4    5.1933   632.9    2.950      65.766
2015    3        8    19  10    5.1905   632.8    2.950      65.742
2015    3        8    19  15    5.1876   632.7    2.949      65.718
2015    3        8    19  20    5.1847   632.6    2.948      65.694
2015    3        8    19  25    5.1818   632.5    2.948      65.669
2015    3        8    19  31    5.1789   632.4    2.947      65.644
2015    3        8    19  36    5.1760   632.3    2.946      65.619
2015    3        8    19  41    5.1730   632.2    2.945      65.594
2015    3        8    19  47    5.1701   632.1    2.945      65.568
2015    3        8    19  52    5.1671   631.9    2.944      65.543
2015    3        8    19  57    5.1642   631.8    2.943      65.517
2015    3        8    20   3    5.1612   631.7    2.942      65.491
2015    3        8    20   8    5.1582   631.6    2.941      65.465
2015    3        8    20  13    5.1552   631.5    2.940      65.438
2015    3        8    20  18    5.1521   631.4    2.939      65.410
2015    3        8    20  24    5.1491   631.3    2.938      65.382
2015    3        8    20  29    5.1461   631.1    2.937      65.352
2015    3        8    20  34    5.1430   631.0    2.936      65.322
2015    3        8    20  40    5.1400   630.9    2.935      65.291
2015    3        8    20  45    5.1368   630.8    2.934      65.259
2015    3        8    20  50    5.1338   630.6    2.933      65.226
2015    3        8    20  56    5.1307   630.5    2.932      65.192
2015    3        8    21   1    5.1276   630.4    2.930      65.157
2015    3        8    21   6    5.1245   630.3    2.929      65.121
2015    3        8    21  11    5.1214   630.1    2.928      65.085
2015    3        8    21  17    5.1183   630.0    2.927      65.047
2015    3        8    21  22    5.1152   629.8    2.925      65.009
2015    3        8    21  27    5.1120   629.7    2.924      64.971
2015    3        8    21  33    5.1089   629.6    2.923      64.931
2015    3        8    21  38    5.1059   629.4    2.922      64.891
2015    3        8    21  43    5.1028   629.3    2.921      64.851
2015    3        8    21  49    5.0997   629.1    2.920      64.811
2015    3        8    21  54    5.0967   629.0    2.919      64.770
2015    3        8    21  59    5.0936   628.8    2.918      64.729
2015    3        8    22   5    5.0906   628.7    2.917      64.689
2015    3        8    22  10    5.0876   628.5    2.916      64.648
2015    3        8    22  15    5.0846   628.4    2.915      64.608
2015    3        8    22  20    5.0816   628.3    2.914      64.569
2015    3        8    22  26    5.0787   628.1    2.913      64.529
2015    3        8    22  31    5.0758   628.0    2.913      64.490
2015    3        8    22  36    5.0729   627.8    2.912      64.452
2015    3        8    22  42    5.0700   627.7    2.912      64.414
2015    3        8    22  47    5.0672   627.5    2.911      64.377
2015    3        8    22  52    5.0644   627.4    2.911      64.340
2015    3        8    22  58    5.0616   627.2    2.911      64.304
2015    3        8    23   3    5.0587   627.1    2.911      64.268
2015    3        8    23   8    5.0560   626.9    2.911      64.233
2015    3        8    23  13    5.0532   626.8    2.910      64.198
2015    3        8    23  19    5.0504   626.6    2.910      64.164
2015    3        8    23  24    5.0476   626.5    2.910      64.131
2015    3        8    23  29    5.0449   626.4    2.910      64.098
2015    3        8    23  35    5.0421   626.2    2.910      64.066
2015    3        8    23  40    5.0393   626.1    2.910      64.034
2015    3        8    23  45    5.0365   625.9    2.910      64.002
2015    3        8    23  51    5.0337   625.8    2.910      63.970
2015    3        8    23  56    5.0309   625.6    2.910      63.938
2015    3        9     0   1    5.0281   625.5    2.909      63.906
2015    3        9     0   6    5.0252   625.3    2.909      63.874
2015    3        9     0  12    5.0224   625.2    2.909      63.842
2015    3        9     0  17    5.0196   625.0    2.909      63.809
2015    3        9     0  22    5.0168   624.9    2.908      63.776
2015    3        9     0  28    5.0140   624.7    2.908      63.743
2015    3        9     0  33    5.0112   624.6    2.908      63.710
2015    3        9     0  38    5.0084   624.4    2.907      63.676
2015    3        9     0  44    5.0056   624.3    2.907      63.642
2015    3        9     0  49    5.0028   624.1    2.907      63.608
2015    3        9     0  54    5.0000   624.0    2.906      63.574
2015    3        9     0  59    4.9972   623.8    2.906      63.539
2015    3        9     1   5    4.9944   623.7    2.906      63.504
2015    3        9     1  10    4.9916   623.5    2.905      63.470
2015    3        9     1  15    4.9889   623.4    2.905      63.435
2015    3        9     1  21    4.9861   623.2    2.905      63.400
2015    3        9     1  26    4.9834   623.1    2.904      63.366
2015    3        9     1  31    4.9806   622.9    2.904      63.331
2015    3        9     1  37    4.9778   622.8    2.903      63.297
2015    3        9     1  42    4.9750   622.6    2.903      63.262
2015    3        9     1  47    4.9722   622.5    2.903      63.227
2015    3        9     1  52    4.9695   622.3    2.902      63.193
2015    3        9     1  58    4.9667   622.2    2.902      63.158
2015    3        9     2   3    4.9639   622.0    2.902      63.123
2015    3        9     2   8    4.9611   621.9    2.901      63.088
2015    3        9     2  14    4.9583   621.7    2.901      63.053
2015    3        9     2  19    4.9554   621.6    2.900      63.018
2015    3        9     2  24    4.9526   621.4    2.900      62.982
2015    3        9     2  30    4.9497   621.3    2.899      62.947
2015    3        9     2  35    4.9468   621.1    2.899      62.911
2015    3        9     2  40    4.9440   621.0    2.898      62.875
2015    3        9     2  46    4.9411   620.8    2.898      62.839
2015    3        9     2  51    4.9381   620.7    2.897      62.802
2015    3        9     2  56    4.9353   620.5    2.897      62.765
2015    3        9     3   1    4.9323   620.3    2.896      62.728
2015    3        9     3   7    4.9294   620.2    2.895      62.690
2015    3        9     3  12    4.9264   620.0    2.894      62.652
2015    3        9     3  17    4.9235   619.9    2.894      62.614
2015    3        9     3  23    4.9205   619.7    2.893      62.574
2015    3        9     3  28    4.9175   619.5    2.892      62.535
2015    3        9     3  33    4.9146   619.4    2.891      62.494
2015    3        9     3  39    4.9116   619.2    2.890      62.453
2015    3        9     3  44    4.9087   619.0    2.890      62.412
2015    3        9     3  49    4.9057   618.9    2.889      62.370
2015    3        9     3  54    4.9028   618.7    2.888      62.328
2015    3        9     4   0    4.8999   618.5    2.887      62.285
2015    3        9     4   5    4.8969   618.3    2.886      62.242
2015    3        9     4  10    4.8940   618.2    2.885      62.198
2015    3        9     4  16    4.8911   618.0    2.884      62.154
2015    3        9     4  21    4.8882   617.8    2.883      62.110
2015    3        9     4  26    4.8853   617.6    2.883      62.066
2015    3        9     4  32    4.8824   617.5    2.882      62.021
2015    3        9     4  37    4.8795   617.3    2.881      61.976
2015    3        9     4  42    4.8767   617.1    2.880      61.931
2015    3        9     4  47    4.8738   616.9    2.879      61.886
2015    3        9     4  53    4.8709   616.8    2.879      61.841
2015    3        9     4  58    4.8681   616.6    2.878      61.796
2015    3        9     5   3    4.8653   616.4    2.877      61.751
2015    3        9     5   9    4.8624   616.2    2.876      61.706
2015    3        9     5  14    4.8596   616.0    2.876      61.661
2015    3        9     5  19    4.8568   615.8    2.875      61.616
2015    3        9     5  25    4.8540   615.6    2.875      61.571
2015    3        9     5  30    4.8512   615.5    2.874      61.526
2015    3        9     5  35    4.8484   615.3    2.874      61.482
2015    3        9     5  41    4.8457   615.1    2.873      61.438
2015    3        9     5  46    4.8429   614.9    2.873      61.393
2015    3        9     5  51    4.8401   614.7    2.872      61.349
2015    3        9     5  56    4.8374   614.5    2.872      61.304
2015    3        9     6   2    4.8346   614.3    2.872      61.260
2015    3        9     6   7    4.8318   614.1    2.871      61.216
2015    3        9     6  12    4.8291   614.0    2.871      61.171
2015    3        9     6  18    4.8263   613.8    2.871      61.127
2015    3        9     6  23    4.8236   613.6    2.871      61.083
2015    3        9     6  28    4.8208   613.4    2.870      61.038
2015    3        9     6  34    4.8180   613.2    2.870      60.994
2015    3        9     6  39    4.8152   613.0    2.870      60.950
2015    3        9     6  44    4.8125   612.8    2.870      60.905
2015    3        9     6  49    4.8097   612.6    2.870      60.861
2015    3        9     6  55    4.8069   612.4    2.869      60.816
2015    3        9     7   0    4.8042   612.2    2.869      60.772
2015    3        9     7   5    4.8014   612.0    2.869      60.727
2015    3        9     7  11    4.7986   611.8    2.869      60.682
2015    3        9     7  16    4.7959   611.6    2.869      60.638
2015    3        9     7  21    4.7931   611.4    2.869      60.593
2015    3        9     7  27    4.7903   611.2    2.869      60.549
2015    3        9     7  32    4.7875   611.1    2.869      60.505
2015    3        9     7  37    4.7848   610.9    2.869      60.460
2015    3        9     7  42    4.7820   610.7    2.869      60.416
2015    3        9     7  48    4.7793   610.5    2.869      60.372
2015    3        9     7  53    4.7766   610.3    2.869      60.328
2015    3        9     7  58    4.7738   610.1    2.869      60.285
2015    3        9     8   4    4.7710   609.9    2.869      60.241
2015    3        9     8   9    4.7683   609.7    2.869      60.198
2015    3        9     8  14    4.7656   609.5    2.869      60.155
2015    3        9     8  20    4.7629   609.3    2.869      60.112
2015    3        9     8  25    4.7602   609.1    2.869      60.069
2015    3        9     8  30    4.7575   608.9    2.870      60.027
2015    3        9     8  35    4.7547   608.7    2.870      59.985
2015    3        9     8  41    4.7520   608.5    2.870      59.942
2015    3        9     8  46    4.7493   608.3    2.870      59.900
2015    3        9     8  51    4.7466   608.1    2.870      59.858
2015    3        9     8  57    4.7439   607.9    2.870      59.816
2015    3        9     9   2    4.7412   607.7    2.870      59.773
2015    3        9     9   7    4.7384   607.5    2.871      59.730
2015    3        9     9  13    4.7357   607.3    2.871      59.688
2015    3        9     9  18    4.7329   607.1    2.871      59.645
2015    3        9     9  23    4.7302   606.9    2.871      59.601
2015    3        9     9  28    4.7274   606.7    2.871      59.558
2015    3        9     9  34    4.7246   606.5    2.871      59.514
2015    3        9     9  39    4.7218   606.3    2.871      59.470
2015    3        9     9  44    4.7191   606.1    2.871      59.425
2015    3        9     9  50    4.7162   605.9    2.871      59.380
2015    3        9     9  55    4.7134   605.7    2.871      59.335
2015    3        9    10   0    4.7107   605.5    2.870      59.290
2015    3        9    10   6    4.7078   605.3    2.870      59.244
2015    3        9    10  11    4.7050   605.1    2.870      59.198
2015    3        9    10  16    4.7022   604.9    2.870      59.152
2015    3        9    10  22    4.6994   604.7    2.870      59.105
2015    3        9    10  27    4.6966   604.5    2.870      59.058
2015    3        9    10  32    4.6938   604.3    2.869      59.011
2015    3        9    10  37    4.6910   604.1    2.869      58.964
2015    3        9    10  43    4.6882   603.9    2.869      58.916
2015    3        9    10  48    4.6854   603.7    2.869      58.869
2015    3        9    10  53    4.6826   603.5    2.868      58.821
2015    3        9    10  59    4.6799   603.3    2.868      58.772
2015    3        9    11   4    4.6771   603.1    2.868      58.724
2015    3        9    11   9    4.6743   602.9    2.867      58.675
2015    3        9    11  15    4.6715   602.7    2.867      58.627
2015    3        9    11  20    4.6688   602.4    2.867      58.578
2015    3        9    11  25    4.6661   602.2    2.866      58.528
2015    3        9    11  30    4.6633   602.0    2.866      58.479
2015    3        9    11  36    4.6606   601.8    2.866      58.429
2015    3        9    11  41    4.6578   601.6    2.865      58.380
2015    3        9    11  46    4.6551   601.4    2.865      58.330
2015    3        9    11  52    4.6524   601.2    2.865      58.280
2015    3        9    11  57    4.6496   601.0    2.864      58.230
2015    3        9    12   2    4.6469   600.8    2.864      58.180
2015    3        9    12   8    4.6442   600.6    2.863      58.130
2015    3        9    12  13    4.6414   600.4    2.863      58.079
2015    3        9    12  18    4.6387   600.2    2.863      58.029
2015    3        9    12  23    4.6360   599.9    2.862      57.979
2015    3        9    12  29    4.6332   599.7    2.862      57.928
2015    3        9    12  34    4.6305   599.5    2.861      57.878
2015    3        9    12  39    4.6277   599.3    2.861      57.827
2015    3        9    12  45    4.6250   599.1    2.861      57.776
2015    3        9    12  50    4.6222   598.9    2.860      57.726
2015    3        9    12  55    4.6195   598.6    2.860      57.675
2015    3        9    13   1    4.6168   598.4    2.860      57.624
2015    3        9    13   6    4.6140   598.2    2.859      57.574
2015    3        9    13  11    4.6113   598.0    2.859      57.523
2015    3        9    13  16    4.6085   597.8    2.859      57.473
2015    3        9    13  22    4.6058   597.5    2.858      57.422
2015    3        9    13  27    4.6030   597.3    2.858      57.371
2015    3        9    13  32    4.6003   597.1    2.858      57.321
2015    3        9    13  38    4.5976   596.9    2.857      57.270
2015    3        9    13  43    4.5948   596.6    2.857      57.219
2015    3        9    13  48    4.5921   596.4    2.857      57.168
2015    3        9    13  54    4.5894   596.2    2.857      57.117
2015    3        9    13  59    4.5866   596.0    2.856      57.066
2015    3        9    14   4    4.5839   595.7    2.856      57.015
2015    3        9    14  10    4.5811   595.5    2.856      56.964
2015    3        9    14  15    4.5784   595.3    2.856      56.912
2015    3        9    14  20    4.5756   595.1    2.856      56.861
2015    3        9    14  25    4.5729   594.8    2.856      56.809
2015    3        9    14  31    4.5701   594.6    2.856      56.758
2015    3        9    14  36    4.5673   594.4    2.856      56.706
2015    3        9    14  41    4.5646   594.1    2.856      56.654
2015    3        9    14  47    4.5618   593.9    2.856      56.602
2015    3        9    14  52    4.5590   593.6    2.856      56.550
2015    3        9    14  57    4.5563   593.4    2.856      56.498
2015    3        9    15   3    4.5535   593.2    2.856      56.445
2015    3        9    15   8    4.5507   592.9    2.856      56.393
2015    3        9    15  13    4.5480   592.7    2.856      56.342
2015    3        9    15  18    4.5453   592.4    2.856      56.290
2015    3        9    15  24    4.5425   592.2    2.856      56.238
2015    3        9    15  29    4.5398   591.9    2.856      56.187
2015    3        9    15  34    4.5371   591.7    2.856      56.136
2015    3        9    15  40    4.5344   591.5    2.856      56.084
2015    3        9    15  45    4.5317   591.2    2.857      56.033
2015    3        9    15  50    4.5290   591.0    2.857      55.982
2015    3        9    15  56    4.5263   590.7    2.857      55.931
2015    3        9    16   1    4.5236   590.5    2.857      55.880
2015    3        9    16   6    4.5210   590.2    2.858      55.829
2015    3        9    16  11    4.5184   590.0    2.858      55.778
2015    3        9    16  17    4.5157   589.7    2.858      55.727
2015    3        9    16  22    4.5131   589.5    2.858      55.677
2015    3        9    16  27    4.5105   589.2    2.859      55.627
2015    3        9    16  33    4.5079   589.0    2.859      55.576
2015    3        9    16  38    4.5053   588.7    2.860      55.526
2015    3        9    16  43    4.5027   588.5    2.860      55.475
2015    3        9    16  49    4.5001   588.2    2.860      55.425
2015    3        9    16  54    4.4976   588.0    2.861      55.376
2015    3        9    16  59    4.4950   587.7    2.861      55.326
2015    3        9    17   4    4.4924   587.5    2.862      55.276
2015    3        9    17  10    4.4898   587.2    2.862      55.227
2015    3        9    17  15    4.4873   587.0    2.862      55.177
2015    3        9    17  20    4.4847   586.7    2.863      55.127
2015    3        9    17  26    4.4821   586.5    2.863      55.077
2015    3        9    17  31    4.4796   586.2    2.864      55.028
2015    3        9    17  36    4.4770   586.0    2.864      54.977
2015    3        9    17  42    4.4744   585.7    2.864      54.927
2015    3        9    17  47    4.4718   585.5    2.865      54.877
2015    3        9    17  52    4.4692   585.2    2.865      54.827
2015    3        9    17  57    4.4666   585.0    2.865      54.776
2015    3        9    18   3    4.4640   584.7    2.866      54.725
2015    3        9    18   8    4.4614   584.5    2.866      54.674
2015    3        9    18  13    4.4588   584.3    2.866      54.623
2015    3        9    18  19    4.4562   584.0    2.866      54.571
2015    3        9    18  24    4.4536   583.8    2.867      54.520
2015    3        9    18  29    4.4510   583.5    2.867      54.468
2015    3        9    18  35    4.4484   583.3    2.867      54.417
2015    3        9    18  40    4.4458   583.0    2.867      54.365
2015    3        9    18  45    4.4432   582.8    2.868      54.314
2015    3        9    18  51    4.4406   582.5    2.868      54.263
2015    3        9    18  56    4.4380   582.3    2.868      54.211
2015    3        9    19   1    4.4353   582.0    2.869      54.160
2015    3        9    19   6    4.4328   581.8    2.869      54.109
2015    3        9    19  12    4.4302   581.5    2.869      54.059
2015    3        9    19  17    4.4276   581.3    2.870      54.008
2015    3        9    19  22    4.4249   581.1    2.870      53.958
2015    3        9    19  28    4.4224   580.8    2.870      53.908
2015    3        9    19  33    4.4197   580.6    2.871      53.859
2015    3        9    19  38    4.4171   580.3    2.871      53.809
2015    3        9    19  44    4.4145   580.1    2.871      53.759
2015    3        9    19  49    4.4119   579.8    2.871      53.710
2015    3        9    19  54    4.4093   579.6    2.872      53.660
2015    3        9    19  59    4.4066   579.3    2.872      53.610
2015    3        9    20   5    4.4040   579.1    2.872      53.559
2015    3        9    20  10    4.4013   578.8    2.873      53.509
2015    3        9    20  15    4.3987   578.6    2.873      53.459
2015    3        9    20  21    4.3960   578.3    2.873      53.408
2015    3        9    20  26    4.3933   578.1    2.873      53.357
2015    3        9    20  31    4.3907   577.8    2.874      53.306
2015    3        9    20  37    4.3880   577.6    2.874      53.255
2015    3        9    20  42    4.3853   577.3    2.874      53.203
2015    3        9    20  47    4.3827   577.1    2.874      53.152
2015    3        9    20  52    4.3801   576.8    2.875      53.100
2015    3        9    20  58    4.3774   576.6    2.875      53.048
2015    3        9    21   3    4.3748   576.3    2.875      52.997
2015    3        9    21   8    4.3721   576.1    2.876      52.945
2015    3        9    21  14    4.3695   575.8    2.876      52.893
2015    3        9    21  19    4.3668   575.5    2.876      52.841
2015    3        9    21  24    4.3642   575.3    2.877      52.789
2015    3        9    21  30    4.3616   575.0    2.877      52.737
2015    3        9    21  35    4.3589   574.8    2.877      52.685
2015    3        9    21  40    4.3563   574.5    2.877      52.633
2015    3        9    21  45    4.3537   574.2    2.878      52.581
2015    3        9    21  51    4.3511   574.0    2.878      52.529
2015    3        9    21  56    4.3484   573.7    2.878      52.476
2015    3        9    22   1    4.3458   573.4    2.878      52.423
2015    3        9    22   7    4.3432   573.2    2.879      52.370
2015    3        9    22  12    4.3405   572.9    2.879      52.317
2015    3        9    22  17    4.3379   572.6    2.879      52.264
2015    3        9    22  23    4.3354   572.3    2.879      52.210
2015    3        9    22  28    4.3327   572.1    2.879      52.156
2015    3        9    22  33    4.3302   571.8    2.880      52.102
2015    3        9    22  39    4.3276   571.5    2.880      52.048
2015    3        9    22  44    4.3251   571.2    2.880      51.994
2015    3        9    22  49    4.3226   571.0    2.880      51.940
2015    3        9    22  54    4.3201   570.7    2.880      51.886
2015    3        9    23   0    4.3177   570.4    2.881      51.832
2015    3        9    23   5    4.3152   570.1    2.881      51.778
2015    3        9    23  10    4.3128   569.8    2.881      51.724
2015    3        9    23  16    4.3104   569.5    2.882      51.670
2015    3        9    23  21    4.3080   569.2    2.882      51.617
2015    3        9    23  26    4.3056   569.0    2.883      51.564
2015    3        9    23  32    4.3033   568.7    2.883      51.512
2015    3        9    23  37    4.3011   568.4    2.884      51.460
2015    3        9    23  42    4.2987   568.1    2.884      51.408
2015    3        9    23  47    4.2965   567.8    2.885      51.357
2015    3        9    23  53    4.2942   567.5    2.886      51.306
2015    3        9    23  58    4.2920   567.2    2.887      51.256
2015    3       10     0   3    4.2898   567.0    2.887      51.207
2015    3       10     0   9    4.2877   566.7    2.888      51.158
2015    3       10     0  14    4.2855   566.4    2.889      51.109
2015    3       10     0  19    4.2833   566.1    2.890      51.060
2015    3       10     0  25    4.2811   565.8    2.891      51.012
2015    3       10     0  30    4.2790   565.5    2.892      50.964
2015    3       10     0  35    4.2767   565.2    2.893      50.916
2015    3       10     0  40    4.2746   564.9    2.893      50.867
2015    3       10     0  46    4.2725   564.7    2.894      50.819
2015    3       10     0  51    4.2703   564.4    2.895      50.770
2015    3       10     0  56    4.2681   564.1    2.896      50.722
2015    3       10     1   2    4.2660   563.8    2.897      50.673
2015    3       10     1   7    4.2638   563.5    2.898      50.624
2015    3       10     1  12    4.2616   563.2    2.899      50.575
2015    3       10     1  18    4.2594   562.9    2.900      50.526
2015    3       10     1  23    4.2573   562.6    2.900      50.477
2015    3       10     1  28    4.2551   562.3    2.901      50.428
2015    3       10     1  33    4.2530   562.0    2.902      50.379
2015    3       10     1  39    4.2509   561.7    2.903      50.330
2015    3       10     1  44    4.2488   561.4    2.904      50.282
2015    3       10     1  49    4.2466   561.2    2.905      50.233
2015    3       10     1  55    4.2445   560.9    2.906      50.184
2015    3       10     2   0    4.2424   560.6    2.907      50.136
2015    3       10     2   5    4.2402   560.3    2.908      50.088
2015    3       10     2  11    4.2381   560.0    2.909      50.040
2015    3       10     2  16    4.2360   559.7    2.910      49.992
2015    3       10     2  21    4.2338   559.4    2.912      49.944
2015    3       10     2  27    4.2317   559.1    2.913      49.895
2015    3       10     2  32    4.2295   558.8    2.914      49.847
2015    3       10     2  37    4.2274   558.5    2.915      49.798
2015    3       10     2  42    4.2252   558.2    2.916      49.750
2015    3       10     2  48    4.2230   557.9    2.917      49.701
2015    3       10     2  53    4.2208   557.6    2.918      49.651
2015    3       10     2  58    4.2186   557.4    2.919      49.602
2015    3       10     3   4    4.2163   557.1    2.920      49.552
2015    3       10     3   9    4.2141   556.8    2.921      49.502
2015    3       10     3  14    4.2119   556.5    2.922      49.452
2015    3       10     3  20    4.2096   556.2    2.923      49.401
2015    3       10     3  25    4.2074   555.9    2.924      49.351
2015    3       10     3  30    4.2051   555.6    2.925      49.300
2015    3       10     3  35    4.2029   555.2    2.926      49.249
2015    3       10     3  41    4.2007   554.9    2.927      49.198
2015    3       10     3  46    4.1984   554.6    2.928      49.147
2015    3       10     3  51    4.1962   554.3    2.929      49.096
2015    3       10     3  57    4.1940   554.0    2.930      49.045
2015    3       10     4   2    4.1917   553.7    2.931      48.993
2015    3       10     4   7    4.1895   553.4    2.932      48.942
2015    3       10     4  13    4.1874   553.1    2.933      48.891
2015    3       10     4  18    4.1852   552.8    2.934      48.840
2015    3       10     4  23    4.1830   552.5    2.935      48.788
2015    3       10     4  28    4.1808   552.2    2.937      48.737
2015    3       10     4  34    4.1787   551.9    2.938      48.686
2015    3       10     4  39    4.1765   551.6    2.939      48.635
2015    3       10     4  44    4.1744   551.3    2.940      48.584
2015    3       10     4  50    4.1723   551.0    2.941      48.533
2015    3       10     4  55    4.1702   550.7    2.942      48.481
2015    3       10     5   0    4.1681   550.4    2.943      48.431
2015    3       10     5   6    4.1660   550.1    2.944      48.380
2015    3       10     5  11    4.1639   549.7    2.946      48.329
2015    3       10     5  16    4.1619   549.4    2.947      48.278
2015    3       10     5  21    4.1598   549.1    2.948      48.228
2015    3       10     5  27    4.1578   548.8    2.949      48.177
2015    3       10     5  32    4.1558   548.5    2.950      48.127
2015    3       10     5  37    4.1538   548.2    2.952      48.078
2015    3       10     5  43    4.1518   547.9    2.953      48.028
2015    3       10     5  48    4.1498   547.6    2.954      47.979
2015    3       10     5  53    4.1479   547.2    2.956      47.930
2015    3       10     5  59    4.1459   546.9    2.957      47.881
2015    3       10     6   4    4.1440   546.6    2.959      47.833
2015    3       10     6   9    4.1422   546.3    2.960      47.785
2015    3       10     6  15    4.1404   546.0    2.962      47.738
2015    3       10     6  20    4.1386   545.7    2.963      47.691
2015    3       10     6  25    4.1367   545.4    2.965      47.645
2015    3       10     6  30    4.1350   545.0    2.967      47.599
2015    3       10     6  36    4.1332   544.7    2.968      47.554
2015    3       10     6  41    4.1315   544.4    2.970      47.508
2015    3       10     6  46    4.1299   544.1    2.972      47.464
2015    3       10     6  52    4.1282   543.8    2.974      47.420
2015    3       10     6  57    4.1265   543.5    2.976      47.376
2015    3       10     7   2    4.1249   543.2    2.977      47.332
2015    3       10     7   8    4.1232   542.9    2.979      47.288
2015    3       10     7  13    4.1216   542.6    2.981      47.245
2015    3       10     7  18    4.1200   542.2    2.983      47.202
2015    3       10     7  23    4.1184   541.9    2.985      47.160
2015    3       10     7  29    4.1167   541.6    2.987      47.117
2015    3       10     7  34    4.1151   541.3    2.989      47.074
2015    3       10     7  39    4.1134   541.0    2.991      47.031
2015    3       10     7  45    4.1118   540.7    2.993      46.987
2015    3       10     7  50    4.1101   540.4    2.995      46.944
2015    3       10     7  55    4.1085   540.0    2.997      46.900
2015    3       10     8   1    4.1069   539.7    2.999      46.857
2015    3       10     8   6    4.1053   539.4    3.001      46.813
2015    3       10     8  11    4.1037   539.1    3.003      46.769
2015    3       10     8  16    4.1021   538.8    3.005      46.725
2015    3       10     8  22    4.1005   538.4    3.007      46.681
2015    3       10     8  27    4.0989   538.1    3.009      46.636
2015    3       10     8  32    4.0973   537.8    3.011      46.592
2015    3       10     8  38    4.0958   537.5    3.013      46.548
2015    3       10     8  43    4.0943   537.1    3.015      46.504
2015    3       10     8  48    4.0927   536.8    3.017      46.459
2015    3       10     8  54    4.0912   536.5    3.019      46.415
2015    3       10     8  59    4.0897   536.2    3.021      46.370
2015    3       10     9   4    4.0883   535.8    3.023      46.326
2015    3       10     9   9    4.0868   535.5    3.025      46.281
2015    3       10     9  15    4.0854   535.2    3.027      46.236
2015    3       10     9  20    4.0839   534.9    3.029      46.192
2015    3       10     9  25    4.0824   534.6    3.032      46.147
2015    3       10     9  31    4.0810   534.2    3.034      46.102
2015    3       10     9  36    4.0796   533.9    3.036      46.057
2015    3       10     9  41    4.0782   533.6    3.038      46.011
2015    3       10     9  47    4.0767   533.2    3.040      45.966
2015    3       10     9  52    4.0753   532.9    3.042      45.919
2015    3       10     9  57    4.0738   532.6    3.045      45.873
2015    3       10    10   3    4.0725   532.3    3.047      45.825
2015    3       10    10   8    4.0710   531.9    3.049      45.778
2015    3       10    10  13    4.0696   531.6    3.051      45.730
2015    3       10    10  18    4.0682   531.3    3.053      45.682
2015    3       10    10  24    4.0668   530.9    3.055      45.633
2015    3       10    10  29    4.0654   530.6    3.057      45.585
2015    3       10    10  34    4.0640   530.2    3.060      45.536
2015    3       10    10  40    4.0626   529.9    3.062      45.486
2015    3       10    10  45    4.0613   529.6    3.064      45.437
2015    3       10    10  50    4.0599   529.2    3.066      45.388
2015    3       10    10  56    4.0587   528.9    3.068      45.338
2015    3       10    11   1    4.0574   528.5    3.070      45.288
2015    3       10    11   6    4.0560   528.2    3.072      45.239
2015    3       10    11  11    4.0549   527.9    3.075      45.190
2015    3       10    11  17    4.0536   527.5    3.077      45.140
2015    3       10    11  22    4.0524   527.2    3.079      45.091
2015    3       10    11  27    4.0513   526.9    3.081      45.042
2015    3       10    11  33    4.0501   526.5    3.084      44.993
2015    3       10    11  38    4.0490   526.2    3.086      44.944
2015    3       10    11  43    4.0478   525.8    3.088      44.895
2015    3       10    11  49    4.0467   525.5    3.091      44.847
2015    3       10    11  54    4.0457   525.2    3.093      44.798
2015    3       10    11  59    4.0446   524.8    3.095      44.750
2015    3       10    12   4    4.0435   524.5    3.098      44.702
2015    3       10    12  10    4.0425   524.1    3.100      44.654
2015    3       10    12  15    4.0416   523.8    3.103      44.607
2015    3       10    12  20    4.0406   523.5    3.105      44.559
2015    3       10    12  26    4.0396   523.1    3.108      44.512
2015    3       10    12  31    4.0387   522.8    3.110      44.465
2015    3       10    12  36    4.0378   522.4    3.113      44.418
2015    3       10    12  42    4.0370   522.1    3.116      44.371
2015    3       10    12  47    4.0360   521.8    3.118      44.325
2015    3       10    12  52    4.0352   521.4    3.121      44.278
2015    3       10    12  57    4.0344   521.1    3.124      44.232
2015    3       10    13   3    4.0335   520.8    3.126      44.187
2015    3       10    13   8    4.0327   520.4    3.129      44.141
2015    3       10    13  13    4.0320   520.1    3.132      44.096
2015    3       10    13  19    4.0312   519.8    3.135      44.051
2015    3       10    13  24    4.0304   519.4    3.138      44.006
2015    3       10    13  29    4.0298   519.1    3.141      43.962
2015    3       10    13  35    4.0291   518.8    3.144      43.918
2015    3       10    13  40    4.0283   518.4    3.147      43.874
2015    3       10    13  45    4.0277   518.1    3.150      43.831
2015    3       10    13  51    4.0270   517.8    3.153      43.788
2015    3       10    13  56    4.0263   517.5    3.156      43.745
2015    3       10    14   1    4.0257   517.1    3.160      43.703
2015    3       10    14   6    4.0251   516.8    3.163      43.661
2015    3       10    14  12    4.0245   516.5    3.166      43.619
2015    3       10    14  17    4.0239   516.2    3.170      43.578
2015    3       10    14  22    4.0232   515.8    3.173      43.537
2015    3       10    14  28    4.0227   515.5    3.176      43.496
2015    3       10    14  33    4.0221   515.2    3.180      43.455
2015    3       10    14  38    4.0213   514.9    3.183      43.414
2015    3       10    14  44    4.0207   514.5    3.186      43.373
2015    3       10    14  49    4.0201   514.2    3.190      43.332
2015    3       10    14  54    4.0195   513.9    3.193      43.291
2015    3       10    14  59    4.0190   513.6    3.197      43.249
2015    3       10    15   5    4.0183   513.2    3.200      43.208
2015    3       10    15  10    4.0178   512.9    3.204      43.167
2015    3       10    15  15    4.0173   512.6    3.207      43.126
2015    3       10    15  21    4.0166   512.2    3.210      43.084
2015    3       10    15  26    4.0162   511.9    3.214      43.043
2015    3       10    15  31    4.0157   511.6    3.218      43.002
2015    3       10    15  37    4.0153   511.3    3.221      42.960
2015    3       10    15  42    4.0148   510.9    3.225      42.919
2015    3       10    15  47    4.0143   510.6    3.228      42.878
2015    3       10    15  52    4.0139   510.3    3.232      42.837
2015    3       10    15  58    4.0137   509.9    3.236      42.795
2015    3       10    16   3    4.0133   509.6    3.239      42.755
2015    3       10    16   8    4.0131   509.3    3.243      42.714
2015    3       10    16  14    4.0128   509.0    3.247      42.673
2015    3       10    16  19    4.0126   508.6    3.250      42.632
2015    3       10    16  24    4.0122   508.3    3.254      42.591
2015    3       10    16  30    4.0122   508.0    3.258      42.550
2015    3       10    16  35    4.0118   507.7    3.262      42.510
2015    3       10    16  40    4.0117   507.4    3.266      42.469
2015    3       10    16  45    4.0115   507.0    3.270      42.429
2015    3       10    16  51    4.0114   506.7    3.274      42.388
2015    3       10    16  56    4.0113   506.4    3.278      42.347
2015    3       10    17   1    4.0111   506.1    3.282      42.306
2015    3       10    17   7    4.0110   505.7    3.285      42.265
2015    3       10    17  12    4.0111   505.4    3.289      42.224
2015    3       10    17  17    4.0108   505.1    3.293      42.183
2015    3       10    17  23    4.0109   504.8    3.297      42.142
2015    3       10    17  28    4.0108   504.5    3.301      42.101
2015    3       10    17  33    4.0106   504.1    3.305      42.059
2015    3       10    17  39    4.0107   503.8    3.309      42.017
2015    3       10    17  44    4.0107   503.5    3.313      41.975
2015    3       10    17  49    4.0106   503.2    3.317      41.933
2015    3       10    17  54    4.0105   502.8    3.321      41.891
2015    3       10    18   0    4.0106   502.5    3.325      41.849
2015    3       10    18   5    4.0105   502.2    3.329      41.806
2015    3       10    18  10    4.0107   501.9    3.333      41.764
2015    3       10    18  16    4.0106   501.5    3.337      41.722
2015    3       10    18  21    4.0107   501.2    3.341      41.679
2015    3       10    18  26    4.0109   500.9    3.345      41.637
2015    3       10    18  32    4.0110   500.6    3.348      41.594
2015    3       10    18  37    4.0112   500.3    3.352      41.552
2015    3       10    18  42    4.0112   499.9    3.356      41.510
2015    3       10    18  47    4.0114   499.6    3.360      41.468
2015    3       10    18  53    4.0116   499.3    3.364      41.425
2015    3       10    18  58    4.0118   499.0    3.368      41.383
2015    3       10    19   3    4.0121   498.7    3.372      41.342
2015    3       10    19   9    4.0124   498.3    3.376      41.300
2015    3       10    19  14    4.0128   498.0    3.381      41.259
2015    3       10    19  19    4.0132   497.7    3.385      41.217
2015    3       10    19  25    4.0134   497.4    3.389      41.176
2015    3       10    19  30    4.0139   497.1    3.393      41.135
2015    3       10    19  35    4.0141   496.8    3.397      41.094
2015    3       10    19  40    4.0147   496.5    3.401      41.053
2015    3       10    19  46    4.0152   496.1    3.405      41.013
2015    3       10    19  51    4.0156   495.8    3.409      40.972
2015    3       10    19  56    4.0161   495.5    3.413      40.931
2015    3       10    20   2    4.0166   495.2    3.418      40.891
2015    3       10    20   7    4.0170   494.9    3.422      40.850
2015    3       10    20  12    4.0175   494.6    3.426      40.810
2015    3       10    20  18    4.0180   494.3    3.430      40.770
2015    3       10    20  23    4.0186   494.0    3.434      40.729
2015    3       10    20  28    4.0191   493.7    3.438      40.689
2015    3       10    20  33    4.0198   493.4    3.443      40.648
2015    3       10    20  39    4.0204   493.0    3.447      40.608
2015    3       10    20  44    4.0210   492.7    3.451      40.567
2015    3       10    20  49    4.0216   492.4    3.455      40.527
2015    3       10    20  55    4.0221   492.1    3.459      40.486
2015    3       10    21   0    4.0228   491.8    3.464      40.445
2015    3       10    21   5    4.0234   491.5    3.468      40.404
2015    3       10    21  11    4.0240   491.2    3.472      40.363
2015    3       10    21  16    4.0246   490.9    3.476      40.322
2015    3       10    21  21    4.0253   490.6    3.480      40.281
2015    3       10    21  26    4.0259   490.3    3.485      40.240
2015    3       10    21  32    4.0266   490.0    3.489      40.198
2015    3       10    21  37    4.0272   489.7    3.493      40.157
2015    3       10    21  42    4.0279   489.4    3.497      40.115
2015    3       10    21  48    4.0286   489.0    3.502      40.074
2015    3       10    21  53    4.0293   488.7    3.506      40.032
2015    3       10    21  58    4.0300   488.4    3.510      39.991
2015    3       10    22   4    4.0307   488.1    3.515      39.950
2015    3       10    22   9    4.0314   487.8    3.519      39.908
2015    3       10    22  14    4.0322   487.5    3.523      39.867
2015    3       10    22  20    4.0328   487.2    3.528      39.826
2015    3       10    22  25    4.0338   486.9    3.532      39.785
2015    3       10    22  30    4.0345   486.6    3.537      39.744
2015    3       10    22  35    4.0353   486.3    3.541      39.703
2015    3       10    22  41    4.0363   486.0    3.546      39.663
2015    3       10    22  46    4.0372   485.7    3.550      39.623
2015    3       10    22  51    4.0381   485.4    3.555      39.583
2015    3       10    22  57    4.0391   485.1    3.560      39.543
2015    3       10    23   2    4.0400   484.8    3.565      39.504
2015    3       10    23   7    4.0409   484.5    3.570      39.465
2015    3       10    23  13    4.0421   484.1    3.575      39.426
2015    3       10    23  18    4.0431   483.9    3.580      39.388
2015    3       10    23  23    4.0442   483.6    3.585      39.350
2015    3       10    23  28    4.0454   483.3    3.590      39.313
2015    3       10    23  34    4.0465   483.0    3.595      39.276
2015    3       10    23  39    4.0477   482.7    3.600      39.239
2015    3       10    23  44    4.0487   482.4    3.605      39.203
2015    3       10    23  50    4.0499   482.1    3.611      39.167
2015    3       10    23  55    4.0513   481.8    3.616      39.131
2015    3       11     0   0    4.0525   481.5    3.622      39.096
2015    3       11     0   6    4.0537   481.2    3.627      39.061
2015    3       11     0  11    4.0551   480.9    3.633      39.026
2015    3       11     0  16    4.0563   480.6    3.638      38.991
2015    3       11     0  21    4.0578   480.3    3.644      38.957
2015    3       11     0  27    4.0590   480.0    3.649      38.923
2015    3       11     0  32    4.0605   479.7    3.655      38.889
2015    3       11     0  37    4.0618   479.5    3.661      38.855
2015    3       11     0  43    4.0630   479.2    3.666      38.822
2015    3       11     0  48    4.0644   478.9    3.672      38.788
2015    3       11     0  53    4.0658   478.6    3.678      38.755
2015    3       11     0  59    4.0673   478.3    3.684      38.721
2015    3       11     1   4    4.0687   478.0    3.690      38.688
2015    3       11     1   9    4.0702   477.7    3.695      38.655
2015    3       11     1  15    4.0716   477.4    3.701      38.621
2015    3       11     1  20    4.0730   477.2    3.707      38.588
2015    3       11     1  25    4.0745   476.9    3.713      38.555
2015    3       11     1  30    4.0758   476.6    3.718      38.522
2015    3       11     1  36    4.0774   476.3    3.724      38.489
2015    3       11     1  41    4.0789   476.0    3.730      38.456
2015    3       11     1  46    4.0804   475.7    3.736      38.423
2015    3       11     1  52    4.0817   475.5    3.742      38.390
2015    3       11     1  57    4.0834   475.2    3.747      38.356
2015    3       11     2   2    4.0849   474.9    3.753      38.323
2015    3       11     2   8    4.0864   474.6    3.759      38.290
2015    3       11     2  13    4.0880   474.3    3.765      38.257
2015    3       11     2  18    4.0894   474.0    3.771      38.224
2015    3       11     2  23    4.0911   473.8    3.776      38.191
2015    3       11     2  29    4.0927   473.5    3.782      38.158
2015    3       11     2  34    4.0942   473.2    3.788      38.125
2015    3       11     2  39    4.0959   472.9    3.794      38.092
2015    3       11     2  45    4.0976   472.6    3.800      38.058
2015    3       11     2  50    4.0992   472.4    3.805      38.025
2015    3       11     2  55    4.1009   472.1    3.811      37.992
2015    3       11     3   1    4.1026   471.8    3.817      37.959
2015    3       11     3   6    4.1043   471.5    3.823      37.926
2015    3       11     3  11    4.1060   471.2    3.828      37.892
2015    3       11     3  16    4.1077   471.0    3.834      37.859
2015    3       11     3  22    4.1094   470.7    3.840      37.826
2015    3       11     3  27    4.1111   470.4    3.846      37.793
2015    3       11     3  32    4.1130   470.1    3.852      37.760
2015    3       11     3  38    4.1148   469.9    3.857      37.727
2015    3       11     3  43    4.1166   469.6    3.863      37.694
2015    3       11     3  48    4.1184   469.3    3.869      37.661
2015    3       11     3  54    4.1201   469.0    3.875      37.628
2015    3       11     3  59    4.1220   468.8    3.881      37.595
2015    3       11     4   4    4.1240   468.5    3.886      37.562
2015    3       11     4   9    4.1257   468.2    3.892      37.529
2015    3       11     4  15    4.1278   468.0    3.898      37.496
2015    3       11     4  20    4.1296   467.7    3.904      37.464
2015    3       11     4  25    4.1315   467.4    3.910      37.431
2015    3       11     4  31    4.1336   467.1    3.916      37.399
2015    3       11     4  36    4.1354   466.9    3.922      37.366
2015    3       11     4  41    4.1374   466.6    3.928      37.334
2015    3       11     4  47    4.1396   466.3    3.933      37.302
2015    3       11     4  52    4.1415   466.1    3.939      37.270
2015    3       11     4  57    4.1435   465.8    3.945      37.237
2015    3       11     5   3    4.1457   465.5    3.951      37.206
2015    3       11     5   8    4.1478   465.3    3.957      37.174
2015    3       11     5  13    4.1499   465.0    3.964      37.142
2015    3       11     5  18    4.1518   464.7    3.970      37.111
2015    3       11     5  24    4.1541   464.5    3.976      37.079
2015    3       11     5  29    4.1563   464.2    3.982      37.048
2015    3       11     5  34    4.1584   463.9    3.988      37.017
2015    3       11     5  40    4.1605   463.7    3.994      36.986
2015    3       11     5  45    4.1628   463.4    4.001      36.955
2015    3       11     5  50    4.1649   463.2    4.007      36.925
2015    3       11     5  56    4.1673   462.9    4.013      36.894
2015    3       11     6   1    4.1694   462.6    4.020      36.864
2015    3       11     6   6    4.1717   462.4    4.026      36.834
2015    3       11     6  11    4.1740   462.1    4.033      36.804
2015    3       11     6  17    4.1765   461.9    4.039      36.774
2015    3       11     6  22    4.1788   461.6    4.046      36.745
2015    3       11     6  27    4.1811   461.3    4.052      36.716
2015    3       11     6  33    4.1834   461.1    4.059      36.687
2015    3       11     6  38    4.1860   460.8    4.066      36.658
2015    3       11     6  43    4.1884   460.6    4.073      36.629
2015    3       11     6  49    4.1908   460.3    4.080      36.601
2015    3       11     6  54    4.1933   460.1    4.087      36.573
2015    3       11     6  59    4.1959   459.8    4.094      36.545
2015    3       11     7   4    4.1984   459.5    4.101      36.518
2015    3       11     7  10    4.2009   459.3    4.108      36.491
2015    3       11     7  15    4.2034   459.0    4.115      36.464
2015    3       11     7  20    4.2061   458.8    4.122      36.437
2015    3       11     7  26    4.2087   458.5    4.130      36.411
2015    3       11     7  31    4.2112   458.3    4.137      36.385
2015    3       11     7  36    4.2140   458.0    4.144      36.359
2015    3       11     7  42    4.2166   457.8    4.152      36.333
2015    3       11     7  47    4.2194   457.5    4.160      36.308
2015    3       11     7  52    4.2221   457.3    4.167      36.283
2015    3       11     7  57    4.2247   457.1    4.175      36.258
2015    3       11     8   3    4.2275   456.8    4.183      36.234
2015    3       11     8   8    4.2304   456.6    4.191      36.210
2015    3       11     8  13    4.2331   456.3    4.199      36.186
2015    3       11     8  19    4.2360   456.1    4.207      36.163
2015    3       11     8  24    4.2389   455.8    4.215      36.140
2015    3       11     8  29    4.2418   455.6    4.223      36.117
2015    3       11     8  35    4.2447   455.4    4.231      36.094
2015    3       11     8  40    4.2476   455.1    4.239      36.072
2015    3       11     8  45    4.2506   454.9    4.247      36.050
2015    3       11     8  51    4.2534   454.6    4.256      36.028
2015    3       11     8  56    4.2564   454.4    4.264      36.007
2015    3       11     9   1    4.2594   454.2    4.273      35.986
2015    3       11     9   6    4.2626   453.9    4.281      35.965
2015    3       11     9  12    4.2655   453.7    4.290      35.945
2015    3       11     9  17    4.2685   453.5    4.298      35.925
2015    3       11     9  22    4.2717   453.2    4.307      35.905
2015    3       11     9  28    4.2748   453.0    4.315      35.885
2015    3       11     9  33    4.2778   452.8    4.324      35.865
2015    3       11     9  38    4.2811   452.6    4.333      35.846
2015    3       11     9  44    4.2841   452.3    4.342      35.827
2015    3       11     9  49    4.2872   452.1    4.350      35.809
2015    3       11     9  54    4.2905   451.9    4.359      35.790
2015    3       11     9  59    4.2936   451.7    4.368      35.772
2015    3       11    10   5    4.2970   451.4    4.377      35.754
2015    3       11    10  10    4.3002   451.2    4.386      35.736
2015    3       11    10  15    4.3034   451.0    4.395      35.718
2015    3       11    10  21    4.3067   450.8    4.403      35.701
2015    3       11    10  26    4.3100   450.6    4.412      35.684
2015    3       11    10  31    4.3133   450.3    4.421      35.666
2015    3       11    10  37    4.3164   450.1    4.430      35.649
2015    3       11    10  42    4.3197   449.9    4.439      35.633
2015    3       11    10  47    4.3232   449.7    4.448      35.616
2015    3       11    10  52    4.3264   449.5    4.457      35.600
2015    3       11    10  58    4.3299   449.3    4.465      35.583
2015    3       11    11   3    4.3332   449.0    4.474      35.567
2015    3       11    11   8    4.3366   448.8    4.483      35.551
2015    3       11    11  14    4.3400   448.6    4.492      35.535
2015    3       11    11  19    4.3434   448.4    4.501      35.520
2015    3       11    11  24    4.3467   448.2    4.509      35.504
2015    3       11    11  30    4.3503   448.0    4.518      35.489
2015    3       11    11  35    4.3537   447.8    4.527      35.474
2015    3       11    11  40    4.3570   447.6    4.536      35.459
2015    3       11    11  45    4.3607   447.4    4.544      35.444
2015    3       11    11  51    4.3642   447.2    4.553      35.429
2015    3       11    11  56    4.3677   447.0    4.562      35.414
2015    3       11    12   1    4.3711   446.8    4.571      35.400
2015    3       11    12   7    4.3746   446.6    4.579      35.386
2015    3       11    12  12    4.3784   446.4    4.588      35.372
2015    3       11    12  17    4.3819   446.2    4.597      35.358
2015    3       11    12  23    4.3855   446.0    4.606      35.344
2015    3       11    12  28    4.3892   445.8    4.615      35.331
2015    3       11    12  33    4.3926   445.6    4.623      35.317
2015    3       11    12  38    4.3965   445.4    4.632      35.304
2015    3       11    12  44    4.4001   445.2    4.641      35.291
2015    3       11    12  49    4.4038   445.0    4.650      35.279
2015    3       11    12  54    4.4075   444.8    4.659      35.266
2015    3       11    13   0    4.4111   444.6    4.668      35.254
2015    3       11    13   5    4.4150   444.4    4.677      35.241
2015    3       11    13  10    4.4187   444.2    4.686      35.229
2015    3       11    13  16    4.4225   444.0    4.695      35.218
2015    3       11    13  21    4.4263   443.8    4.704      35.206
2015    3       11    13  26    4.4301   443.6    4.713      35.195
2015    3       11    13  32    4.4340   443.4    4.722      35.184
2015    3       11    13  37    4.4380   443.3    4.732      35.173
2015    3       11    13  42    4.4419   443.1    4.741      35.162
2015    3       11    13  47    4.4459   442.9    4.750      35.152
2015    3       11    13  53    4.4498   442.7    4.760      35.142
2015    3       11    13  58    4.4538   442.5    4.769      35.132
2015    3       11    14   3    4.4576   442.3    4.779      35.122
2015    3       11    14   9    4.4618   442.2    4.788      35.113
2015    3       11    14  14    4.4658   442.0    4.798      35.104
2015    3       11    14  19    4.4697   441.8    4.808      35.095
2015    3       11    14  25    4.4739   441.6    4.817      35.086
2015    3       11    14  30    4.4780   441.5    4.827      35.078
2015    3       11    14  35    4.4821   441.3    4.837      35.069
2015    3       11    14  40    4.4861   441.1    4.847      35.062
2015    3       11    14  46    4.4904   440.9    4.857      35.054
2015    3       11    14  51    4.4945   440.8    4.867      35.046
2015    3       11    14  56    4.4986   440.6    4.877      35.039
2015    3       11    15   2    4.5028   440.4    4.888      35.032
2015    3       11    15   7    4.5071   440.3    4.898      35.025
2015    3       11    15  12    4.5114   440.1    4.908      35.019
2015    3       11    15  18    4.5156   439.9    4.918      35.012
2015    3       11    15  23    4.5199   439.8    4.929      35.006
2015    3       11    15  28    4.5241   439.6    4.939      35.000
2015    3       11    15  33    4.5283   439.5    4.950      34.994
2015    3       11    15  39    4.5327   439.3    4.960      34.989
2015    3       11    15  44    4.5370   439.1    4.971      34.983
2015    3       11    15  49    4.5414   439.0    4.981      34.978
2015    3       11    15  55    4.5457   438.8    4.992      34.973
2015    3       11    16   0    4.5501   438.7    5.003      34.968
2015    3       11    16   5    4.5545   438.5    5.014      34.964
2015    3       11    16  11    4.5588   438.4    5.024      34.959
2015    3       11    16  16    4.5633   438.2    5.035      34.955
2015    3       11    16  21    4.5675   438.1    5.046      34.951
2015    3       11    16  27    4.5721   437.9    5.057      34.947
2015    3       11    16  32    4.5764   437.8    5.068      34.943
2015    3       11    16  37    4.5810   437.6    5.078      34.939
2015    3       11    16  42    4.5854   437.5    5.089      34.936
2015    3       11    16  48    4.5898   437.3    5.100      34.933
2015    3       11    16  53    4.5943   437.2    5.111      34.930
2015    3       11    16  58    4.5988   437.0    5.122      34.927
2015    3       11    17   4    4.6034   436.9    5.133      34.924
2015    3       11    17   9    4.6080   436.8    5.144      34.921
2015    3       11    17  14    4.6125   436.6    5.155      34.919
2015    3       11    17  20    4.6169   436.5    5.166      34.917
2015    3       11    17  25    4.6215   436.4    5.177      34.915
2015    3       11    17  30    4.6262   436.2    5.187      34.913
2015    3       11    17  35    4.6308   436.1    5.198      34.911
2015    3       11    17  41    4.6353   435.9    5.209      34.910
2015    3       11    17  46    4.6400   435.8    5.220      34.908
2015    3       11    17  51    4.6445   435.7    5.231      34.907
2015    3       11    17  57    4.6492   435.5    5.242      34.907
2015    3       11    18   2    4.6539   435.4    5.252      34.906
2015    3       11    18   7    4.6584   435.3    5.263      34.906
2015    3       11    18  13    4.6631   435.2    5.274      34.906
2015    3       11    18  18    4.6678   435.0    5.285      34.906
2015    3       11    18  23    4.6724   434.9    5.295      34.906
2015    3       11    18  28    4.6772   434.8    5.306      34.907
2015    3       11    18  34    4.6817   434.6    5.317      34.907
2015    3       11    18  39    4.6864   434.5    5.327      34.908
2015    3       11    18  44    4.6912   434.4    5.338      34.909
2015    3       11    18  50    4.6959   434.3    5.348      34.911
2015    3       11    18  55    4.7005   434.2    5.359      34.913
2015    3       11    19   0    4.7054   434.0    5.369      34.914
2015    3       11    19   6    4.7100   433.9    5.380      34.916
2015    3       11    19  11    4.7148   433.8    5.390      34.919
2015    3       11    19  16    4.7195   433.7    5.401      34.921
2015    3       11    19  21    4.7244   433.6    5.411      34.924
2015    3       11    19  27    4.7290   433.4    5.422      34.927
2015    3       11    19  32    4.7339   433.3    5.432      34.930
2015    3       11    19  37    4.7386   433.2    5.442      34.933
2015    3       11    19  43    4.7435   433.1    5.453      34.937
2015    3       11    19  48    4.7482   433.0    5.463      34.940
2015    3       11    19  53    4.7530   432.9    5.474      34.944
2015    3       11    19  59    4.7579   432.8    5.484      34.948
2015    3       11    20   4    4.7626   432.7    5.494      34.952
2015    3       11    20   9    4.7675   432.5    5.505      34.956
2015    3       11    20  15    4.7724   432.4    5.515      34.961
2015    3       11    20  20    4.7771   432.3    5.526      34.965
2015    3       11    20  25    4.7820   432.2    5.536      34.970
2015    3       11    20  30    4.7870   432.1    5.547      34.975
2015    3       11    20  36    4.7918   432.0    5.557      34.980
2015    3       11    20  41    4.7967   431.9    5.568      34.985
2015    3       11    20  46    4.8016   431.8    5.578      34.990
2015    3       11    20  52    4.8065   431.7    5.588      34.996
2015    3       11    20  57    4.8113   431.6    5.599      35.001
2015    3       11    21   2    4.8163   431.5    5.609      35.007
2015    3       11    21   8    4.8213   431.4    5.620      35.013
2015    3       11    21  13    4.8262   431.3    5.630      35.019
2015    3       11    21  18    4.8310   431.2    5.641      35.026
2015    3       11    21  23    4.8360   431.1    5.651      35.032
2015    3       11    21  29    4.8410   431.0    5.662      35.039
2015    3       11    21  34    4.8459   430.9    5.672      35.046
2015    3       11    21  39    4.8509   430.9    5.682      35.053
2015    3       11    21  45    4.8558   430.8    5.693      35.061
2015    3       11    21  50    4.8608   430.7    5.703      35.068
2015    3       11    21  55    4.8657   430.6    5.713      35.076
2015    3       11    22   1    4.8707   430.5    5.723      35.084
2015    3       11    22   6    4.8756   430.4    5.734      35.092
2015    3       11    22  11    4.8806   430.3    5.744      35.099
2015    3       11    22  16    4.8856   430.2    5.754      35.107
2015    3       11    22  22    4.8905   430.2    5.764      35.115
2015    3       11    22  27    4.8955   430.1    5.774      35.123
2015    3       11    22  32    4.9004   430.0    5.784      35.131
2015    3       11    22  38    4.9053   429.9    5.794      35.138
2015    3       11    22  43    4.9103   429.8    5.804      35.146
2015    3       11    22  48    4.9153   429.8    5.814      35.154
2015    3       11    22  54    4.9203   429.7    5.824      35.161
2015    3       11    22  59    4.9252   429.6    5.834      35.169
2015    3       11    23   4    4.9301   429.5    5.844      35.176
2015    3       11    23   9    4.9351   429.4    5.854      35.183
2015    3       11    23  15    4.9400   429.4    5.864      35.191
2015    3       11    23  20    4.9450   429.3    5.873      35.197
2015    3       11    23  25    4.9500   429.2    5.883      35.204
2015    3       11    23  31    4.9549   429.1    5.893      35.211
2015    3       11    23  36    4.9599   429.1    5.902      35.218
2015    3       11    23  41    4.9648   429.0    5.912      35.225
2015    3       11    23  47    4.9698   428.9    5.922      35.231
2015    3       11    23  52    4.9748   428.8    5.931      35.238
2015    3       11    23  57    4.9797   428.8    5.941      35.244
2015    3       12     0   3    4.9846   428.7    5.950      35.251
2015    3       12     0   8    4.9896   428.6    5.960      35.257
2015    3       12     0  13    4.9946   428.5    5.969      35.263
2015    3       12     0  18    4.9995   428.5    5.978      35.269
2015    3       12     0  24    5.0045   428.4    5.988      35.275
2015    3       12     0  29    5.0095   428.3    5.997      35.282
2015    3       12     0  34    5.0145   428.3    6.006      35.288
2015    3       12     0  40    5.0194   428.2    6.016      35.294
2015    3       12     0  45    5.0244   428.1    6.025      35.300
2015    3       12     0  50    5.0294   428.1    6.034      35.306
2015    3       12     0  56    5.0344   428.0    6.043      35.312
2015    3       12     1   1    5.0394   427.9    6.053      35.319
2015    3       12     1   6    5.0443   427.9    6.062      35.325
2015    3       12     1  11    5.0493   427.8    6.071      35.332
2015    3       12     1  17    5.0543   427.7    6.080      35.338
2015    3       12     1  22    5.0593   427.7    6.089      35.345
2015    3       12     1  27    5.0643   427.6    6.098      35.352
2015    3       12     1  33    5.0693   427.5    6.107      35.359
2015    3       12     1  38    5.0743   427.5    6.116      35.367
2015    3       12     1  43    5.0793   427.4    6.125      35.374
2015    3       12     1  49    5.0843   427.3    6.134      35.382
2015    3       12     1  54    5.0893   427.3    6.143      35.390
2015    3       12     1  59    5.0944   427.2    6.152      35.398
2015    3       12     2   4    5.0994   427.1    6.161      35.406
2015    3       12     2  10    5.1044   427.1    6.169      35.415
2015    3       12     2  15    5.1094   427.0    6.178      35.423
2015    3       12     2  20    5.1144   427.0    6.187      35.432
2015    3       12     2  26    5.1194   426.9    6.196      35.442
2015    3       12     2  31    5.1244   426.9    6.205      35.451
2015    3       12     2  36    5.1294   426.8    6.213      35.461
2015    3       12     2  42    5.1344   426.7    6.222      35.470
2015    3       12     2  47    5.1394   426.7    6.231      35.480
2015    3       12     2  52    5.1444   426.6    6.239      35.490
2015    3       12     2  57    5.1494   426.6    6.248      35.500
2015    3       12     3   3    5.1544   426.5    6.257      35.511
2015    3       12     3   8    5.1594   426.5    6.265      35.521
2015    3       12     3  13    5.1644   426.4    6.274      35.532
2015    3       12     3  19    5.1694   426.4    6.283      35.543
2015    3       12     3  24    5.1743   426.3    6.291      35.553
2015    3       12     3  29    5.1793   426.3    6.300      35.564
2015    3       12     3  35    5.1843   426.2    6.308      35.575
2015    3       12     3  40    5.1893   426.2    6.317      35.587
2015    3       12     3  45    5.1943   426.1    6.326      35.598
2015    3       12     3  51    5.1992   426.1    6.334      35.609
2015    3       12     3  56    5.2042   426.0    6.343      35.620
2015    3       12     4   1    5.2092   426.0    6.351      35.632
2015    3       12     4   6    5.2142   425.9    6.360      35.643
2015    3       12     4  12    5.2192   425.9    6.368      35.655
2015    3       12     4  17    5.2241   425.8    6.376      35.667
2015    3       12     4  22    5.2291   425.8    6.385      35.679
2015    3       12     4  28    5.2341   425.7    6.393      35.691
2015    3       12     4  33    5.2390   425.7    6.401      35.703
2015    3       12     4  38    5.2440   425.6    6.410      35.715
2015    3       12     4  44    5.2489   425.6    6.418      35.727
2015    3       12     4  49    5.2539   425.6    6.426      35.740
2015    3       12     4  54    5.2588   425.5    6.434      35.753
2015    3       12     4  59    5.2638   425.5    6.442      35.765
2015    3       12     5   5    5.2688   425.4    6.450      35.778
2015    3       12     5  10    5.2737   425.4    6.458      35.791
2015    3       12     5  15    5.2787   425.4    6.466      35.804
2015    3       12     5  21    5.2836   425.3    6.474      35.817
2015    3       12     5  26    5.2886   425.3    6.482      35.830
2015    3       12     5  31    5.2935   425.2    6.490      35.843
2015    3       12     5  37    5.2984   425.2    6.498      35.856
2015    3       12     5  42    5.3034   425.2    6.505      35.869
2015    3       12     5  47    5.3084   425.1    6.513      35.882
2015    3       12     5  52    5.3133   425.1    6.521      35.895
2015    3       12     5  58    5.3183   425.0    6.528      35.908
2015    3       12     6   3    5.3232   425.0    6.536      35.920
2015    3       12     6   8    5.3281   425.0    6.544      35.933
2015    3       12     6  14    5.3331   424.9    6.551      35.946
2015    3       12     6  19    5.3380   424.9    6.559      35.958
2015    3       12     6  24    5.3430   424.9    6.566      35.971
2015    3       12     6  30    5.3479   424.8    6.574      35.983
2015    3       12     6  35    5.3529   424.8    6.581      35.995
2015    3       12     6  40    5.3579   424.7    6.589      36.008
2015    3       12     6  46    5.3628   424.7    6.596      36.020
2015    3       12     6  51    5.3678   424.7    6.604      36.032
2015    3       12     6  56    5.3728   424.6    6.611      36.044
2015    3       12     7   1    5.3777   424.6    6.619      36.056
2015    3       12     7   7    5.3827   424.6    6.626      36.068
2015    3       12     7  12    5.3877   424.5    6.634      36.080
2015    3       12     7  17    5.3927   424.5    6.641      36.093
2015    3       12     7  23    5.3976   424.5    6.648      36.105
2015    3       12     7  28    5.4026   424.5    6.656      36.118
2015    3       12     7  33    5.4076   424.4    6.663      36.131
2015    3       12     7  39    5.4126   424.4    6.670      36.144
2015    3       12     7  44    5.4175   424.4    6.677      36.157
2015    3       12     7  49    5.4225   424.3    6.684      36.171
2015    3       12     7  54    5.4274   424.3    6.691      36.185
2015    3       12     8   0    5.4323   424.3    6.698      36.199
2015    3       12     8   5    5.4373   424.3    6.705      36.214
2015    3       12     8  10    5.4421   424.2    6.712      36.228
2015    3       12     8  16    5.4470   424.2    6.719      36.243
2015    3       12     8  21    5.4520   424.2    6.726      36.258
2015    3       12     8  26    5.4569   424.2    6.732      36.273
2015    3       12     8  32    5.4617   424.1    6.739      36.289
2015    3       12     8  37    5.4667   424.1    6.746      36.305
2015    3       12     8  42    5.4715   424.1    6.752      36.321
2015    3       12     8  47    5.4764   424.1    6.759      36.337
2015    3       12     8  53    5.4813   424.1    6.765      36.353
2015    3       12     8  58    5.4861   424.0    6.771      36.369
2015    3       12     9   3    5.4909   424.0    6.778      36.385
2015    3       12     9   9    5.4957   424.0    6.784      36.401
2015    3       12     9  14    5.5006   424.0    6.790      36.418
2015    3       12     9  19    5.5054   423.9    6.796      36.435
2015    3       12     9  25    5.5103   423.9    6.802      36.451
2015    3       12     9  30    5.5150   423.9    6.809      36.468
2015    3       12     9  35    5.5199   423.9    6.815      36.485
2015    3       12     9  40    5.5247   423.9    6.821      36.501
2015    3       12     9  46    5.5294   423.8    6.827      36.518
2015    3       12     9  51    5.5342   423.8    6.833      36.535
2015    3       12     9  56    5.5390   423.8    6.838      36.552
2015    3       12    10   2    5.5438   423.8    6.844      36.569
2015    3       12    10   7    5.5486   423.8    6.850      36.586
2015    3       12    10  12    5.5534   423.7    6.856      36.603
2015    3       12    10  18    5.5581   423.7    6.862      36.620
2015    3       12    10  23    5.5629   423.7    6.867      36.637
2015    3       12    10  28    5.5677   423.7    6.873      36.654
2015    3       12    10  34    5.5724   423.7    6.879      36.671
2015    3       12    10  39    5.5772   423.6    6.885      36.688
2015    3       12    10  44    5.5820   423.6    6.890      36.705
2015    3       12    10  49    5.5868   423.6    6.896      36.723
2015    3       12    10  55    5.5915   423.6    6.901      36.740
2015    3       12    11   0    5.5962   423.6    6.907      36.757
2015    3       12    11   5    5.6010   423.6    6.913      36.774
2015    3       12    11  11    5.6058   423.5    6.918      36.791
2015    3       12    11  16    5.6105   423.5    6.924      36.809
2015    3       12    11  21    5.6154   423.5    6.929      36.826
2015    3       12    11  27    5.6201   423.5    6.935      36.844
2015    3       12    11  32    5.6249   423.5    6.941      36.861
2015    3       12    11  37    5.6297   423.5    6.946      36.879
2015    3       12    11  42    5.6345   423.5    6.952      36.896
2015    3       12    11  48    5.6393   423.4    6.957      36.914
2015    3       12    11  53    5.6441   423.4    6.963      36.931
2015    3       12    11  58    5.6489   423.4    6.969      36.949
2015    3       12    12   4    5.6538   423.4    6.974      36.967
2015    3       12    12   9    5.6586   423.4    6.980      36.985
2015    3       12    12  14    5.6634   423.4    6.986      37.003
2015    3       12    12  20    5.6682   423.4    6.991      37.021
2015    3       12    12  25    5.6731   423.4    6.997      37.039
2015    3       12    12  30    5.6780   423.4    7.003      37.057
2015    3       12    12  35    5.6829   423.3    7.009      37.075
2015    3       12    12  41    5.6877   423.3    7.015      37.093
2015    3       12    12  46    5.6926   423.3    7.021      37.111
2015    3       12    12  51    5.6975   423.3    7.027      37.129
2015    3       12    12  57    5.7024   423.3    7.033      37.148
2015    3       12    13   2    5.7073   423.3    7.039      37.166
2015    3       12    13   7    5.7122   423.3    7.045      37.184
2015    3       12    13  13    5.7171   423.3    7.051      37.203
2015    3       12    13  18    5.7221   423.3    7.058      37.221
2015    3       12    13  23    5.7270   423.3    7.064      37.239
2015    3       12    13  29    5.7319   423.3    7.071      37.258
2015    3       12    13  34    5.7369   423.3    7.077      37.276
2015    3       12    13  39    5.7418   423.3    7.084      37.294
2015    3       12    13  44    5.7467   423.3    7.091      37.313
2015    3       12    13  50    5.7517   423.3    7.098      37.331
2015    3       12    13  55    5.7566   423.3    7.104      37.350
2015    3       12    14   0    5.7615   423.3    7.111      37.370
2015    3       12    14   6    5.7664   423.3    7.118      37.390
2015    3       12    14  11    5.7713   423.3    7.125      37.410
2015    3       12    14  16    5.7761   423.3    7.132      37.431
2015    3       12    14  22    5.7809   423.3    7.139      37.453
2015    3       12    14  27    5.7858   423.3    7.145      37.475
2015    3       12    14  32    5.7906   423.3    7.152      37.498
2015    3       12    14  37    5.7954   423.3    7.159      37.521
2015    3       12    14  43    5.8001   423.3    7.165      37.545
2015    3       12    14  48    5.8048   423.3    7.171      37.570
2015    3       12    14  53    5.8095   423.3    7.178      37.596
2015    3       12    14  59    5.8142   423.3    7.184      37.622
2015    3       12    15   4    5.8189   423.3    7.190      37.649
2015    3       12    15   9    5.8235   423.3    7.195      37.676
2015    3       12    15  15    5.8282   423.3    7.201      37.703
2015    3       12    15  20    5.8327   423.3    7.206      37.732
2015    3       12    15  25    5.8373   423.3    7.212      37.760
2015    3       12    15  30    5.8418   423.4    7.217      37.788
2015    3       12    15  36    5.8464   423.4    7.222      37.817
2015    3       12    15  41    5.8510   423.4    7.227      37.846
2015    3       12    15  46    5.8555   423.4    7.232      37.875
2015    3       12    15  52    5.8600   423.4    7.236      37.904
2015    3       12    15  57    5.8645   423.4    7.241      37.933
2015    3       12    16   2    5.8689   423.4    7.245      37.962
2015    3       12    16   8    5.8734   423.4    7.250      37.990
2015    3       12    16  13    5.8778   423.4    7.254      38.019
2015    3       12    16  18    5.8823   423.4    7.258      38.048
2015    3       12    16  23    5.8867   423.4    7.262      38.076
2015    3       12    16  29    5.8911   423.5    7.266      38.105
2015    3       12    16  34    5.8956   423.5    7.270      38.133
2015    3       12    16  39    5.9000   423.5    7.274      38.161
2015    3       12    16  45    5.9044   423.5    7.278      38.189
2015    3       12    16  50    5.9088   423.5    7.282      38.217
2015    3       12    16  55    5.9132   423.5    7.285      38.244
2015    3       12    17   1    5.9176   423.5    7.289      38.271
2015    3       12    17   6    5.9220   423.5    7.293      38.298
2015    3       12    17  11    5.9264   423.5    7.296      38.325
2015    3       12    17  17    5.9308   423.5    7.300      38.352
2015    3       12    17  22    5.9352   423.5    7.303      38.378
2015    3       12    17  27    5.9396   423.6    7.306      38.405
2015    3       12    17  32    5.9440   423.6    7.310      38.431
2015    3       12    17  38    5.9484   423.6    7.313      38.457
2015    3       12    17  43    5.9529   423.6    7.316      38.482
2015    3       12    17  48    5.9572   423.6    7.320      38.508
2015    3       12    17  54    5.9616   423.6    7.323      38.533
2015    3       12    17  59    5.9661   423.6    7.326      38.559
2015    3       12    18   4    5.9706   423.6    7.329      38.584
2015    3       12    18  10    5.9750   423.6    7.332      38.609
2015    3       12    18  15    5.9794   423.7    7.335      38.633
2015    3       12    18  20    5.9840   423.7    7.338      38.658
2015    3       12    18  25    5.9885   423.7    7.342      38.683
2015    3       12    18  31    5.9929   423.7    7.345      38.708
2015    3       12    18  36    5.9974   423.7    7.348      38.732
2015    3       12    18  41    6.0020   423.7    7.351      38.757
2015    3       12    18  47    6.0064   423.7    7.354      38.781
2015    3       12    18  52    6.0110   423.7    7.357      38.806
2015    3       12    18  57    6.0156   423.8    7.360      38.831
2015    3       12    19   3    6.0202   423.8    7.363      38.855
2015    3       12    19   8    6.0248   423.8    7.366      38.880
2015    3       12    19  13    6.0294   423.8    7.370      38.905
2015    3       12    19  18    6.0340   423.8    7.373      38.930
2015    3       12    19  24    6.0387   423.8    7.376      38.955
2015    3       12    19  29    6.0434   423.9    7.379      38.980
2015    3       12    19  34    6.0481   423.9    7.383      39.005
2015    3       12    19  40    6.0528   423.9    7.386      39.031
2015    3       12    19  45    6.0576   423.9    7.390      39.057
2015    3       12    19  50    6.0624   423.9    7.393      39.082
2015    3       12    19  56    6.0671   424.0    7.397      39.108
2015    3       12    20   1    6.0719   424.0    7.401      39.134
2015    3       12    20   6    6.0767   424.0    7.405      39.160
2015    3       12    20  11    6.0816   424.0    7.409      39.187
2015    3       12    20  17    6.0864   424.0    7.413      39.213
2015    3       12    20  22    6.0912   424.1    7.417      39.240
2015    3       12    20  27    6.0961   424.1    7.421      39.267
2015    3       12    20  33    6.1010   424.1    7.425      39.294
2015    3       12    20  38    6.1059   424.1    7.430      39.321
2015    3       12    20  43    6.1108   424.2    7.435      39.348
2015    3       12    20  49    6.1157   424.2    7.440      39.375
2015    3       12    20  54    6.1206   424.2    7.445      39.402
2015    3       12    20  59    6.1255   424.2    7.450      39.430
2015    3       12    21   4    6.1304   424.3    7.455      39.458
2015    3       12    21  10    6.1353   424.3    7.460      39.486
2015    3       12    21  15    6.1400   424.3    7.466      39.515
2015    3       12    21  20    6.1449   424.4    7.471      39.544
2015    3       12    21  26    6.1497   424.4    7.477      39.574
2015    3       12    21  31    6.1545   424.4    7.482      39.604
2015    3       12    21  36    6.1592   424.5    7.488      39.635
2015    3       12    21  42    6.1640   424.5    7.494      39.667
2015    3       12    21  47    6.1686   424.5    7.499      39.700
2015    3       12    21  52    6.1733   424.6    7.505      39.734
2015    3       12    21  58    6.1779   424.6    7.510      39.769
2015    3       12    22   3    6.1825   424.7    7.516      39.805
2015    3       12    22   8    6.1871   424.7    7.521      39.841
2015    3       12    22  13    6.1916   424.8    7.526      39.879
2015    3       12    22  19    6.1961   424.8    7.531      39.917
2015    3       12    22  24    6.2006   424.8    7.535      39.957
2015    3       12    22  29    6.2050   424.9    7.540      39.997
2015    3       12    22  35    6.2095   424.9    7.544      40.037
2015    3       12    22  40    6.2139   425.0    7.548      40.078
2015    3       12    22  45    6.2183   425.0    7.552      40.119
2015    3       12    22  51    6.2226   425.0    7.556      40.160
2015    3       12    22  56    6.2270   425.1    7.560      40.201
2015    3       12    23   1    6.2313   425.1    7.563      40.243
2015    3       12    23   6    6.2356   425.2    7.567      40.284
2015    3       12    23  12    6.2399   425.2    7.570      40.325
2015    3       12    23  17    6.2442   425.3    7.573      40.367
2015    3       12    23  22    6.2484   425.3    7.576      40.408
2015    3       12    23  28    6.2527   425.3    7.579      40.448
2015    3       12    23  33    6.2569   425.4    7.581      40.489
2015    3       12    23  38    6.2612   425.4    7.584      40.529
2015    3       12    23  44    6.2654   425.5    7.586      40.569
2015    3       12    23  49    6.2696   425.5    7.588      40.609
2015    3       12    23  54    6.2738   425.5    7.590      40.649
2015    3       12    23  59    6.2781   425.6    7.593      40.688
2015    3       13     0   5    6.2823   425.6    7.595      40.728
