year    month   day   hour  minute  B_enl V_enl   n_enl       T_enl
[year] [month] [day] [hour][minute] [nT]  [km/s]  [cm-3]      [kK]
2015    3        5     0   0    6.9952   487.1    6.644      50.650
2015    3        5     0   6    6.9987   487.3    6.642      50.719
2015    3        5     0  11    7.0020   487.6    6.640      50.788
2015    3        5     0  17    7.0053   487.8    6.638      50.856
2015    3        5     0  22    7.0085   488.0    6.636      50.924
2015    3        5     0  27    7.0119   488.2    6.634      50.991
2015    3        5     0  33    7.0151   488.4    6.632      51.058
2015    3        5     0  38    7.0184   488.6    6.629      51.124
2015    3        5     0  43    7.0218   488.8    6.627      51.190
2015    3        5     0  49    7.0250   489.0    6.624      51.255
2015    3        5     0  54    7.0283   489.2    6.622      51.321
2015    3        5     0  59    7.0315   489.4    6.620      51.386
2015    3        5     1   5    7.0348   489.6    6.617      51.450
2015    3        5     1  10    7.0380   489.8    6.614      51.515
2015    3        5     1  16    7.0411   490.0    6.612      51.579
2015    3        5     1  21    7.0443   490.3    6.609      51.643
2015    3        5     1  26    7.0477   490.5    6.607      51.707
2015    3        5     1  32    7.0508   490.7    6.604      51.771
2015    3        5     1  37    7.0541   490.9    6.602      51.834
2015    3        5     1  42    7.0574   491.1    6.599      51.897
2015    3        5     1  48    7.0607   491.3    6.597      51.961
2015    3        5     1  53    7.0641   491.5    6.595      52.025
2015    3        5     1  59    7.0675   491.8    6.592      52.089
2015    3        5     2   4    7.0706   492.0    6.590      52.154
2015    3        5     2   9    7.0741   492.2    6.588      52.219
2015    3        5     2  15    7.0773   492.4    6.585      52.285
2015    3        5     2  20    7.0807   492.6    6.583      52.351
2015    3        5     2  25    7.0840   492.9    6.581      52.418
2015    3        5     2  31    7.0874   493.1    6.579      52.485
2015    3        5     2  36    7.0907   493.4    6.576      52.552
2015    3        5     2  41    7.0939   493.6    6.574      52.620
2015    3        5     2  47    7.0971   493.8    6.572      52.688
2015    3        5     2  52    7.1002   494.1    6.569      52.757
2015    3        5     2  58    7.1033   494.3    6.566      52.825
2015    3        5     3   3    7.1062   494.6    6.564      52.893
2015    3        5     3   8    7.1092   494.9    6.561      52.961
2015    3        5     3  14    7.1121   495.1    6.558      53.029
2015    3        5     3  19    7.1150   495.4    6.555      53.096
2015    3        5     3  24    7.1178   495.6    6.551      53.163
2015    3        5     3  30    7.1205   495.9    6.548      53.230
2015    3        5     3  35    7.1232   496.1    6.544      53.295
2015    3        5     3  41    7.1258   496.4    6.541      53.361
2015    3        5     3  46    7.1284   496.7    6.537      53.426
2015    3        5     3  51    7.1311   496.9    6.533      53.490
2015    3        5     3  57    7.1335   497.2    6.529      53.553
2015    3        5     4   2    7.1361   497.4    6.525      53.617
2015    3        5     4   7    7.1386   497.7    6.521      53.679
2015    3        5     4  13    7.1411   497.9    6.517      53.741
2015    3        5     4  18    7.1434   498.2    6.513      53.803
2015    3        5     4  23    7.1460   498.4    6.509      53.865
2015    3        5     4  29    7.1483   498.7    6.505      53.926
2015    3        5     4  34    7.1509   499.0    6.501      53.987
2015    3        5     4  40    7.1532   499.2    6.497      54.047
2015    3        5     4  45    7.1557   499.5    6.493      54.108
2015    3        5     4  50    7.1582   499.7    6.489      54.168
2015    3        5     4  56    7.1606   500.0    6.485      54.228
2015    3        5     5   1    7.1629   500.2    6.482      54.289
2015    3        5     5   6    7.1655   500.5    6.478      54.349
2015    3        5     5  12    7.1679   500.7    6.474      54.410
2015    3        5     5  17    7.1703   501.0    6.470      54.471
2015    3        5     5  23    7.1728   501.3    6.466      54.533
2015    3        5     5  28    7.1752   501.5    6.462      54.596
2015    3        5     5  33    7.1776   501.8    6.459      54.660
2015    3        5     5  39    7.1800   502.0    6.455      54.724
2015    3        5     5  44    7.1824   502.3    6.451      54.788
2015    3        5     5  49    7.1847   502.6    6.447      54.853
2015    3        5     5  55    7.1868   502.8    6.443      54.918
2015    3        5     6   0    7.1891   503.1    6.439      54.984
2015    3        5     6   6    7.1915   503.4    6.434      55.050
2015    3        5     6  11    7.1937   503.6    6.430      55.115
2015    3        5     6  16    7.1959   503.9    6.425      55.180
2015    3        5     6  22    7.1978   504.2    6.421      55.246
2015    3        5     6  27    7.2000   504.5    6.416      55.310
2015    3        5     6  32    7.2020   504.7    6.411      55.375
2015    3        5     6  38    7.2038   505.0    6.406      55.438
2015    3        5     6  43    7.2059   505.3    6.401      55.501
2015    3        5     6  48    7.2076   505.6    6.396      55.564
2015    3        5     6  54    7.2096   505.8    6.390      55.625
2015    3        5     6  59    7.2115   506.1    6.385      55.686
2015    3        5     7   5    7.2132   506.4    6.380      55.747
2015    3        5     7  10    7.2150   506.7    6.374      55.807
2015    3        5     7  15    7.2167   507.0    6.368      55.866
2015    3        5     7  21    7.2184   507.2    6.362      55.925
2015    3        5     7  26    7.2200   507.5    6.357      55.983
2015    3        5     7  31    7.2214   507.8    6.351      56.041
2015    3        5     7  37    7.2232   508.1    6.345      56.099
2015    3        5     7  42    7.2246   508.4    6.339      56.156
2015    3        5     7  48    7.2263   508.6    6.333      56.212
2015    3        5     7  53    7.2276   508.9    6.327      56.268
2015    3        5     7  58    7.2292   509.2    6.320      56.324
2015    3        5     8   4    7.2305   509.5    6.314      56.380
2015    3        5     8   9    7.2320   509.8    6.308      56.435
2015    3        5     8  14    7.2332   510.0    6.302      56.489
2015    3        5     8  20    7.2347   510.3    6.295      56.544
2015    3        5     8  25    7.2361   510.6    6.289      56.598
2015    3        5     8  30    7.2373   510.9    6.283      56.652
2015    3        5     8  36    7.2384   511.2    6.276      56.706
2015    3        5     8  41    7.2396   511.4    6.270      56.759
2015    3        5     8  47    7.2410   511.7    6.264      56.812
2015    3        5     8  52    7.2420   512.0    6.257      56.865
2015    3        5     8  57    7.2434   512.3    6.251      56.918
2015    3        5     9   3    7.2445   512.6    6.245      56.971
2015    3        5     9   8    7.2457   512.9    6.238      57.023
2015    3        5     9  13    7.2468   513.1    6.232      57.076
2015    3        5     9  19    7.2477   513.4    6.226      57.128
2015    3        5     9  24    7.2488   513.7    6.220      57.181
2015    3        5     9  30    7.2498   514.0    6.213      57.233
2015    3        5     9  35    7.2510   514.3    6.207      57.286
2015    3        5     9  40    7.2520   514.5    6.201      57.339
2015    3        5     9  46    7.2528   514.8    6.195      57.392
2015    3        5     9  51    7.2538   515.1    6.189      57.445
2015    3        5     9  56    7.2547   515.4    6.183      57.499
2015    3        5    10   2    7.2556   515.7    6.177      57.553
2015    3        5    10   7    7.2565   516.0    6.171      57.607
2015    3        5    10  12    7.2574   516.2    6.165      57.662
2015    3        5    10  18    7.2584   516.5    6.159      57.716
2015    3        5    10  23    7.2592   516.8    6.153      57.771
2015    3        5    10  29    7.2599   517.1    6.148      57.826
2015    3        5    10  34    7.2606   517.4    6.142      57.881
2015    3        5    10  39    7.2613   517.7    6.136      57.936
2015    3        5    10  45    7.2619   518.0    6.130      57.992
2015    3        5    10  50    7.2625   518.2    6.124      58.048
2015    3        5    10  55    7.2629   518.5    6.118      58.105
2015    3        5    11   1    7.2637   518.8    6.113      58.161
2015    3        5    11   6    7.2640   519.1    6.107      58.218
2015    3        5    11  12    7.2644   519.4    6.101      58.276
2015    3        5    11  17    7.2649   519.7    6.095      58.333
2015    3        5    11  22    7.2655   520.0    6.089      58.390
2015    3        5    11  28    7.2657   520.3    6.083      58.448
2015    3        5    11  33    7.2663   520.6    6.078      58.506
2015    3        5    11  38    7.2667   520.8    6.072      58.564
2015    3        5    11  44    7.2671   521.1    6.066      58.622
2015    3        5    11  49    7.2672   521.4    6.060      58.680
2015    3        5    11  55    7.2675   521.7    6.054      58.738
2015    3        5    12   0    7.2678   522.0    6.048      58.796
2015    3        5    12   5    7.2683   522.3    6.043      58.854
2015    3        5    12  11    7.2685   522.6    6.037      58.912
2015    3        5    12  16    7.2687   522.9    6.031      58.970
2015    3        5    12  21    7.2689   523.2    6.025      59.028
2015    3        5    12  27    7.2691   523.5    6.019      59.086
2015    3        5    12  32    7.2693   523.7    6.013      59.144
2015    3        5    12  37    7.2691   524.0    6.007      59.201
2015    3        5    12  43    7.2695   524.3    6.000      59.258
2015    3        5    12  48    7.2695   524.6    5.994      59.314
2015    3        5    12  54    7.2694   524.9    5.988      59.370
2015    3        5    12  59    7.2694   525.2    5.982      59.426
2015    3        5    13   4    7.2696   525.5    5.975      59.481
2015    3        5    13  10    7.2693   525.8    5.969      59.535
2015    3        5    13  15    7.2695   526.1    5.962      59.590
2015    3        5    13  20    7.2692   526.4    5.956      59.643
2015    3        5    13  26    7.2693   526.6    5.949      59.696
2015    3        5    13  31    7.2689   526.9    5.942      59.748
2015    3        5    13  37    7.2690   527.2    5.936      59.800
2015    3        5    13  42    7.2688   527.5    5.929      59.851
2015    3        5    13  47    7.2684   527.8    5.922      59.901
2015    3        5    13  53    7.2681   528.1    5.915      59.952
2015    3        5    13  58    7.2679   528.4    5.908      60.001
2015    3        5    14   3    7.2676   528.7    5.901      60.051
2015    3        5    14   9    7.2673   529.0    5.894      60.099
2015    3        5    14  14    7.2670   529.2    5.887      60.148
2015    3        5    14  19    7.2668   529.5    5.880      60.196
2015    3        5    14  25    7.2662   529.8    5.873      60.243
2015    3        5    14  30    7.2658   530.1    5.866      60.290
2015    3        5    14  36    7.2656   530.4    5.859      60.337
2015    3        5    14  41    7.2652   530.7    5.852      60.383
2015    3        5    14  46    7.2647   531.0    5.845      60.430
2015    3        5    14  52    7.2642   531.2    5.838      60.475
2015    3        5    14  57    7.2634   531.5    5.831      60.521
2015    3        5    15   2    7.2631   531.8    5.824      60.566
2015    3        5    15   8    7.2626   532.1    5.816      60.610
2015    3        5    15  13    7.2617   532.4    5.809      60.655
2015    3        5    15  19    7.2611   532.7    5.802      60.699
2015    3        5    15  24    7.2607   532.9    5.795      60.742
2015    3        5    15  29    7.2600   533.2    5.788      60.786
2015    3        5    15  35    7.2591   533.5    5.781      60.829
2015    3        5    15  40    7.2586   533.8    5.774      60.872
2015    3        5    15  45    7.2579   534.0    5.767      60.915
2015    3        5    15  51    7.2572   534.3    5.760      60.958
2015    3        5    15  56    7.2564   534.6    5.753      61.001
2015    3        5    16   1    7.2554   534.9    5.746      61.043
2015    3        5    16   7    7.2548   535.1    5.739      61.086
2015    3        5    16  12    7.2540   535.4    5.732      61.128
2015    3        5    16  18    7.2531   535.7    5.725      61.171
2015    3        5    16  23    7.2523   536.0    5.719      61.213
2015    3        5    16  28    7.2514   536.2    5.712      61.256
2015    3        5    16  34    7.2502   536.5    5.705      61.299
2015    3        5    16  39    7.2493   536.8    5.699      61.342
2015    3        5    16  44    7.2486   537.1    5.692      61.385
2015    3        5    16  50    7.2477   537.3    5.686      61.429
2015    3        5    16  55    7.2467   537.6    5.680      61.472
2015    3        5    17   1    7.2455   537.9    5.674      61.516
2015    3        5    17   6    7.2447   538.1    5.668      61.560
2015    3        5    17  11    7.2435   538.4    5.662      61.606
2015    3        5    17  17    7.2424   538.7    5.656      61.652
2015    3        5    17  22    7.2416   539.0    5.651      61.699
2015    3        5    17  27    7.2406   539.2    5.645      61.746
2015    3        5    17  33    7.2393   539.5    5.639      61.794
2015    3        5    17  38    7.2384   539.8    5.634      61.843
2015    3        5    17  43    7.2373   540.1    5.628      61.892
2015    3        5    17  49    7.2362   540.3    5.623      61.941
2015    3        5    17  54    7.2348   540.6    5.617      61.991
2015    3        5    18   0    7.2336   540.9    5.611      62.040
2015    3        5    18   5    7.2326   541.2    5.606      62.090
2015    3        5    18  10    7.2311   541.4    5.600      62.139
2015    3        5    18  16    7.2300   541.7    5.594      62.189
2015    3        5    18  21    7.2287   542.0    5.589      62.238
2015    3        5    18  26    7.2274   542.3    5.583      62.287
2015    3        5    18  32    7.2258   542.5    5.577      62.335
2015    3        5    18  37    7.2244   542.8    5.571      62.383
2015    3        5    18  43    7.2232   543.1    5.565      62.430
2015    3        5    18  48    7.2216   543.3    5.559      62.478
2015    3        5    18  53    7.2204   543.6    5.553      62.525
2015    3        5    18  59    7.2190   543.9    5.547      62.571
2015    3        5    19   4    7.2175   544.2    5.541      62.618
2015    3        5    19   9    7.2158   544.4    5.535      62.664
2015    3        5    19  15    7.2143   544.7    5.529      62.710
2015    3        5    19  20    7.2131   545.0    5.523      62.756
2015    3        5    19  26    7.2116   545.2    5.517      62.802
2015    3        5    19  31    7.2102   545.5    5.511      62.848
2015    3        5    19  36    7.2087   545.8    5.505      62.894
2015    3        5    19  42    7.2072   546.0    5.499      62.939
2015    3        5    19  47    7.2057   546.3    5.493      62.985
2015    3        5    19  52    7.2042   546.6    5.487      63.030
2015    3        5    19  58    7.2027   546.8    5.481      63.074
2015    3        5    20   3    7.2010   547.1    5.475      63.119
2015    3        5    20   8    7.1997   547.4    5.468      63.163
2015    3        5    20  14    7.1981   547.6    5.462      63.206
2015    3        5    20  19    7.1967   547.9    5.456      63.250
2015    3        5    20  25    7.1951   548.1    5.450      63.292
2015    3        5    20  30    7.1936   548.4    5.444      63.335
2015    3        5    20  35    7.1921   548.7    5.437      63.377
2015    3        5    20  41    7.1908   548.9    5.431      63.418
2015    3        5    20  46    7.1891   549.2    5.425      63.459
2015    3        5    20  51    7.1876   549.4    5.419      63.500
2015    3        5    20  57    7.1862   549.7    5.412      63.540
2015    3        5    21   2    7.1848   550.0    5.406      63.580
2015    3        5    21   8    7.1832   550.2    5.400      63.620
2015    3        5    21  13    7.1819   550.5    5.394      63.659
2015    3        5    21  18    7.1803   550.7    5.388      63.698
2015    3        5    21  24    7.1788   551.0    5.382      63.737
2015    3        5    21  29    7.1773   551.2    5.375      63.776
2015    3        5    21  34    7.1759   551.5    5.369      63.815
2015    3        5    21  40    7.1744   551.7    5.363      63.853
2015    3        5    21  45    7.1731   552.0    5.358      63.892
2015    3        5    21  50    7.1715   552.2    5.352      63.931
2015    3        5    21  56    7.1700   552.5    5.346      63.970
2015    3        5    22   1    7.1687   552.7    5.340      64.008
2015    3        5    22   7    7.1671   553.0    5.335      64.048
2015    3        5    22  12    7.1658   553.2    5.329      64.088
2015    3        5    22  17    7.1643   553.5    5.324      64.128
2015    3        5    22  23    7.1628   553.7    5.319      64.168
2015    3        5    22  28    7.1614   554.0    5.314      64.209
2015    3        5    22  33    7.1600   554.3    5.309      64.252
2015    3        5    22  39    7.1585   554.5    5.304      64.295
2015    3        5    22  44    7.1571   554.8    5.299      64.339
2015    3        5    22  50    7.1556   555.0    5.294      64.384
2015    3        5    22  55    7.1542   555.3    5.289      64.429
2015    3        5    23   0    7.1526   555.5    5.284      64.474
2015    3        5    23   6    7.1511   555.8    5.279      64.520
2015    3        5    23  11    7.1496   556.0    5.274      64.565
2015    3        5    23  16    7.1482   556.3    5.269      64.610
2015    3        5    23  22    7.1465   556.6    5.264      64.655
2015    3        5    23  27    7.1450   556.8    5.259      64.699
2015    3        5    23  32    7.1434   557.1    5.254      64.743
2015    3        5    23  38    7.1417   557.3    5.249      64.787
2015    3        5    23  43    7.1401   557.6    5.243      64.830
2015    3        5    23  49    7.1385   557.9    5.238      64.872
2015    3        5    23  54    7.1368   558.1    5.233      64.914
2015    3        5    23  59    7.1351   558.4    5.228      64.955
2015    3        6     0   5    7.1334   558.6    5.222      64.996
2015    3        6     0  10    7.1318   558.9    5.217      65.037
2015    3        6     0  15    7.1300   559.1    5.212      65.077
2015    3        6     0  21    7.1283   559.4    5.207      65.117
2015    3        6     0  26    7.1266   559.6    5.202      65.157
2015    3        6     0  32    7.1249   559.9    5.197      65.198
2015    3        6     0  37    7.1232   560.1    5.192      65.240
2015    3        6     0  42    7.1215   560.4    5.187      65.281
2015    3        6     0  48    7.1197   560.6    5.182      65.323
2015    3        6     0  53    7.1181   560.9    5.177      65.365
2015    3        6     0  58    7.1163   561.2    5.172      65.408
2015    3        6     1   4    7.1146   561.4    5.167      65.450
2015    3        6     1   9    7.1129   561.7    5.162      65.492
2015    3        6     1  14    7.1111   561.9    5.157      65.534
2015    3        6     1  20    7.1094   562.2    5.151      65.576
2015    3        6     1  25    7.1076   562.4    5.146      65.617
2015    3        6     1  31    7.1058   562.7    5.141      65.658
2015    3        6     1  36    7.1040   562.9    5.135      65.698
2015    3        6     1  41    7.1022   563.2    5.130      65.738
2015    3        6     1  47    7.1004   563.5    5.124      65.777
2015    3        6     1  52    7.0986   563.7    5.119      65.815
2015    3        6     1  57    7.0968   564.0    5.113      65.853
2015    3        6     2   3    7.0950   564.2    5.107      65.890
2015    3        6     2   8    7.0932   564.5    5.102      65.926
2015    3        6     2  14    7.0914   564.7    5.096      65.963
2015    3        6     2  19    7.0896   565.0    5.090      65.999
2015    3        6     2  24    7.0878   565.2    5.084      66.034
2015    3        6     2  30    7.0860   565.5    5.079      66.070
2015    3        6     2  35    7.0843   565.7    5.073      66.106
2015    3        6     2  40    7.0826   566.0    5.068      66.141
2015    3        6     2  46    7.0808   566.2    5.062      66.177
2015    3        6     2  51    7.0792   566.5    5.057      66.213
2015    3        6     2  57    7.0775   566.7    5.052      66.249
2015    3        6     3   2    7.0759   567.0    5.046      66.286
2015    3        6     3   7    7.0743   567.2    5.041      66.324
2015    3        6     3  13    7.0727   567.5    5.036      66.362
2015    3        6     3  18    7.0711   567.7    5.031      66.401
2015    3        6     3  23    7.0695   567.9    5.026      66.441
2015    3        6     3  29    7.0680   568.2    5.021      66.482
2015    3        6     3  34    7.0665   568.5    5.016      66.523
2015    3        6     3  39    7.0650   568.7    5.011      66.565
2015    3        6     3  45    7.0634   569.0    5.006      66.606
2015    3        6     3  50    7.0619   569.2    5.002      66.648
2015    3        6     3  56    7.0604   569.5    4.997      66.689
2015    3        6     4   1    7.0588   569.7    4.992      66.731
2015    3        6     4   6    7.0572   570.0    4.986      66.772
2015    3        6     4  12    7.0556   570.2    4.981      66.812
2015    3        6     4  17    7.0541   570.5    4.976      66.852
2015    3        6     4  22    7.0525   570.7    4.971      66.890
2015    3        6     4  28    7.0508   571.0    4.965      66.929
2015    3        6     4  33    7.0492   571.2    4.960      66.966
2015    3        6     4  39    7.0475   571.5    4.955      67.003
2015    3        6     4  44    7.0458   571.7    4.949      67.039
2015    3        6     4  49    7.0441   572.0    4.944      67.074
2015    3        6     4  55    7.0424   572.2    4.938      67.109
2015    3        6     5   0    7.0407   572.5    4.933      67.144
2015    3        6     5   5    7.0389   572.7    4.928      67.178
2015    3        6     5  11    7.0372   573.0    4.923      67.213
2015    3        6     5  16    7.0354   573.2    4.917      67.247
2015    3        6     5  21    7.0337   573.5    4.912      67.281
2015    3        6     5  27    7.0319   573.7    4.907      67.316
2015    3        6     5  32    7.0302   574.0    4.902      67.351
2015    3        6     5  38    7.0284   574.2    4.897      67.386
2015    3        6     5  43    7.0267   574.5    4.892      67.423
2015    3        6     5  48    7.0249   574.7    4.887      67.460
2015    3        6     5  54    7.0231   575.0    4.882      67.498
2015    3        6     5  59    7.0213   575.2    4.878      67.536
2015    3        6     6   4    7.0195   575.5    4.873      67.575
2015    3        6     6  10    7.0177   575.7    4.868      67.615
2015    3        6     6  15    7.0159   576.0    4.863      67.655
2015    3        6     6  21    7.0140   576.2    4.858      67.694
2015    3        6     6  26    7.0121   576.5    4.853      67.733
2015    3        6     6  31    7.0102   576.8    4.848      67.771
2015    3        6     6  37    7.0083   577.0    4.843      67.809
2015    3        6     6  42    7.0063   577.3    4.837      67.847
2015    3        6     6  47    7.0043   577.5    4.832      67.885
2015    3        6     6  53    7.0023   577.8    4.826      67.921
2015    3        6     6  58    7.0003   578.1    4.821      67.957
2015    3        6     7   3    6.9982   578.3    4.815      67.992
2015    3        6     7   9    6.9962   578.6    4.809      68.026
2015    3        6     7  14    6.9941   578.8    4.804      68.059
2015    3        6     7  20    6.9920   579.1    4.798      68.092
2015    3        6     7  25    6.9899   579.3    4.792      68.125
2015    3        6     7  30    6.9878   579.6    4.787      68.158
2015    3        6     7  36    6.9856   579.8    4.781      68.190
2015    3        6     7  41    6.9835   580.1    4.775      68.222
2015    3        6     7  46    6.9814   580.3    4.769      68.254
2015    3        6     7  52    6.9793   580.6    4.764      68.286
2015    3        6     7  57    6.9772   580.9    4.758      68.318
2015    3        6     8   3    6.9751   581.1    4.752      68.350
2015    3        6     8   8    6.9730   581.4    4.747      68.382
2015    3        6     8  13    6.9709   581.6    4.741      68.415
2015    3        6     8  19    6.9688   581.9    4.736      68.448
2015    3        6     8  24    6.9667   582.1    4.730      68.481
2015    3        6     8  29    6.9646   582.4    4.725      68.515
2015    3        6     8  35    6.9625   582.6    4.719      68.549
2015    3        6     8  40    6.9603   582.9    4.714      68.582
2015    3        6     8  46    6.9582   583.1    4.709      68.617
2015    3        6     8  51    6.9560   583.4    4.703      68.650
2015    3        6     8  56    6.9539   583.6    4.698      68.684
2015    3        6     9   2    6.9517   583.9    4.693      68.718
2015    3        6     9   7    6.9496   584.1    4.688      68.752
2015    3        6     9  12    6.9474   584.4    4.682      68.785
2015    3        6     9  18    6.9452   584.6    4.677      68.819
2015    3        6     9  23    6.9430   584.9    4.672      68.852
2015    3        6     9  28    6.9408   585.1    4.667      68.885
2015    3        6     9  34    6.9386   585.4    4.662      68.918
2015    3        6     9  39    6.9364   585.6    4.657      68.951
2015    3        6     9  45    6.9342   585.8    4.652      68.985
2015    3        6     9  50    6.9320   586.1    4.647      69.019
2015    3        6     9  55    6.9299   586.3    4.643      69.054
2015    3        6    10   1    6.9277   586.6    4.638      69.089
2015    3        6    10   6    6.9256   586.8    4.633      69.125
2015    3        6    10  11    6.9234   587.0    4.629      69.163
2015    3        6    10  17    6.9213   587.3    4.624      69.201
2015    3        6    10  22    6.9192   587.5    4.620      69.240
2015    3        6    10  28    6.9171   587.8    4.616      69.279
2015    3        6    10  33    6.9150   588.0    4.611      69.320
2015    3        6    10  38    6.9128   588.3    4.607      69.361
2015    3        6    10  44    6.9107   588.5    4.603      69.403
2015    3        6    10  49    6.9085   588.8    4.598      69.444
2015    3        6    10  54    6.9063   589.0    4.594      69.485
2015    3        6    11   0    6.9041   589.3    4.589      69.526
2015    3        6    11   5    6.9020   589.5    4.584      69.566
2015    3        6    11  10    6.8997   589.8    4.579      69.606
2015    3        6    11  16    6.8974   590.0    4.574      69.644
2015    3        6    11  21    6.8952   590.3    4.569      69.681
2015    3        6    11  27    6.8929   590.5    4.564      69.718
2015    3        6    11  32    6.8905   590.8    4.559      69.753
2015    3        6    11  37    6.8882   591.0    4.553      69.787
2015    3        6    11  43    6.8858   591.3    4.548      69.820
2015    3        6    11  48    6.8834   591.5    4.542      69.852
2015    3        6    11  53    6.8810   591.8    4.537      69.882
2015    3        6    11  59    6.8786   592.0    4.531      69.912
2015    3        6    12   4    6.8761   592.3    4.525      69.941
2015    3        6    12  10    6.8737   592.6    4.519      69.968
2015    3        6    12  15    6.8712   592.8    4.513      69.995
2015    3        6    12  20    6.8686   593.1    4.507      70.021
2015    3        6    12  26    6.8662   593.3    4.501      70.047
2015    3        6    12  31    6.8636   593.5    4.495      70.071
2015    3        6    12  36    6.8611   593.8    4.489      70.096
2015    3        6    12  42    6.8585   594.0    4.483      70.119
2015    3        6    12  47    6.8559   594.3    4.476      70.142
2015    3        6    12  52    6.8534   594.5    4.470      70.165
2015    3        6    12  58    6.8508   594.8    4.464      70.187
2015    3        6    13   3    6.8482   595.0    4.458      70.209
2015    3        6    13   9    6.8455   595.3    4.452      70.230
2015    3        6    13  14    6.8429   595.5    4.445      70.251
2015    3        6    13  19    6.8403   595.7    4.439      70.272
2015    3        6    13  25    6.8376   596.0    4.433      70.293
2015    3        6    13  30    6.8349   596.2    4.427      70.313
2015    3        6    13  35    6.8322   596.5    4.421      70.334
2015    3        6    13  41    6.8296   596.7    4.415      70.354
2015    3        6    13  46    6.8269   596.9    4.409      70.375
2015    3        6    13  52    6.8242   597.2    4.403      70.395
2015    3        6    13  57    6.8215   597.4    4.397      70.416
2015    3        6    14   2    6.8188   597.6    4.391      70.438
2015    3        6    14   8    6.8161   597.8    4.385      70.460
2015    3        6    14  13    6.8134   598.1    4.380      70.482
2015    3        6    14  18    6.8107   598.3    4.374      70.505
2015    3        6    14  24    6.8079   598.5    4.369      70.529
2015    3        6    14  29    6.8053   598.8    4.363      70.554
2015    3        6    14  34    6.8027   599.0    4.358      70.580
2015    3        6    14  40    6.8000   599.2    4.353      70.608
2015    3        6    14  45    6.7974   599.4    4.348      70.636
2015    3        6    14  51    6.7948   599.7    4.343      70.664
2015    3        6    14  56    6.7921   599.9    4.338      70.694
2015    3        6    15   1    6.7895   600.1    4.333      70.723
2015    3        6    15   7    6.7870   600.4    4.329      70.754
2015    3        6    15  12    6.7843   600.6    4.324      70.784
2015    3        6    15  17    6.7817   600.8    4.319      70.815
2015    3        6    15  23    6.7790   601.1    4.314      70.846
2015    3        6    15  28    6.7763   601.3    4.310      70.877
2015    3        6    15  34    6.7737   601.5    4.305      70.909
2015    3        6    15  39    6.7709   601.8    4.300      70.940
2015    3        6    15  44    6.7682   602.0    4.296      70.971
2015    3        6    15  50    6.7655   602.2    4.291      71.002
2015    3        6    15  55    6.7627   602.5    4.286      71.033
2015    3        6    16   0    6.7599   602.7    4.282      71.063
2015    3        6    16   6    6.7572   602.9    4.277      71.093
2015    3        6    16  11    6.7543   603.2    4.272      71.121
2015    3        6    16  17    6.7515   603.4    4.267      71.150
2015    3        6    16  22    6.7486   603.6    4.262      71.177
2015    3        6    16  27    6.7458   603.9    4.257      71.204
2015    3        6    16  33    6.7429   604.1    4.252      71.230
2015    3        6    16  38    6.7400   604.3    4.247      71.254
2015    3        6    16  43    6.7370   604.5    4.242      71.278
2015    3        6    16  49    6.7340   604.8    4.237      71.302
2015    3        6    16  54    6.7311   605.0    4.232      71.324
2015    3        6    16  59    6.7281   605.2    4.227      71.346
2015    3        6    17   5    6.7251   605.4    4.222      71.367
2015    3        6    17  10    6.7221   605.7    4.217      71.389
2015    3        6    17  16    6.7191   605.9    4.212      71.410
2015    3        6    17  21    6.7161   606.1    4.207      71.431
2015    3        6    17  26    6.7130   606.3    4.202      71.452
2015    3        6    17  32    6.7100   606.5    4.196      71.473
2015    3        6    17  37    6.7070   606.8    4.191      71.494
2015    3        6    17  42    6.7039   607.0    4.186      71.514
2015    3        6    17  48    6.7009   607.2    4.181      71.535
2015    3        6    17  53    6.6979   607.4    4.176      71.555
2015    3        6    17  59    6.6948   607.6    4.171      71.575
2015    3        6    18   4    6.6918   607.8    4.165      71.594
2015    3        6    18   9    6.6888   608.0    4.160      71.614
2015    3        6    18  15    6.6858   608.2    4.155      71.633
2015    3        6    18  20    6.6828   608.5    4.150      71.653
2015    3        6    18  25    6.6798   608.7    4.145      71.672
2015    3        6    18  31    6.6767   608.9    4.139      71.691
2015    3        6    18  36    6.6738   609.1    4.134      71.710
2015    3        6    18  41    6.6708   609.3    4.129      71.729
2015    3        6    18  47    6.6678   609.5    4.124      71.749
2015    3        6    18  52    6.6649   609.7    4.119      71.768
2015    3        6    18  58    6.6620   609.9    4.114      71.788
2015    3        6    19   3    6.6590   610.1    4.109      71.809
2015    3        6    19   8    6.6562   610.3    4.105      71.831
2015    3        6    19  14    6.6533   610.5    4.100      71.854
2015    3        6    19  19    6.6505   610.7    4.095      71.876
2015    3        6    19  24    6.6476   610.9    4.090      71.900
2015    3        6    19  30    6.6449   611.1    4.086      71.924
2015    3        6    19  35    6.6420   611.3    4.081      71.947
2015    3        6    19  41    6.6392   611.5    4.076      71.971
2015    3        6    19  46    6.6364   611.7    4.072      71.994
2015    3        6    19  51    6.6336   611.9    4.067      72.018
2015    3        6    19  57    6.6308   612.1    4.063      72.041
2015    3        6    20   2    6.6280   612.3    4.058      72.064
2015    3        6    20   7    6.6251   612.5    4.053      72.086
2015    3        6    20  13    6.6223   612.7    4.048      72.108
2015    3        6    20  18    6.6194   612.9    4.044      72.130
2015    3        6    20  23    6.6165   613.1    4.039      72.150
2015    3        6    20  29    6.6136   613.3    4.034      72.171
2015    3        6    20  34    6.6107   613.6    4.029      72.191
2015    3        6    20  40    6.6078   613.8    4.025      72.210
2015    3        6    20  45    6.6049   614.0    4.020      72.229
2015    3        6    20  50    6.6020   614.2    4.015      72.248
2015    3        6    20  56    6.5990   614.4    4.010      72.266
2015    3        6    21   1    6.5961   614.5    4.005      72.285
2015    3        6    21   6    6.5931   614.7    4.001      72.303
2015    3        6    21  12    6.5902   614.9    3.996      72.321
2015    3        6    21  17    6.5872   615.1    3.991      72.339
2015    3        6    21  23    6.5843   615.3    3.987      72.357
2015    3        6    21  28    6.5813   615.5    3.982      72.375
2015    3        6    21  33    6.5784   615.7    3.978      72.394
2015    3        6    21  39    6.5754   615.9    3.974      72.413
2015    3        6    21  44    6.5725   616.1    3.969      72.433
2015    3        6    21  49    6.5695   616.3    3.965      72.454
2015    3        6    21  55    6.5666   616.5    3.961      72.475
2015    3        6    22   0    6.5637   616.7    3.957      72.496
2015    3        6    22   5    6.5607   616.8    3.953      72.518
2015    3        6    22  11    6.5578   617.0    3.949      72.540
2015    3        6    22  16    6.5548   617.2    3.945      72.562
2015    3        6    22  22    6.5518   617.4    3.941      72.583
2015    3        6    22  27    6.5488   617.6    3.937      72.604
2015    3        6    22  32    6.5458   617.8    3.933      72.625
2015    3        6    22  38    6.5428   618.0    3.929      72.646
2015    3        6    22  43    6.5397   618.2    3.925      72.666
2015    3        6    22  48    6.5366   618.4    3.921      72.685
2015    3        6    22  54    6.5335   618.6    3.917      72.704
2015    3        6    22  59    6.5304   618.8    3.912      72.722
2015    3        6    23   5    6.5273   619.0    3.908      72.740
2015    3        6    23  10    6.5242   619.2    3.904      72.758
2015    3        6    23  15    6.5210   619.3    3.900      72.775
2015    3        6    23  21    6.5179   619.5    3.896      72.791
2015    3        6    23  26    6.5147   619.7    3.892      72.808
2015    3        6    23  31    6.5115   619.9    3.888      72.824
2015    3        6    23  37    6.5084   620.1    3.884      72.839
2015    3        6    23  42    6.5052   620.3    3.880      72.854
2015    3        6    23  48    6.5019   620.5    3.876      72.870
2015    3        6    23  53    6.4987   620.7    3.872      72.884
2015    3        6    23  58    6.4955   620.8    3.867      72.899
2015    3        7     0   4    6.4923   621.0    3.863      72.913
2015    3        7     0   9    6.4890   621.2    3.859      72.927
2015    3        7     0  14    6.4857   621.4    3.855      72.941
2015    3        7     0  20    6.4825   621.6    3.851      72.955
2015    3        7     0  25    6.4792   621.7    3.846      72.969
2015    3        7     0  30    6.4760   621.9    3.842      72.982
2015    3        7     0  36    6.4727   622.1    3.838      72.995
2015    3        7     0  41    6.4694   622.3    3.834      73.008
2015    3        7     0  47    6.4662   622.4    3.829      73.021
2015    3        7     0  52    6.4629   622.6    3.825      73.034
2015    3        7     0  57    6.4596   622.8    3.821      73.046
2015    3        7     1   3    6.4564   623.0    3.816      73.059
2015    3        7     1   8    6.4531   623.1    3.812      73.071
2015    3        7     1  13    6.4499   623.3    3.808      73.084
2015    3        7     1  19    6.4467   623.5    3.804      73.096
2015    3        7     1  24    6.4435   623.6    3.799      73.108
2015    3        7     1  30    6.4403   623.8    3.795      73.120
2015    3        7     1  35    6.4371   623.9    3.791      73.133
2015    3        7     1  40    6.4340   624.1    3.787      73.145
2015    3        7     1  46    6.4309   624.3    3.783      73.158
2015    3        7     1  51    6.4277   624.4    3.779      73.171
2015    3        7     1  56    6.4246   624.6    3.775      73.185
2015    3        7     2   2    6.4216   624.7    3.771      73.198
2015    3        7     2   7    6.4185   624.9    3.767      73.212
2015    3        7     2  12    6.4155   625.0    3.763      73.227
2015    3        7     2  18    6.4126   625.2    3.759      73.243
2015    3        7     2  23    6.4097   625.3    3.756      73.259
2015    3        7     2  29    6.4067   625.5    3.752      73.276
2015    3        7     2  34    6.4038   625.6    3.748      73.293
2015    3        7     2  39    6.4009   625.8    3.745      73.311
2015    3        7     2  45    6.3981   626.0    3.741      73.328
2015    3        7     2  50    6.3952   626.1    3.738      73.345
2015    3        7     2  55    6.3924   626.3    3.734      73.362
2015    3        7     3   1    6.3896   626.4    3.730      73.379
2015    3        7     3   6    6.3867   626.6    3.727      73.395
2015    3        7     3  12    6.3839   626.7    3.723      73.411
2015    3        7     3  17    6.3811   626.9    3.720      73.427
2015    3        7     3  22    6.3782   627.0    3.716      73.442
2015    3        7     3  28    6.3754   627.2    3.712      73.456
2015    3        7     3  33    6.3725   627.4    3.709      73.469
2015    3        7     3  38    6.3696   627.5    3.705      73.482
2015    3        7     3  44    6.3668   627.7    3.702      73.495
2015    3        7     3  49    6.3639   627.8    3.698      73.506
2015    3        7     3  54    6.3610   628.0    3.694      73.517
2015    3        7     4   0    6.3580   628.1    3.691      73.528
2015    3        7     4   5    6.3551   628.3    3.687      73.537
2015    3        7     4  11    6.3521   628.4    3.683      73.546
2015    3        7     4  16    6.3491   628.6    3.680      73.555
2015    3        7     4  21    6.3461   628.8    3.676      73.563
2015    3        7     4  27    6.3431   628.9    3.672      73.571
2015    3        7     4  32    6.3401   629.1    3.669      73.578
2015    3        7     4  37    6.3370   629.2    3.665      73.584
2015    3        7     4  43    6.3339   629.4    3.661      73.590
2015    3        7     4  48    6.3308   629.5    3.658      73.596
2015    3        7     4  54    6.3277   629.7    3.654      73.601
2015    3        7     4  59    6.3246   629.8    3.650      73.605
2015    3        7     5   4    6.3214   630.0    3.647      73.610
2015    3        7     5  10    6.3182   630.1    3.643      73.614
2015    3        7     5  15    6.3150   630.3    3.640      73.618
2015    3        7     5  20    6.3118   630.4    3.636      73.621
2015    3        7     5  26    6.3086   630.6    3.633      73.624
2015    3        7     5  31    6.3053   630.7    3.629      73.628
2015    3        7     5  37    6.3021   630.8    3.626      73.631
2015    3        7     5  42    6.2988   631.0    3.622      73.634
2015    3        7     5  47    6.2955   631.1    3.619      73.637
2015    3        7     5  53    6.2922   631.3    3.615      73.640
2015    3        7     5  58    6.2889   631.4    3.612      73.643
2015    3        7     6   3    6.2857   631.5    3.609      73.647
2015    3        7     6   9    6.2824   631.7    3.605      73.650
2015    3        7     6  14    6.2790   631.8    3.602      73.654
2015    3        7     6  19    6.2757   631.9    3.599      73.658
2015    3        7     6  25    6.2724   632.1    3.596      73.663
2015    3        7     6  30    6.2691   632.2    3.593      73.668
2015    3        7     6  36    6.2658   632.3    3.590      73.673
2015    3        7     6  41    6.2626   632.4    3.587      73.679
2015    3        7     6  46    6.2592   632.6    3.584      73.685
2015    3        7     6  52    6.2560   632.7    3.581      73.692
2015    3        7     6  57    6.2527   632.8    3.578      73.701
2015    3        7     7   2    6.2494   632.9    3.575      73.710
2015    3        7     7   8    6.2462   633.0    3.572      73.720
2015    3        7     7  13    6.2429   633.2    3.570      73.731
2015    3        7     7  19    6.2397   633.3    3.567      73.743
2015    3        7     7  24    6.2365   633.4    3.564      73.756
2015    3        7     7  29    6.2332   633.5    3.561      73.770
2015    3        7     7  35    6.2300   633.6    3.559      73.784
2015    3        7     7  40    6.2268   633.8    3.556      73.798
2015    3        7     7  45    6.2237   633.9    3.553      73.813
2015    3        7     7  51    6.2205   634.0    3.550      73.827
2015    3        7     7  56    6.2174   634.1    3.548      73.841
2015    3        7     8   1    6.2143   634.2    3.545      73.855
2015    3        7     8   7    6.2111   634.3    3.542      73.868
2015    3        7     8  12    6.2081   634.4    3.539      73.881
2015    3        7     8  18    6.2050   634.6    3.536      73.893
2015    3        7     8  23    6.2020   634.7    3.533      73.904
2015    3        7     8  28    6.1989   634.8    3.530      73.914
2015    3        7     8  34    6.1959   634.9    3.528      73.924
2015    3        7     8  39    6.1928   635.0    3.525      73.933
2015    3        7     8  44    6.1898   635.1    3.522      73.940
2015    3        7     8  50    6.1868   635.2    3.518      73.948
2015    3        7     8  55    6.1838   635.3    3.515      73.954
2015    3        7     9   1    6.1808   635.5    3.512      73.960
2015    3        7     9   6    6.1778   635.6    3.509      73.965
2015    3        7     9  11    6.1748   635.7    3.506      73.969
2015    3        7     9  17    6.1719   635.8    3.503      73.972
2015    3        7     9  22    6.1689   635.9    3.500      73.975
2015    3        7     9  27    6.1660   636.0    3.497      73.977
2015    3        7     9  33    6.1630   636.1    3.493      73.979
2015    3        7     9  38    6.1600   636.2    3.490      73.980
2015    3        7     9  43    6.1571   636.3    3.487      73.980
2015    3        7     9  49    6.1542   636.4    3.484      73.979
2015    3        7     9  54    6.1512   636.5    3.481      73.978
2015    3        7    10   0    6.1483   636.6    3.477      73.976
2015    3        7    10   5    6.1453   636.7    3.474      73.974
2015    3        7    10  10    6.1424   636.8    3.471      73.971
2015    3        7    10  16    6.1395   636.9    3.468      73.967
2015    3        7    10  21    6.1365   637.0    3.465      73.964
2015    3        7    10  26    6.1336   637.1    3.462      73.960
2015    3        7    10  32    6.1307   637.2    3.458      73.955
2015    3        7    10  37    6.1277   637.3    3.455      73.951
2015    3        7    10  43    6.1248   637.4    3.452      73.946
2015    3        7    10  48    6.1219   637.5    3.449      73.941
2015    3        7    10  53    6.1189   637.6    3.446      73.936
2015    3        7    10  59    6.1160   637.7    3.444      73.931
2015    3        7    11   4    6.1130   637.8    3.441      73.926
2015    3        7    11   9    6.1100   637.9    3.438      73.921
2015    3        7    11  15    6.1071   638.0    3.435      73.916
2015    3        7    11  20    6.1041   638.1    3.432      73.911
2015    3        7    11  26    6.1011   638.2    3.430      73.906
2015    3        7    11  31    6.0982   638.3    3.427      73.902
2015    3        7    11  36    6.0951   638.4    3.425      73.897
2015    3        7    11  42    6.0921   638.5    3.422      73.893
2015    3        7    11  47    6.0891   638.6    3.419      73.889
2015    3        7    11  52    6.0860   638.7    3.417      73.885
2015    3        7    11  58    6.0830   638.7    3.415      73.882
2015    3        7    12   3    6.0800   638.8    3.412      73.878
2015    3        7    12   8    6.0768   638.9    3.410      73.875
2015    3        7    12  14    6.0738   639.0    3.407      73.872
2015    3        7    12  19    6.0707   639.1    3.405      73.869
2015    3        7    12  25    6.0676   639.2    3.403      73.867
2015    3        7    12  30    6.0645   639.3    3.400      73.864
2015    3        7    12  35    6.0614   639.4    3.398      73.862
2015    3        7    12  41    6.0583   639.4    3.396      73.861
2015    3        7    12  46    6.0552   639.5    3.393      73.859
2015    3        7    12  51    6.0520   639.6    3.391      73.858
2015    3        7    12  57    6.0489   639.7    3.389      73.856
2015    3        7    13   2    6.0458   639.8    3.387      73.855
2015    3        7    13   8    6.0427   639.8    3.384      73.854
2015    3        7    13  13    6.0395   639.9    3.382      73.854
2015    3        7    13  18    6.0365   640.0    3.380      73.853
2015    3        7    13  24    6.0334   640.1    3.378      73.853
2015    3        7    13  29    6.0302   640.1    3.376      73.853
2015    3        7    13  34    6.0271   640.2    3.373      73.854
2015    3        7    13  40    6.0240   640.3    3.371      73.855
2015    3        7    13  45    6.0209   640.3    3.369      73.856
2015    3        7    13  50    6.0179   640.4    3.367      73.857
2015    3        7    13  56    6.0148   640.5    3.365      73.859
2015    3        7    14   1    6.0118   640.6    3.363      73.862
2015    3        7    14   7    6.0087   640.6    3.361      73.864
2015    3        7    14  12    6.0057   640.7    3.359      73.867
2015    3        7    14  17    6.0027   640.8    3.356      73.870
2015    3        7    14  23    5.9996   640.8    3.354      73.873
2015    3        7    14  28    5.9967   640.9    3.352      73.876
2015    3        7    14  33    5.9936   640.9    3.350      73.880
2015    3        7    14  39    5.9906   641.0    3.348      73.883
2015    3        7    14  44    5.9877   641.1    3.346      73.885
2015    3        7    14  50    5.9847   641.1    3.344      73.887
2015    3        7    14  55    5.9818   641.2    3.342      73.888
2015    3        7    15   0    5.9788   641.2    3.340      73.889
2015    3        7    15   6    5.9759   641.3    3.338      73.889
2015    3        7    15  11    5.9730   641.4    3.336      73.888
2015    3        7    15  16    5.9701   641.4    3.333      73.886
2015    3        7    15  22    5.9672   641.5    3.331      73.884
2015    3        7    15  27    5.9643   641.5    3.329      73.881
2015    3        7    15  32    5.9614   641.6    3.327      73.877
2015    3        7    15  38    5.9586   641.6    3.324      73.871
2015    3        7    15  43    5.9557   641.7    3.322      73.865
2015    3        7    15  49    5.9528   641.8    3.320      73.859
2015    3        7    15  54    5.9500   641.8    3.318      73.851
2015    3        7    15  59    5.9471   641.9    3.315      73.843
2015    3        7    16   5    5.9443   641.9    3.313      73.834
2015    3        7    16  10    5.9415   642.0    3.311      73.824
2015    3        7    16  15    5.9386   642.0    3.308      73.814
2015    3        7    16  21    5.9357   642.1    3.306      73.803
2015    3        7    16  26    5.9329   642.1    3.304      73.791
2015    3        7    16  32    5.9300   642.1    3.302      73.779
2015    3        7    16  37    5.9272   642.2    3.299      73.766
2015    3        7    16  42    5.9243   642.2    3.297      73.752
2015    3        7    16  48    5.9214   642.3    3.295      73.738
2015    3        7    16  53    5.9185   642.3    3.292      73.724
2015    3        7    16  58    5.9157   642.4    3.290      73.709
2015    3        7    17   4    5.9129   642.4    3.288      73.693
2015    3        7    17   9    5.9100   642.4    3.286      73.678
2015    3        7    17  15    5.9071   642.5    3.284      73.662
2015    3        7    17  20    5.9043   642.5    3.282      73.646
2015    3        7    17  25    5.9014   642.5    3.279      73.631
2015    3        7    17  31    5.8986   642.6    3.278      73.616
2015    3        7    17  36    5.8958   642.6    3.276      73.601
2015    3        7    17  41    5.8930   642.6    3.274      73.587
2015    3        7    17  47    5.8903   642.6    3.272      73.573
2015    3        7    17  52    5.8876   642.7    3.271      73.561
2015    3        7    17  57    5.8849   642.7    3.269      73.550
2015    3        7    18   3    5.8822   642.7    3.268      73.541
2015    3        7    18   8    5.8796   642.8    3.266      73.534
2015    3        7    18  14    5.8769   642.8    3.265      73.529
2015    3        7    18  19    5.8744   642.8    3.264      73.525
2015    3        7    18  24    5.8718   642.9    3.262      73.523
2015    3        7    18  30    5.8692   642.9    3.261      73.522
2015    3        7    18  35    5.8666   642.9    3.260      73.522
2015    3        7    18  40    5.8641   643.0    3.259      73.523
2015    3        7    18  46    5.8614   643.0    3.258      73.524
2015    3        7    18  51    5.8588   643.0    3.257      73.526
2015    3        7    18  57    5.8562   643.1    3.255      73.528
2015    3        7    19   2    5.8537   643.1    3.254      73.530
2015    3        7    19   7    5.8510   643.2    3.253      73.532
2015    3        7    19  13    5.8483   643.2    3.252      73.533
2015    3        7    19  18    5.8458   643.2    3.250      73.535
2015    3        7    19  23    5.8430   643.3    3.249      73.535
2015    3        7    19  29    5.8404   643.3    3.248      73.536
2015    3        7    19  34    5.8378   643.4    3.246      73.536
2015    3        7    19  39    5.8351   643.4    3.245      73.535
2015    3        7    19  45    5.8323   643.4    3.243      73.534
2015    3        7    19  50    5.8296   643.5    3.242      73.533
2015    3        7    19  56    5.8269   643.5    3.240      73.530
2015    3        7    20   1    5.8241   643.5    3.238      73.527
2015    3        7    20   6    5.8214   643.6    3.237      73.523
2015    3        7    20  12    5.8187   643.6    3.235      73.519
2015    3        7    20  17    5.8159   643.6    3.233      73.514
2015    3        7    20  22    5.8132   643.7    3.232      73.508
2015    3        7    20  28    5.8104   643.7    3.230      73.502
2015    3        7    20  33    5.8077   643.7    3.228      73.495
2015    3        7    20  39    5.8049   643.8    3.226      73.487
2015    3        7    20  44    5.8022   643.8    3.224      73.479
2015    3        7    20  49    5.7994   643.8    3.223      73.471
2015    3        7    20  55    5.7967   643.8    3.221      73.462
2015    3        7    21   0    5.7939   643.9    3.219      73.452
2015    3        7    21   5    5.7912   643.9    3.217      73.442
2015    3        7    21  11    5.7884   643.9    3.215      73.431
2015    3        7    21  16    5.7856   643.9    3.213      73.419
2015    3        7    21  21    5.7828   643.9    3.211      73.407
2015    3        7    21  27    5.7801   644.0    3.209      73.394
2015    3        7    21  32    5.7772   644.0    3.207      73.381
2015    3        7    21  38    5.7744   644.0    3.205      73.366
2015    3        7    21  43    5.7717   644.0    3.203      73.351
2015    3        7    21  48    5.7689   644.0    3.201      73.336
2015    3        7    21  54    5.7662   644.0    3.199      73.319
2015    3        7    21  59    5.7634   644.1    3.197      73.303
2015    3        7    22   4    5.7606   644.1    3.195      73.286
2015    3        7    22  10    5.7579   644.1    3.193      73.269
2015    3        7    22  15    5.7551   644.1    3.191      73.251
2015    3        7    22  21    5.7524   644.1    3.189      73.234
2015    3        7    22  26    5.7496   644.1    3.187      73.217
2015    3        7    22  31    5.7470   644.1    3.186      73.199
2015    3        7    22  37    5.7443   644.1    3.184      73.182
2015    3        7    22  42    5.7416   644.1    3.182      73.165
2015    3        7    22  47    5.7390   644.1    3.180      73.148
2015    3        7    22  53    5.7363   644.1    3.179      73.130
2015    3        7    22  58    5.7336   644.1    3.177      73.114
2015    3        7    23   4    5.7310   644.1    3.176      73.097
2015    3        7    23   9    5.7284   644.1    3.174      73.079
2015    3        7    23  14    5.7256   644.1    3.173      73.062
2015    3        7    23  20    5.7230   644.1    3.171      73.045
2015    3        7    23  25    5.7203   644.1    3.170      73.027
2015    3        7    23  30    5.7177   644.1    3.169      73.009
2015    3        7    23  36    5.7149   644.1    3.167      72.990
2015    3        7    23  41    5.7123   644.1    3.166      72.971
2015    3        7    23  46    5.7095   644.1    3.165      72.952
2015    3        7    23  52    5.7068   644.1    3.163      72.932
2015    3        7    23  57    5.7040   644.1    3.162      72.912
2015    3        8     0   3    5.7013   644.1    3.161      72.891
2015    3        8     0   8    5.6986   644.0    3.160      72.871
2015    3        8     0  13    5.6959   644.0    3.159      72.850
2015    3        8     0  19    5.6931   644.0    3.158      72.829
2015    3        8     0  24    5.6905   643.9    3.157      72.809
2015    3        8     0  29    5.6878   643.9    3.156      72.790
2015    3        8     0  35    5.6852   643.9    3.155      72.774
2015    3        8     0  40    5.6826   643.9    3.155      72.759
2015    3        8     0  46    5.6800   643.8    3.154      72.746
2015    3        8     0  51    5.6776   643.8    3.154      72.734
2015    3        8     0  56    5.6751   643.8    3.153      72.725
2015    3        8     1   2    5.6728   643.7    3.153      72.718
2015    3        8     1   7    5.6704   643.7    3.153      72.712
2015    3        8     1  12    5.6681   643.7    3.153      72.708
2015    3        8     1  18    5.6659   643.7    3.152      72.707
2015    3        8     1  23    5.6636   643.7    3.152      72.708
2015    3        8     1  28    5.6614   643.7    3.152      72.712
2015    3        8     1  34    5.6592   643.6    3.152      72.716
2015    3        8     1  39    5.6570   643.6    3.152      72.722
2015    3        8     1  45    5.6548   643.6    3.152      72.728
2015    3        8     1  50    5.6526   643.6    3.152      72.735
2015    3        8     1  55    5.6504   643.6    3.152      72.741
2015    3        8     2   1    5.6481   643.6    3.151      72.748
2015    3        8     2   6    5.6459   643.6    3.151      72.754
2015    3        8     2  11    5.6435   643.6    3.150      72.759
2015    3        8     2  17    5.6412   643.6    3.150      72.763
2015    3        8     2  22    5.6388   643.6    3.149      72.766
2015    3        8     2  28    5.6364   643.6    3.148      72.768
2015    3        8     2  33    5.6340   643.7    3.147      72.768
2015    3        8     2  38    5.6316   643.7    3.146      72.766
2015    3        8     2  44    5.6291   643.7    3.145      72.763
2015    3        8     2  49    5.6267   643.7    3.144      72.758
2015    3        8     2  54    5.6242   643.7    3.143      72.751
2015    3        8     3   0    5.6216   643.7    3.142      72.743
2015    3        8     3   5    5.6191   643.7    3.140      72.733
2015    3        8     3  10    5.6166   643.7    3.139      72.722
2015    3        8     3  16    5.6140   643.7    3.137      72.709
2015    3        8     3  21    5.6114   643.7    3.136      72.695
2015    3        8     3  27    5.6088   643.7    3.134      72.680
2015    3        8     3  32    5.6062   643.7    3.132      72.663
2015    3        8     3  37    5.6036   643.6    3.130      72.645
2015    3        8     3  43    5.6010   643.6    3.129      72.626
2015    3        8     3  48    5.5983   643.6    3.127      72.606
2015    3        8     3  53    5.5957   643.6    3.125      72.585
2015    3        8     3  59    5.5930   643.6    3.123      72.563
2015    3        8     4   4    5.5903   643.6    3.121      72.540
2015    3        8     4  10    5.5877   643.6    3.119      72.515
2015    3        8     4  15    5.5850   643.6    3.117      72.490
2015    3        8     4  20    5.5823   643.6    3.115      72.464
2015    3        8     4  26    5.5796   643.5    3.113      72.437
2015    3        8     4  31    5.5769   643.5    3.111      72.410
2015    3        8     4  36    5.5742   643.5    3.109      72.382
2015    3        8     4  42    5.5715   643.5    3.107      72.354
2015    3        8     4  47    5.5688   643.4    3.105      72.325
2015    3        8     4  52    5.5661   643.4    3.103      72.297
2015    3        8     4  58    5.5635   643.4    3.101      72.268
2015    3        8     5   3    5.5608   643.3    3.099      72.240
2015    3        8     5   9    5.5582   643.3    3.098      72.213
2015    3        8     5  14    5.5555   643.3    3.096      72.186
2015    3        8     5  19    5.5529   643.2    3.095      72.160
2015    3        8     5  25    5.5503   643.2    3.093      72.135
2015    3        8     5  30    5.5477   643.1    3.092      72.111
2015    3        8     5  35    5.5453   643.1    3.090      72.088
2015    3        8     5  41    5.5427   643.1    3.089      72.067
2015    3        8     5  46    5.5403   643.0    3.088      72.046
2015    3        8     5  52    5.5378   643.0    3.087      72.028
2015    3        8     5  57    5.5353   643.0    3.086      72.010
2015    3        8     6   2    5.5329   642.9    3.086      71.993
2015    3        8     6   8    5.5304   642.9    3.085      71.977
2015    3        8     6  13    5.5280   642.8    3.084      71.962
2015    3        8     6  18    5.5255   642.8    3.084      71.948
2015    3        8     6  24    5.5231   642.8    3.083      71.934
2015    3        8     6  29    5.5206   642.7    3.083      71.921
2015    3        8     6  35    5.5182   642.7    3.082      71.908
2015    3        8     6  40    5.5157   642.6    3.082      71.896
2015    3        8     6  45    5.5132   642.6    3.082      71.883
2015    3        8     6  51    5.5107   642.6    3.081      71.871
2015    3        8     6  56    5.5082   642.5    3.081      71.858
2015    3        8     7   1    5.5057   642.5    3.080      71.845
2015    3        8     7   7    5.5032   642.4    3.080      71.832
2015    3        8     7  12    5.5006   642.4    3.080      71.818
2015    3        8     7  17    5.4981   642.3    3.080      71.805
2015    3        8     7  23    5.4956   642.3    3.079      71.791
2015    3        8     7  28    5.4931   642.2    3.079      71.777
2015    3        8     7  34    5.4906   642.1    3.079      71.764
2015    3        8     7  39    5.4881   642.1    3.079      71.753
2015    3        8     7  44    5.4856   642.0    3.079      71.742
2015    3        8     7  50    5.4832   642.0    3.079      71.732
2015    3        8     7  55    5.4807   641.9    3.079      71.724
2015    3        8     8   0    5.4783   641.9    3.079      71.716
2015    3        8     8   6    5.4759   641.8    3.079      71.710
2015    3        8     8  11    5.4735   641.8    3.079      71.704
2015    3        8     8  17    5.4710   641.8    3.079      71.698
2015    3        8     8  22    5.4686   641.7    3.079      71.694
2015    3        8     8  27    5.4661   641.7    3.079      71.689
2015    3        8     8  33    5.4637   641.6    3.079      71.685
2015    3        8     8  38    5.4612   641.6    3.078      71.680
2015    3        8     8  43    5.4587   641.5    3.078      71.676
2015    3        8     8  49    5.4562   641.5    3.078      71.670
2015    3        8     8  54    5.4536   641.5    3.078      71.665
2015    3        8     8  59    5.4511   641.4    3.078      71.658
2015    3        8     9   5    5.4485   641.4    3.077      71.651
2015    3        8     9  10    5.4459   641.3    3.077      71.643
2015    3        8     9  16    5.4432   641.3    3.076      71.633
2015    3        8     9  21    5.4406   641.2    3.076      71.623
2015    3        8     9  26    5.4379   641.2    3.075      71.612
2015    3        8     9  32    5.4352   641.2    3.075      71.599
2015    3        8     9  37    5.4325   641.1    3.074      71.585
2015    3        8     9  42    5.4298   641.1    3.073      71.570
2015    3        8     9  48    5.4271   641.0    3.072      71.554
2015    3        8     9  53    5.4243   641.0    3.071      71.536
2015    3        8     9  59    5.4216   640.9    3.070      71.517
2015    3        8    10   4    5.4188   640.9    3.069      71.497
2015    3        8    10   9    5.4161   640.8    3.068      71.477
2015    3        8    10  15    5.4133   640.8    3.067      71.455
2015    3        8    10  20    5.4105   640.7    3.066      71.433
2015    3        8    10  25    5.4078   640.6    3.065      71.409
2015    3        8    10  31    5.4051   640.6    3.064      71.386
2015    3        8    10  36    5.4023   640.5    3.062      71.362
2015    3        8    10  42    5.3996   640.5    3.061      71.337
2015    3        8    10  47    5.3969   640.4    3.060      71.312
2015    3        8    10  52    5.3942   640.3    3.059      71.287
2015    3        8    10  58    5.3915   640.3    3.058      71.261
2015    3        8    11   3    5.3889   640.2    3.057      71.236
2015    3        8    11   8    5.3862   640.1    3.056      71.210
2015    3        8    11  14    5.3836   640.1    3.055      71.186
2015    3        8    11  19    5.3810   640.0    3.054      71.162
2015    3        8    11  24    5.3784   639.9    3.053      71.138
2015    3        8    11  30    5.3758   639.9    3.052      71.115
2015    3        8    11  35    5.3732   639.8    3.051      71.093
2015    3        8    11  41    5.3707   639.7    3.050      71.070
2015    3        8    11  46    5.3681   639.7    3.049      71.048
2015    3        8    11  51    5.3655   639.6    3.048      71.026
2015    3        8    11  57    5.3629   639.5    3.047      71.004
2015    3        8    12   2    5.3603   639.4    3.046      70.983
2015    3        8    12   7    5.3577   639.4    3.045      70.962
2015    3        8    12  13    5.3551   639.3    3.044      70.941
2015    3        8    12  18    5.3525   639.2    3.043      70.919
2015    3        8    12  24    5.3499   639.2    3.042      70.897
2015    3        8    12  29    5.3474   639.1    3.041      70.875
2015    3        8    12  34    5.3448   639.0    3.040      70.853
2015    3        8    12  40    5.3422   639.0    3.039      70.831
2015    3        8    12  45    5.3396   638.9    3.038      70.809
2015    3        8    12  50    5.3370   638.8    3.037      70.787
2015    3        8    12  56    5.3344   638.8    3.036      70.765
2015    3        8    13   1    5.3318   638.7    3.035      70.743
2015    3        8    13   6    5.3292   638.6    3.034      70.722
2015    3        8    13  12    5.3266   638.5    3.033      70.700
2015    3        8    13  17    5.3239   638.5    3.032      70.679
2015    3        8    13  23    5.3213   638.4    3.031      70.657
2015    3        8    13  28    5.3186   638.3    3.030      70.635
2015    3        8    13  33    5.3159   638.3    3.029      70.613
2015    3        8    13  39    5.3132   638.2    3.028      70.591
2015    3        8    13  44    5.3105   638.1    3.027      70.568
2015    3        8    13  49    5.3078   638.1    3.025      70.545
2015    3        8    13  55    5.3050   638.0    3.024      70.521
2015    3        8    14   0    5.3023   637.9    3.023      70.497
2015    3        8    14   6    5.2995   637.8    3.022      70.472
2015    3        8    14  11    5.2967   637.8    3.020      70.446
2015    3        8    14  16    5.2939   637.7    3.019      70.420
2015    3        8    14  22    5.2911   637.6    3.017      70.392
2015    3        8    14  27    5.2883   637.5    3.016      70.365
2015    3        8    14  32    5.2855   637.5    3.015      70.336
2015    3        8    14  38    5.2827   637.4    3.013      70.307
2015    3        8    14  43    5.2798   637.3    3.012      70.277
2015    3        8    14  48    5.2770   637.2    3.010      70.246
2015    3        8    14  54    5.2742   637.2    3.009      70.215
2015    3        8    14  59    5.2713   637.1    3.007      70.183
2015    3        8    15   5    5.2685   637.0    3.006      70.150
2015    3        8    15  10    5.2656   636.9    3.004      70.117
2015    3        8    15  15    5.2627   636.8    3.003      70.082
2015    3        8    15  21    5.2599   636.7    3.001      70.048
2015    3        8    15  26    5.2570   636.6    3.000      70.013
2015    3        8    15  31    5.2542   636.5    2.998      69.977
2015    3        8    15  37    5.2513   636.4    2.997      69.940
2015    3        8    15  42    5.2485   636.4    2.995      69.903
2015    3        8    15  48    5.2457   636.3    2.994      69.866
2015    3        8    15  53    5.2428   636.2    2.992      69.828
2015    3        8    15  58    5.2401   636.1    2.991      69.790
2015    3        8    16   4    5.2373   636.0    2.990      69.751
2015    3        8    16   9    5.2345   635.8    2.988      69.712
2015    3        8    16  14    5.2318   635.7    2.987      69.673
2015    3        8    16  20    5.2291   635.6    2.986      69.633
2015    3        8    16  25    5.2264   635.5    2.985      69.594
2015    3        8    16  31    5.2237   635.4    2.983      69.554
2015    3        8    16  36    5.2211   635.3    2.982      69.515
2015    3        8    16  41    5.2185   635.2    2.981      69.476
2015    3        8    16  47    5.2159   635.1    2.981      69.436
2015    3        8    16  52    5.2134   634.9    2.980      69.398
2015    3        8    16  57    5.2110   634.8    2.979      69.361
2015    3        8    17   3    5.2085   634.7    2.978      69.325
2015    3        8    17   8    5.2060   634.6    2.978      69.289
2015    3        8    17  13    5.2036   634.5    2.977      69.255
2015    3        8    17  19    5.2012   634.3    2.977      69.222
2015    3        8    17  24    5.1989   634.2    2.976      69.189
2015    3        8    17  30    5.1965   634.1    2.976      69.158
2015    3        8    17  35    5.1942   634.0    2.976      69.127
2015    3        8    17  40    5.1919   633.9    2.976      69.096
2015    3        8    17  46    5.1896   633.8    2.975      69.067
2015    3        8    17  51    5.1874   633.6    2.975      69.038
2015    3        8    17  56    5.1851   633.5    2.975      69.010
2015    3        8    18   2    5.1829   633.4    2.975      68.981
2015    3        8    18   7    5.1807   633.3    2.975      68.953
2015    3        8    18  13    5.1785   633.2    2.975      68.926
2015    3        8    18  18    5.1763   633.1    2.975      68.900
2015    3        8    18  23    5.1742   633.0    2.975      68.874
2015    3        8    18  29    5.1720   632.9    2.975      68.850
2015    3        8    18  34    5.1698   632.8    2.975      68.826
2015    3        8    18  39    5.1677   632.7    2.975      68.802
2015    3        8    18  45    5.1654   632.6    2.975      68.778
2015    3        8    18  50    5.1632   632.5    2.975      68.755
2015    3        8    18  55    5.1610   632.4    2.975      68.731
2015    3        8    19   1    5.1587   632.3    2.975      68.707
2015    3        8    19   6    5.1564   632.2    2.975      68.683
2015    3        8    19  12    5.1541   632.1    2.975      68.658
2015    3        8    19  17    5.1517   632.0    2.975      68.632
2015    3        8    19  22    5.1493   631.9    2.974      68.606
2015    3        8    19  28    5.1470   631.8    2.974      68.578
2015    3        8    19  33    5.1445   631.7    2.974      68.549
2015    3        8    19  38    5.1421   631.5    2.973      68.520
2015    3        8    19  44    5.1396   631.4    2.973      68.490
2015    3        8    19  49    5.1371   631.3    2.972      68.459
2015    3        8    19  55    5.1346   631.2    2.972      68.427
2015    3        8    20   0    5.1321   631.1    2.971      68.394
2015    3        8    20   5    5.1295   631.0    2.971      68.361
2015    3        8    20  11    5.1269   630.9    2.970      68.327
2015    3        8    20  16    5.1243   630.8    2.969      68.293
2015    3        8    20  21    5.1216   630.7    2.969      68.258
2015    3        8    20  27    5.1190   630.6    2.968      68.223
2015    3        8    20  32    5.1162   630.5    2.967      68.186
2015    3        8    20  37    5.1135   630.4    2.966      68.149
2015    3        8    20  43    5.1107   630.3    2.965      68.111
2015    3        8    20  48    5.1079   630.2    2.964      68.072
2015    3        8    20  54    5.1051   630.1    2.963      68.032
2015    3        8    20  59    5.1022   630.0    2.962      67.991
2015    3        8    21   4    5.0994   629.8    2.961      67.949
2015    3        8    21  10    5.0965   629.7    2.960      67.906
2015    3        8    21  15    5.0936   629.6    2.959      67.862
2015    3        8    21  20    5.0907   629.5    2.958      67.816
2015    3        8    21  26    5.0877   629.3    2.957      67.770
2015    3        8    21  31    5.0848   629.2    2.956      67.723
2015    3        8    21  37    5.0818   629.1    2.954      67.676
2015    3        8    21  42    5.0789   629.0    2.953      67.627
2015    3        8    21  47    5.0759   628.8    2.952      67.578
2015    3        8    21  53    5.0730   628.7    2.951      67.528
2015    3        8    21  58    5.0700   628.5    2.950      67.478
2015    3        8    22   3    5.0671   628.4    2.948      67.427
2015    3        8    22   9    5.0641   628.3    2.947      67.376
2015    3        8    22  14    5.0611   628.1    2.946      67.325
2015    3        8    22  20    5.0582   628.0    2.945      67.274
2015    3        8    22  25    5.0553   627.8    2.944      67.222
2015    3        8    22  30    5.0523   627.7    2.943      67.171
2015    3        8    22  36    5.0494   627.5    2.942      67.120
2015    3        8    22  41    5.0465   627.4    2.941      67.069
2015    3        8    22  46    5.0436   627.2    2.940      67.018
2015    3        8    22  52    5.0408   627.0    2.939      66.967
2015    3        8    22  57    5.0379   626.9    2.939      66.918
2015    3        8    23   2    5.0351   626.7    2.938      66.868
2015    3        8    23   8    5.0322   626.5    2.937      66.820
2015    3        8    23  13    5.0294   626.4    2.937      66.772
2015    3        8    23  19    5.0266   626.2    2.936      66.725
2015    3        8    23  24    5.0239   626.0    2.936      66.679
2015    3        8    23  29    5.0211   625.9    2.935      66.633
2015    3        8    23  35    5.0184   625.7    2.935      66.589
2015    3        8    23  40    5.0156   625.5    2.934      66.546
2015    3        8    23  45    5.0129   625.4    2.934      66.504
2015    3        8    23  51    5.0103   625.2    2.934      66.462
2015    3        8    23  56    5.0076   625.0    2.934      66.422
2015    3        9     0   2    5.0049   624.8    2.934      66.382
2015    3        9     0   7    5.0023   624.7    2.934      66.343
2015    3        9     0  12    4.9996   624.5    2.934      66.304
2015    3        9     0  18    4.9970   624.3    2.934      66.266
2015    3        9     0  23    4.9945   624.1    2.934      66.229
2015    3        9     0  28    4.9919   624.0    2.934      66.193
2015    3        9     0  34    4.9894   623.8    2.934      66.159
2015    3        9     0  39    4.9868   623.6    2.935      66.125
2015    3        9     0  44    4.9843   623.4    2.935      66.092
2015    3        9     0  50    4.9818   623.2    2.935      66.059
2015    3        9     0  55    4.9793   623.1    2.936      66.027
2015    3        9     1   1    4.9768   622.9    2.936      65.996
2015    3        9     1   6    4.9743   622.7    2.936      65.964
2015    3        9     1  11    4.9718   622.6    2.937      65.933
2015    3        9     1  17    4.9692   622.4    2.937      65.901
2015    3        9     1  22    4.9667   622.2    2.937      65.870
2015    3        9     1  27    4.9641   622.1    2.938      65.838
2015    3        9     1  33    4.9615   621.9    2.938      65.805
2015    3        9     1  38    4.9589   621.7    2.938      65.772
2015    3        9     1  44    4.9563   621.6    2.938      65.739
2015    3        9     1  49    4.9537   621.4    2.938      65.704
2015    3        9     1  54    4.9511   621.2    2.938      65.670
2015    3        9     2   0    4.9484   621.0    2.938      65.635
2015    3        9     2   5    4.9457   620.9    2.939      65.599
2015    3        9     2  10    4.9431   620.7    2.939      65.563
2015    3        9     2  16    4.9404   620.5    2.939      65.527
2015    3        9     2  21    4.9377   620.4    2.939      65.491
2015    3        9     2  26    4.9351   620.2    2.939      65.455
2015    3        9     2  32    4.9324   620.0    2.939      65.419
2015    3        9     2  37    4.9298   619.9    2.940      65.384
2015    3        9     2  43    4.9271   619.7    2.940      65.348
2015    3        9     2  48    4.9244   619.5    2.940      65.313
2015    3        9     2  53    4.9218   619.3    2.940      65.278
2015    3        9     2  59    4.9192   619.2    2.941      65.245
2015    3        9     3   4    4.9166   619.0    2.941      65.211
2015    3        9     3   9    4.9139   618.8    2.942      65.178
2015    3        9     3  15    4.9113   618.7    2.942      65.146
2015    3        9     3  20    4.9087   618.5    2.942      65.113
2015    3        9     3  26    4.9060   618.3    2.942      65.080
2015    3        9     3  31    4.9034   618.2    2.943      65.046
2015    3        9     3  36    4.9007   618.0    2.943      65.011
2015    3        9     3  42    4.8980   617.8    2.943      64.975
2015    3        9     3  47    4.8953   617.7    2.943      64.939
2015    3        9     3  52    4.8925   617.5    2.942      64.901
2015    3        9     3  58    4.8897   617.4    2.942      64.861
2015    3        9     4   3    4.8869   617.2    2.942      64.820
2015    3        9     4   9    4.8840   617.0    2.941      64.777
2015    3        9     4  14    4.8811   616.9    2.941      64.733
2015    3        9     4  19    4.8783   616.7    2.940      64.687
2015    3        9     4  25    4.8754   616.5    2.939      64.640
2015    3        9     4  30    4.8725   616.3    2.939      64.592
2015    3        9     4  35    4.8696   616.2    2.938      64.543
2015    3        9     4  41    4.8667   616.0    2.937      64.492
2015    3        9     4  46    4.8637   615.8    2.936      64.440
2015    3        9     4  51    4.8608   615.6    2.936      64.388
2015    3        9     4  57    4.8578   615.4    2.935      64.336
2015    3        9     5   2    4.8548   615.2    2.934      64.282
2015    3        9     5   8    4.8519   615.1    2.933      64.229
2015    3        9     5  13    4.8489   614.9    2.932      64.175
2015    3        9     5  18    4.8460   614.7    2.931      64.121
2015    3        9     5  24    4.8431   614.5    2.930      64.066
2015    3        9     5  29    4.8401   614.3    2.929      64.011
2015    3        9     5  34    4.8371   614.1    2.928      63.956
2015    3        9     5  40    4.8342   613.9    2.927      63.900
2015    3        9     5  45    4.8312   613.7    2.926      63.845
2015    3        9     5  51    4.8282   613.5    2.926      63.789
2015    3        9     5  56    4.8253   613.3    2.925      63.734
2015    3        9     6   1    4.8223   613.1    2.924      63.678
2015    3        9     6   7    4.8194   612.9    2.923      63.623
2015    3        9     6  12    4.8164   612.7    2.922      63.567
2015    3        9     6  17    4.8135   612.5    2.921      63.512
2015    3        9     6  23    4.8106   612.3    2.920      63.456
2015    3        9     6  28    4.8077   612.1    2.919      63.401
2015    3        9     6  33    4.8048   611.9    2.919      63.346
2015    3        9     6  39    4.8019   611.7    2.918      63.292
2015    3        9     6  44    4.7989   611.5    2.917      63.237
2015    3        9     6  50    4.7961   611.3    2.917      63.183
2015    3        9     6  55    4.7932   611.1    2.916      63.130
2015    3        9     7   0    4.7903   610.9    2.915      63.076
2015    3        9     7   6    4.7874   610.6    2.915      63.022
2015    3        9     7  11    4.7845   610.4    2.914      62.969
2015    3        9     7  16    4.7816   610.2    2.914      62.916
2015    3        9     7  22    4.7787   610.0    2.914      62.864
2015    3        9     7  27    4.7758   609.8    2.913      62.811
2015    3        9     7  33    4.7729   609.6    2.913      62.760
2015    3        9     7  38    4.7701   609.4    2.913      62.708
2015    3        9     7  43    4.7672   609.1    2.913      62.657
2015    3        9     7  49    4.7643   608.9    2.913      62.607
2015    3        9     7  54    4.7614   608.7    2.913      62.557
2015    3        9     7  59    4.7586   608.5    2.913      62.508
2015    3        9     8   5    4.7557   608.2    2.913      62.459
2015    3        9     8  10    4.7529   608.0    2.913      62.411
2015    3        9     8  16    4.7501   607.8    2.913      62.363
2015    3        9     8  21    4.7473   607.6    2.914      62.316
2015    3        9     8  26    4.7446   607.3    2.914      62.270
2015    3        9     8  32    4.7418   607.1    2.915      62.225
2015    3        9     8  37    4.7391   606.9    2.915      62.180
2015    3        9     8  42    4.7363   606.7    2.916      62.137
2015    3        9     8  48    4.7336   606.4    2.916      62.093
2015    3        9     8  53    4.7310   606.2    2.917      62.051
2015    3        9     8  58    4.7283   606.0    2.918      62.009
2015    3        9     9   4    4.7257   605.7    2.919      61.969
2015    3        9     9   9    4.7230   605.5    2.920      61.929
2015    3        9     9  15    4.7205   605.3    2.921      61.891
2015    3        9     9  20    4.7179   605.1    2.922      61.853
2015    3        9     9  25    4.7153   604.8    2.923      61.816
2015    3        9     9  31    4.7127   604.6    2.925      61.780
2015    3        9     9  36    4.7101   604.4    2.926      61.744
2015    3        9     9  41    4.7076   604.2    2.927      61.709
2015    3        9     9  47    4.7050   604.0    2.928      61.673
2015    3        9     9  52    4.7024   603.7    2.929      61.638
2015    3        9     9  58    4.6998   603.5    2.930      61.603
2015    3        9    10   3    4.6972   603.3    2.931      61.567
2015    3        9    10   8    4.6946   603.1    2.933      61.532
2015    3        9    10  14    4.6920   602.9    2.934      61.496
2015    3        9    10  19    4.6894   602.7    2.934      61.460
2015    3        9    10  24    4.6867   602.5    2.935      61.423
2015    3        9    10  30    4.6841   602.3    2.936      61.386
2015    3        9    10  35    4.6814   602.0    2.937      61.348
2015    3        9    10  40    4.6787   601.8    2.938      61.309
2015    3        9    10  46    4.6761   601.6    2.939      61.270
2015    3        9    10  51    4.6734   601.4    2.940      61.231
2015    3        9    10  57    4.6707   601.2    2.940      61.191
2015    3        9    11   2    4.6681   601.0    2.941      61.150
2015    3        9    11   7    4.6654   600.8    2.942      61.108
2015    3        9    11  13    4.6627   600.6    2.942      61.067
2015    3        9    11  18    4.6600   600.4    2.943      61.024
2015    3        9    11  23    4.6573   600.2    2.943      60.981
2015    3        9    11  29    4.6546   600.0    2.944      60.938
2015    3        9    11  34    4.6518   599.8    2.944      60.894
2015    3        9    11  40    4.6491   599.5    2.945      60.849
2015    3        9    11  45    4.6464   599.3    2.945      60.804
2015    3        9    11  50    4.6437   599.1    2.946      60.758
2015    3        9    11  56    4.6410   598.9    2.946      60.712
2015    3        9    12   1    4.6383   598.7    2.946      60.666
2015    3        9    12   6    4.6355   598.5    2.946      60.619
2015    3        9    12  12    4.6327   598.3    2.946      60.572
2015    3        9    12  17    4.6300   598.1    2.947      60.524
2015    3        9    12  22    4.6273   597.9    2.947      60.476
2015    3        9    12  28    4.6245   597.7    2.947      60.427
2015    3        9    12  33    4.6218   597.5    2.947      60.378
2015    3        9    12  39    4.6190   597.3    2.947      60.329
2015    3        9    12  44    4.6162   597.1    2.947      60.279
2015    3        9    12  49    4.6134   596.9    2.946      60.228
2015    3        9    12  55    4.6107   596.7    2.946      60.178
2015    3        9    13   0    4.6078   596.5    2.946      60.126
2015    3        9    13   5    4.6051   596.2    2.946      60.074
2015    3        9    13  11    4.6022   596.0    2.945      60.021
2015    3        9    13  16    4.5995   595.8    2.945      59.968
2015    3        9    13  22    4.5967   595.6    2.945      59.914
2015    3        9    13  27    4.5939   595.4    2.944      59.859
2015    3        9    13  32    4.5910   595.2    2.944      59.804
2015    3        9    13  38    4.5882   595.0    2.943      59.748
2015    3        9    13  43    4.5854   594.7    2.943      59.692
2015    3        9    13  48    4.5825   594.5    2.942      59.635
2015    3        9    13  54    4.5797   594.3    2.941      59.578
2015    3        9    13  59    4.5769   594.1    2.941      59.520
2015    3        9    14   5    4.5741   593.8    2.940      59.462
2015    3        9    14  10    4.5713   593.6    2.940      59.404
2015    3        9    14  15    4.5684   593.4    2.939      59.345
2015    3        9    14  21    4.5656   593.2    2.939      59.286
2015    3        9    14  26    4.5629   592.9    2.938      59.228
2015    3        9    14  31    4.5600   592.7    2.938      59.169
2015    3        9    14  37    4.5573   592.5    2.937      59.110
2015    3        9    14  42    4.5545   592.2    2.937      59.052
2015    3        9    14  47    4.5517   592.0    2.936      58.994
2015    3        9    14  53    4.5490   591.7    2.936      58.936
2015    3        9    14  58    4.5462   591.5    2.936      58.879
2015    3        9    15   4    4.5436   591.3    2.935      58.822
2015    3        9    15   9    4.5408   591.0    2.935      58.765
2015    3        9    15  14    4.5381   590.8    2.935      58.709
2015    3        9    15  20    4.5354   590.5    2.935      58.653
2015    3        9    15  25    4.5328   590.3    2.935      58.597
2015    3        9    15  30    4.5301   590.0    2.935      58.542
2015    3        9    15  36    4.5274   589.8    2.935      58.487
2015    3        9    15  41    4.5247   589.5    2.935      58.432
2015    3        9    15  47    4.5221   589.3    2.935      58.377
2015    3        9    15  52    4.5194   589.0    2.935      58.322
2015    3        9    15  57    4.5167   588.7    2.935      58.268
2015    3        9    16   3    4.5141   588.5    2.936      58.214
2015    3        9    16   8    4.5114   588.2    2.936      58.160
2015    3        9    16  13    4.5088   587.9    2.936      58.107
2015    3        9    16  19    4.5062   587.7    2.937      58.054
2015    3        9    16  24    4.5036   587.4    2.937      58.002
2015    3        9    16  30    4.5010   587.1    2.938      57.950
2015    3        9    16  35    4.4984   586.8    2.938      57.899
2015    3        9    16  40    4.4959   586.6    2.939      57.849
2015    3        9    16  46    4.4933   586.3    2.940      57.799
2015    3        9    16  51    4.4908   586.0    2.941      57.749
2015    3        9    16  56    4.4883   585.7    2.941      57.701
2015    3        9    17   2    4.4859   585.5    2.942      57.653
2015    3        9    17   7    4.4835   585.2    2.943      57.606
2015    3        9    17  12    4.4810   584.9    2.944      57.560
2015    3        9    17  18    4.4786   584.6    2.945      57.515
2015    3        9    17  23    4.4763   584.4    2.946      57.471
2015    3        9    17  29    4.4739   584.1    2.948      57.427
2015    3        9    17  34    4.4716   583.8    2.949      57.383
2015    3        9    17  39    4.4693   583.6    2.950      57.341
2015    3        9    17  45    4.4670   583.3    2.951      57.299
2015    3        9    17  50    4.4646   583.0    2.953      57.257
2015    3        9    17  55    4.4623   582.8    2.954      57.215
2015    3        9    18   1    4.4600   582.5    2.956      57.175
2015    3        9    18   6    4.4577   582.3    2.957      57.134
2015    3        9    18  12    4.4554   582.0    2.959      57.094
2015    3        9    18  17    4.4531   581.8    2.960      57.053
2015    3        9    18  22    4.4507   581.5    2.961      57.013
2015    3        9    18  28    4.4484   581.3    2.963      56.973
2015    3        9    18  33    4.4460   581.0    2.964      56.932
2015    3        9    18  38    4.4436   580.8    2.965      56.892
2015    3        9    18  44    4.4411   580.5    2.967      56.851
2015    3        9    18  49    4.4387   580.2    2.968      56.810
2015    3        9    18  54    4.4362   580.0    2.969      56.769
2015    3        9    19   0    4.4337   579.7    2.970      56.727
2015    3        9    19   5    4.4313   579.5    2.972      56.686
2015    3        9    19  11    4.4288   579.2    2.973      56.643
2015    3        9    19  16    4.4263   579.0    2.974      56.601
2015    3        9    19  21    4.4238   578.7    2.975      56.558
2015    3        9    19  27    4.4212   578.5    2.976      56.515
2015    3        9    19  32    4.4187   578.2    2.977      56.472
2015    3        9    19  37    4.4162   578.0    2.978      56.428
2015    3        9    19  43    4.4137   577.7    2.979      56.384
2015    3        9    19  48    4.4112   577.5    2.980      56.340
2015    3        9    19  54    4.4086   577.2    2.981      56.296
2015    3        9    19  59    4.4061   577.0    2.982      56.252
2015    3        9    20   4    4.4036   576.7    2.983      56.207
2015    3        9    20  10    4.4011   576.4    2.984      56.162
2015    3        9    20  15    4.3986   576.2    2.984      56.118
2015    3        9    20  20    4.3961   575.9    2.985      56.073
2015    3        9    20  26    4.3936   575.7    2.986      56.028
2015    3        9    20  31    4.3911   575.4    2.987      55.983
2015    3        9    20  36    4.3887   575.2    2.988      55.937
2015    3        9    20  42    4.3862   574.9    2.989      55.892
2015    3        9    20  47    4.3837   574.7    2.989      55.846
2015    3        9    20  53    4.3812   574.4    2.990      55.800
2015    3        9    20  58    4.3787   574.2    2.991      55.754
2015    3        9    21   3    4.3762   573.9    2.992      55.708
2015    3        9    21   9    4.3738   573.7    2.992      55.661
2015    3        9    21  14    4.3713   573.4    2.993      55.615
2015    3        9    21  19    4.3689   573.1    2.994      55.568
2015    3        9    21  25    4.3664   572.9    2.994      55.521
2015    3        9    21  30    4.3639   572.6    2.995      55.473
2015    3        9    21  36    4.3615   572.4    2.996      55.426
2015    3        9    21  41    4.3591   572.1    2.996      55.378
2015    3        9    21  46    4.3567   571.8    2.997      55.330
2015    3        9    21  52    4.3542   571.6    2.998      55.283
2015    3        9    21  57    4.3518   571.3    2.998      55.235
2015    3        9    22   2    4.3495   571.1    2.999      55.187
2015    3        9    22   8    4.3471   570.8    3.000      55.140
2015    3        9    22  13    4.3447   570.5    3.000      55.092
2015    3        9    22  19    4.3424   570.3    3.001      55.045
2015    3        9    22  24    4.3401   570.0    3.002      54.998
2015    3        9    22  29    4.3377   569.7    3.003      54.951
2015    3        9    22  35    4.3355   569.5    3.003      54.904
2015    3        9    22  40    4.3333   569.2    3.004      54.858
2015    3        9    22  45    4.3309   568.9    3.005      54.811
2015    3        9    22  51    4.3287   568.7    3.006      54.766
2015    3        9    22  56    4.3265   568.4    3.007      54.720
2015    3        9    23   1    4.3244   568.1    3.007      54.675
2015    3        9    23   7    4.3221   567.9    3.008      54.630
2015    3        9    23  12    4.3199   567.6    3.009      54.585
2015    3        9    23  18    4.3178   567.3    3.010      54.540
2015    3        9    23  23    4.3157   567.0    3.011      54.495
2015    3        9    23  28    4.3136   566.8    3.012      54.450
2015    3        9    23  34    4.3114   566.5    3.013      54.406
2015    3        9    23  39    4.3093   566.2    3.014      54.361
2015    3        9    23  44    4.3073   566.0    3.015      54.317
2015    3        9    23  50    4.3052   565.7    3.016      54.273
2015    3        9    23  55    4.3030   565.4    3.017      54.228
2015    3       10     0   1    4.3010   565.1    3.018      54.184
2015    3       10     0   6    4.2989   564.9    3.019      54.140
2015    3       10     0  11    4.2969   564.6    3.020      54.096
2015    3       10     0  17    4.2947   564.3    3.021      54.051
2015    3       10     0  22    4.2927   564.0    3.022      54.006
2015    3       10     0  27    4.2906   563.8    3.023      53.962
2015    3       10     0  33    4.2885   563.5    3.024      53.916
2015    3       10     0  38    4.2864   563.2    3.025      53.871
2015    3       10     0  43    4.2843   562.9    3.026      53.825
2015    3       10     0  49    4.2823   562.7    3.027      53.778
2015    3       10     0  54    4.2802   562.4    3.028      53.731
2015    3       10     1   0    4.2780   562.1    3.029      53.684
2015    3       10     1   5    4.2760   561.8    3.029      53.636
2015    3       10     1  10    4.2738   561.5    3.030      53.588
2015    3       10     1  16    4.2717   561.2    3.031      53.540
2015    3       10     1  21    4.2696   561.0    3.032      53.491
2015    3       10     1  26    4.2676   560.7    3.033      53.442
2015    3       10     1  32    4.2655   560.4    3.034      53.393
2015    3       10     1  37    4.2633   560.1    3.035      53.344
2015    3       10     1  43    4.2612   559.8    3.036      53.295
2015    3       10     1  48    4.2591   559.5    3.037      53.245
2015    3       10     1  53    4.2571   559.2    3.038      53.196
2015    3       10     1  59    4.2550   559.0    3.039      53.147
2015    3       10     2   4    4.2529   558.7    3.040      53.097
2015    3       10     2   9    4.2508   558.4    3.041      53.047
2015    3       10     2  15    4.2487   558.1    3.042      52.998
2015    3       10     2  20    4.2466   557.8    3.043      52.948
2015    3       10     2  26    4.2446   557.5    3.044      52.898
2015    3       10     2  31    4.2425   557.2    3.045      52.848
2015    3       10     2  36    4.2404   556.9    3.046      52.798
2015    3       10     2  42    4.2383   556.6    3.047      52.748
2015    3       10     2  47    4.2362   556.3    3.049      52.698
2015    3       10     2  52    4.2342   556.0    3.050      52.648
2015    3       10     2  58    4.2321   555.7    3.051      52.599
2015    3       10     3   3    4.2301   555.4    3.052      52.550
2015    3       10     3   8    4.2280   555.1    3.054      52.501
2015    3       10     3  14    4.2260   554.8    3.055      52.452
2015    3       10     3  19    4.2240   554.5    3.057      52.404
2015    3       10     3  25    4.2221   554.2    3.058      52.356
2015    3       10     3  30    4.2201   553.9    3.060      52.309
2015    3       10     3  35    4.2182   553.6    3.061      52.263
2015    3       10     3  41    4.2163   553.3    3.063      52.217
2015    3       10     3  46    4.2145   552.9    3.064      52.172
2015    3       10     3  51    4.2127   552.6    3.066      52.127
2015    3       10     3  57    4.2109   552.3    3.068      52.083
2015    3       10     4   2    4.2092   552.0    3.070      52.040
2015    3       10     4   8    4.2075   551.7    3.072      51.998
2015    3       10     4  13    4.2059   551.4    3.074      51.956
2015    3       10     4  18    4.2043   551.1    3.076      51.916
2015    3       10     4  24    4.2027   550.8    3.078      51.875
2015    3       10     4  29    4.2011   550.5    3.080      51.836
2015    3       10     4  34    4.1996   550.2    3.082      51.796
2015    3       10     4  40    4.1980   549.9    3.084      51.757
2015    3       10     4  45    4.1965   549.6    3.086      51.719
2015    3       10     4  50    4.1949   549.3    3.089      51.681
2015    3       10     4  56    4.1934   549.0    3.091      51.643
2015    3       10     5   1    4.1918   548.7    3.093      51.606
2015    3       10     5   7    4.1903   548.5    3.095      51.569
2015    3       10     5  12    4.1887   548.2    3.097      51.532
2015    3       10     5  17    4.1871   547.9    3.100      51.495
2015    3       10     5  23    4.1856   547.6    3.102      51.458
2015    3       10     5  28    4.1840   547.3    3.104      51.421
2015    3       10     5  33    4.1823   547.0    3.106      51.384
2015    3       10     5  39    4.1807   546.7    3.108      51.347
2015    3       10     5  44    4.1791   546.4    3.110      51.310
2015    3       10     5  50    4.1775   546.1    3.112      51.272
2015    3       10     5  55    4.1758   545.8    3.114      51.233
2015    3       10     6   0    4.1742   545.5    3.116      51.195
2015    3       10     6   6    4.1726   545.2    3.117      51.156
2015    3       10     6  11    4.1710   544.9    3.119      51.116
2015    3       10     6  16    4.1694   544.6    3.121      51.077
2015    3       10     6  22    4.1678   544.3    3.123      51.037
2015    3       10     6  27    4.1662   544.0    3.125      50.996
2015    3       10     6  33    4.1646   543.7    3.127      50.956
2015    3       10     6  38    4.1630   543.4    3.128      50.916
2015    3       10     6  43    4.1615   543.2    3.130      50.875
2015    3       10     6  49    4.1599   542.9    3.132      50.834
2015    3       10     6  54    4.1583   542.6    3.134      50.794
2015    3       10     6  59    4.1568   542.3    3.136      50.753
2015    3       10     7   5    4.1553   542.0    3.138      50.713
2015    3       10     7  10    4.1538   541.7    3.139      50.673
2015    3       10     7  15    4.1523   541.4    3.141      50.633
2015    3       10     7  21    4.1508   541.1    3.143      50.593
2015    3       10     7  26    4.1493   540.8    3.145      50.553
2015    3       10     7  32    4.1478   540.6    3.147      50.513
2015    3       10     7  37    4.1463   540.3    3.149      50.473
2015    3       10     7  42    4.1448   540.0    3.151      50.434
2015    3       10     7  48    4.1433   539.7    3.153      50.394
2015    3       10     7  53    4.1418   539.4    3.155      50.354
2015    3       10     7  58    4.1403   539.1    3.157      50.314
2015    3       10     8   4    4.1387   538.9    3.159      50.273
2015    3       10     8   9    4.1372   538.6    3.161      50.233
2015    3       10     8  15    4.1357   538.3    3.162      50.192
2015    3       10     8  20    4.1342   538.0    3.164      50.150
2015    3       10     8  25    4.1326   537.7    3.166      50.108
2015    3       10     8  31    4.1311   537.4    3.168      50.066
2015    3       10     8  36    4.1295   537.1    3.170      50.024
2015    3       10     8  41    4.1281   536.8    3.171      49.981
2015    3       10     8  47    4.1265   536.5    3.173      49.938
2015    3       10     8  52    4.1250   536.2    3.175      49.895
2015    3       10     8  57    4.1235   536.0    3.177      49.851
2015    3       10     9   3    4.1220   535.7    3.178      49.807
2015    3       10     9   8    4.1205   535.4    3.180      49.763
2015    3       10     9  14    4.1190   535.1    3.182      49.719
2015    3       10     9  19    4.1176   534.8    3.184      49.675
2015    3       10     9  24    4.1162   534.5    3.186      49.631
2015    3       10     9  30    4.1148   534.2    3.187      49.587
2015    3       10     9  35    4.1133   533.9    3.189      49.543
2015    3       10     9  40    4.1120   533.6    3.191      49.499
2015    3       10     9  46    4.1106   533.3    3.193      49.455
2015    3       10     9  51    4.1092   533.0    3.195      49.411
2015    3       10     9  57    4.1078   532.7    3.197      49.367
2015    3       10    10   2    4.1065   532.4    3.199      49.324
2015    3       10    10   7    4.1052   532.1    3.201      49.280
2015    3       10    10  13    4.1039   531.8    3.203      49.236
2015    3       10    10  18    4.1025   531.5    3.205      49.193
2015    3       10    10  23    4.1012   531.2    3.207      49.150
2015    3       10    10  29    4.0999   530.9    3.209      49.106
2015    3       10    10  34    4.0987   530.6    3.211      49.063
2015    3       10    10  40    4.0973   530.3    3.213      49.019
2015    3       10    10  45    4.0960   530.0    3.215      48.975
2015    3       10    10  50    4.0947   529.7    3.216      48.931
2015    3       10    10  56    4.0935   529.4    3.218      48.888
2015    3       10    11   1    4.0922   529.1    3.220      48.844
2015    3       10    11   6    4.0909   528.8    3.222      48.800
2015    3       10    11  12    4.0897   528.5    3.225      48.757
2015    3       10    11  17    4.0885   528.2    3.227      48.713
2015    3       10    11  22    4.0873   527.8    3.229      48.670
2015    3       10    11  28    4.0861   527.5    3.231      48.627
2015    3       10    11  33    4.0849   527.2    3.233      48.584
2015    3       10    11  39    4.0838   526.9    3.235      48.542
2015    3       10    11  44    4.0827   526.6    3.237      48.500
2015    3       10    11  49    4.0816   526.3    3.239      48.458
2015    3       10    11  55    4.0805   526.0    3.242      48.417
2015    3       10    12   0    4.0795   525.7    3.244      48.376
2015    3       10    12   5    4.0784   525.4    3.246      48.336
2015    3       10    12  11    4.0774   525.1    3.249      48.296
2015    3       10    12  16    4.0764   524.8    3.251      48.256
2015    3       10    12  22    4.0755   524.5    3.254      48.217
2015    3       10    12  27    4.0745   524.2    3.256      48.178
2015    3       10    12  32    4.0736   523.9    3.259      48.139
2015    3       10    12  38    4.0727   523.6    3.262      48.101
2015    3       10    12  43    4.0717   523.3    3.264      48.063
2015    3       10    12  48    4.0709   523.0    3.267      48.026
2015    3       10    12  54    4.0699   522.7    3.270      47.988
2015    3       10    12  59    4.0690   522.4    3.272      47.951
2015    3       10    13   4    4.0681   522.2    3.275      47.914
2015    3       10    13  10    4.0672   521.9    3.278      47.878
2015    3       10    13  15    4.0663   521.6    3.281      47.842
2015    3       10    13  21    4.0654   521.3    3.283      47.806
2015    3       10    13  26    4.0645   521.0    3.286      47.769
2015    3       10    13  31    4.0637   520.7    3.289      47.733
2015    3       10    13  37    4.0627   520.4    3.292      47.698
2015    3       10    13  42    4.0619   520.1    3.295      47.662
2015    3       10    13  47    4.0610   519.8    3.297      47.626
2015    3       10    13  53    4.0602   519.5    3.300      47.590
2015    3       10    13  58    4.0594   519.2    3.303      47.555
2015    3       10    14   4    4.0586   518.9    3.306      47.519
2015    3       10    14   9    4.0578   518.6    3.309      47.483
2015    3       10    14  14    4.0570   518.3    3.312      47.448
2015    3       10    14  20    4.0562   518.0    3.315      47.412
2015    3       10    14  25    4.0554   517.8    3.318      47.376
2015    3       10    14  30    4.0547   517.5    3.321      47.340
2015    3       10    14  36    4.0538   517.2    3.324      47.304
2015    3       10    14  41    4.0531   516.9    3.327      47.267
2015    3       10    14  46    4.0523   516.6    3.330      47.231
2015    3       10    14  52    4.0515   516.3    3.333      47.194
2015    3       10    14  57    4.0508   516.0    3.336      47.158
2015    3       10    15   3    4.0499   515.7    3.339      47.121
2015    3       10    15   8    4.0492   515.4    3.341      47.084
2015    3       10    15  13    4.0484   515.2    3.344      47.047
2015    3       10    15  19    4.0476   514.9    3.347      47.009
2015    3       10    15  24    4.0468   514.6    3.350      46.972
2015    3       10    15  29    4.0460   514.3    3.353      46.934
2015    3       10    15  35    4.0452   514.0    3.356      46.896
2015    3       10    15  40    4.0444   513.7    3.358      46.857
2015    3       10    15  46    4.0436   513.4    3.361      46.819
2015    3       10    15  51    4.0428   513.1    3.364      46.780
2015    3       10    15  56    4.0420   512.8    3.367      46.741
2015    3       10    16   2    4.0412   512.5    3.369      46.702
2015    3       10    16   7    4.0404   512.2    3.372      46.662
2015    3       10    16  12    4.0396   511.9    3.375      46.623
2015    3       10    16  18    4.0389   511.7    3.377      46.583
2015    3       10    16  23    4.0381   511.4    3.380      46.544
2015    3       10    16  29    4.0374   511.1    3.383      46.504
2015    3       10    16  34    4.0367   510.8    3.385      46.465
2015    3       10    16  39    4.0359   510.5    3.388      46.425
2015    3       10    16  45    4.0352   510.2    3.390      46.386
2015    3       10    16  50    4.0346   509.9    3.393      46.346
2015    3       10    16  55    4.0340   509.6    3.396      46.307
2015    3       10    17   1    4.0333   509.3    3.398      46.268
2015    3       10    17   6    4.0327   509.0    3.401      46.229
2015    3       10    17  11    4.0321   508.7    3.404      46.190
2015    3       10    17  17    4.0314   508.5    3.407      46.152
2015    3       10    17  22    4.0308   508.2    3.409      46.114
2015    3       10    17  28    4.0303   507.9    3.412      46.076
2015    3       10    17  33    4.0297   507.6    3.415      46.038
2015    3       10    17  38    4.0293   507.3    3.418      46.001
2015    3       10    17  44    4.0287   507.0    3.421      45.964
2015    3       10    17  49    4.0283   506.7    3.423      45.927
2015    3       10    17  54    4.0278   506.5    3.426      45.890
2015    3       10    18   0    4.0274   506.2    3.429      45.854
2015    3       10    18   5    4.0269   505.9    3.432      45.818
2015    3       10    18  11    4.0265   505.6    3.435      45.782
2015    3       10    18  16    4.0261   505.3    3.438      45.746
2015    3       10    18  21    4.0256   505.0    3.441      45.710
2015    3       10    18  27    4.0253   504.8    3.444      45.675
2015    3       10    18  32    4.0249   504.5    3.447      45.639
2015    3       10    18  37    4.0246   504.2    3.450      45.604
2015    3       10    18  43    4.0241   503.9    3.453      45.569
2015    3       10    18  48    4.0238   503.7    3.456      45.534
2015    3       10    18  53    4.0234   503.4    3.459      45.499
2015    3       10    18  59    4.0231   503.1    3.462      45.464
2015    3       10    19   4    4.0228   502.8    3.465      45.428
2015    3       10    19  10    4.0224   502.5    3.468      45.393
2015    3       10    19  15    4.0221   502.3    3.471      45.358
2015    3       10    19  20    4.0216   502.0    3.474      45.322
2015    3       10    19  26    4.0213   501.7    3.476      45.287
2015    3       10    19  31    4.0210   501.4    3.479      45.251
2015    3       10    19  36    4.0207   501.1    3.482      45.216
2015    3       10    19  42    4.0204   500.9    3.485      45.180
2015    3       10    19  47    4.0201   500.6    3.488      45.144
2015    3       10    19  53    4.0197   500.3    3.491      45.108
2015    3       10    19  58    4.0195   500.0    3.494      45.072
2015    3       10    20   3    4.0191   499.8    3.497      45.036
2015    3       10    20   9    4.0188   499.5    3.500      45.000
2015    3       10    20  14    4.0185   499.2    3.503      44.964
2015    3       10    20  19    4.0183   498.9    3.506      44.928
2015    3       10    20  25    4.0179   498.6    3.509      44.892
2015    3       10    20  30    4.0177   498.4    3.512      44.856
2015    3       10    20  36    4.0175   498.1    3.515      44.820
2015    3       10    20  41    4.0172   497.8    3.518      44.783
2015    3       10    20  46    4.0170   497.5    3.521      44.748
2015    3       10    20  52    4.0168   497.2    3.524      44.712
2015    3       10    20  57    4.0165   497.0    3.527      44.676
2015    3       10    21   2    4.0164   496.7    3.530      44.640
2015    3       10    21   8    4.0162   496.4    3.533      44.605
2015    3       10    21  13    4.0161   496.1    3.536      44.569
2015    3       10    21  18    4.0159   495.8    3.539      44.534
2015    3       10    21  24    4.0157   495.6    3.542      44.499
2015    3       10    21  29    4.0156   495.3    3.546      44.465
2015    3       10    21  35    4.0155   495.0    3.549      44.430
2015    3       10    21  40    4.0155   494.7    3.552      44.396
2015    3       10    21  45    4.0154   494.5    3.556      44.362
2015    3       10    21  51    4.0153   494.2    3.559      44.329
2015    3       10    21  56    4.0153   493.9    3.562      44.295
2015    3       10    22   1    4.0152   493.6    3.566      44.262
2015    3       10    22   7    4.0152   493.4    3.569      44.229
2015    3       10    22  12    4.0151   493.1    3.573      44.196
2015    3       10    22  18    4.0151   492.8    3.576      44.163
2015    3       10    22  23    4.0151   492.5    3.580      44.130
2015    3       10    22  28    4.0150   492.3    3.583      44.098
2015    3       10    22  34    4.0151   492.0    3.587      44.066
2015    3       10    22  39    4.0150   491.7    3.590      44.033
2015    3       10    22  44    4.0150   491.5    3.594      44.001
2015    3       10    22  50    4.0150   491.2    3.597      43.969
2015    3       10    22  55    4.0150   490.9    3.601      43.937
2015    3       10    23   0    4.0150   490.7    3.605      43.906
2015    3       10    23   6    4.0150   490.4    3.608      43.874
2015    3       10    23  11    4.0150   490.1    3.612      43.842
2015    3       10    23  17    4.0151   489.8    3.615      43.810
2015    3       10    23  22    4.0151   489.6    3.619      43.778
2015    3       10    23  27    4.0151   489.3    3.622      43.746
2015    3       10    23  33    4.0151   489.0    3.626      43.714
2015    3       10    23  38    4.0151   488.8    3.629      43.682
2015    3       10    23  43    4.0151   488.5    3.633      43.650
2015    3       10    23  49    4.0151   488.2    3.636      43.618
2015    3       10    23  54    4.0151   488.0    3.640      43.586
2015    3       11     0   0    4.0151   487.7    3.643      43.554
2015    3       11     0   5    4.0152   487.4    3.647      43.522
2015    3       11     0  10    4.0152   487.2    3.650      43.490
2015    3       11     0  16    4.0152   486.9    3.654      43.457
2015    3       11     0  21    4.0152   486.6    3.657      43.425
2015    3       11     0  26    4.0153   486.3    3.661      43.393
2015    3       11     0  32    4.0153   486.1    3.664      43.360
2015    3       11     0  37    4.0154   485.8    3.668      43.328
2015    3       11     0  43    4.0155   485.5    3.671      43.295
2015    3       11     0  48    4.0156   485.3    3.674      43.263
2015    3       11     0  53    4.0156   485.0    3.678      43.230
2015    3       11     0  59    4.0157   484.7    3.681      43.198
2015    3       11     1   4    4.0158   484.5    3.684      43.166
2015    3       11     1   9    4.0159   484.2    3.688      43.133
2015    3       11     1  15    4.0160   483.9    3.691      43.100
2015    3       11     1  20    4.0162   483.7    3.695      43.068
2015    3       11     1  25    4.0163   483.4    3.698      43.036
2015    3       11     1  31    4.0164   483.1    3.701      43.003
2015    3       11     1  36    4.0165   482.9    3.705      42.971
2015    3       11     1  42    4.0167   482.6    3.708      42.939
2015    3       11     1  47    4.0169   482.3    3.712      42.907
2015    3       11     1  52    4.0171   482.1    3.715      42.875
2015    3       11     1  58    4.0173   481.8    3.718      42.843
2015    3       11     2   3    4.0175   481.5    3.722      42.811
2015    3       11     2   8    4.0178   481.3    3.725      42.779
2015    3       11     2  14    4.0179   481.0    3.729      42.748
2015    3       11     2  19    4.0183   480.7    3.732      42.717
2015    3       11     2  25    4.0185   480.5    3.736      42.685
2015    3       11     2  30    4.0188   480.2    3.739      42.654
2015    3       11     2  35    4.0191   480.0    3.743      42.624
2015    3       11     2  41    4.0194   479.7    3.746      42.593
2015    3       11     2  46    4.0197   479.4    3.750      42.563
2015    3       11     2  51    4.0201   479.2    3.754      42.532
2015    3       11     2  57    4.0205   478.9    3.757      42.502
2015    3       11     3   2    4.0208   478.6    3.761      42.472
2015    3       11     3   7    4.0212   478.4    3.765      42.442
2015    3       11     3  13    4.0216   478.1    3.768      42.413
2015    3       11     3  18    4.0220   477.9    3.772      42.383
2015    3       11     3  24    4.0224   477.6    3.776      42.354
2015    3       11     3  29    4.0228   477.3    3.779      42.325
2015    3       11     3  34    4.0233   477.1    3.783      42.296
2015    3       11     3  40    4.0237   476.8    3.787      42.267
2015    3       11     3  45    4.0242   476.6    3.791      42.238
2015    3       11     3  50    4.0247   476.3    3.794      42.209
2015    3       11     3  56    4.0252   476.0    3.798      42.180
2015    3       11     4   1    4.0257   475.8    3.802      42.152
2015    3       11     4   7    4.0261   475.5    3.806      42.123
2015    3       11     4  12    4.0267   475.3    3.810      42.095
2015    3       11     4  17    4.0272   475.0    3.813      42.066
2015    3       11     4  23    4.0277   474.7    3.817      42.038
2015    3       11     4  28    4.0282   474.5    3.821      42.010
2015    3       11     4  33    4.0288   474.2    3.825      41.982
2015    3       11     4  39    4.0293   474.0    3.829      41.954
2015    3       11     4  44    4.0299   473.7    3.833      41.926
2015    3       11     4  50    4.0305   473.4    3.836      41.898
2015    3       11     4  55    4.0310   473.2    3.840      41.870
2015    3       11     5   0    4.0317   472.9    3.844      41.842
2015    3       11     5   6    4.0323   472.7    3.848      41.814
2015    3       11     5  11    4.0329   472.4    3.852      41.787
2015    3       11     5  16    4.0335   472.2    3.856      41.759
2015    3       11     5  22    4.0342   471.9    3.860      41.731
2015    3       11     5  27    4.0347   471.6    3.864      41.704
2015    3       11     5  32    4.0354   471.4    3.868      41.676
2015    3       11     5  38    4.0361   471.1    3.872      41.649
2015    3       11     5  43    4.0368   470.9    3.876      41.622
2015    3       11     5  49    4.0374   470.6    3.880      41.595
2015    3       11     5  54    4.0381   470.4    3.884      41.568
2015    3       11     5  59    4.0388   470.1    3.888      41.541
2015    3       11     6   5    4.0395   469.9    3.892      41.514
2015    3       11     6  10    4.0402   469.6    3.896      41.487
2015    3       11     6  15    4.0409   469.4    3.900      41.461
2015    3       11     6  21    4.0417   469.1    3.904      41.434
2015    3       11     6  26    4.0425   468.9    3.908      41.407
2015    3       11     6  32    4.0432   468.6    3.912      41.381
2015    3       11     6  37    4.0439   468.3    3.916      41.355
2015    3       11     6  42    4.0448   468.1    3.920      41.329
2015    3       11     6  48    4.0456   467.8    3.925      41.303
2015    3       11     6  53    4.0464   467.6    3.929      41.277
2015    3       11     6  58    4.0472   467.3    3.933      41.251
2015    3       11     7   4    4.0480   467.1    3.937      41.225
2015    3       11     7   9    4.0488   466.8    3.941      41.199
2015    3       11     7  14    4.0496   466.6    3.945      41.173
2015    3       11     7  20    4.0504   466.3    3.950      41.148
2015    3       11     7  25    4.0512   466.1    3.954      41.122
2015    3       11     7  31    4.0521   465.8    3.958      41.097
2015    3       11     7  36    4.0529   465.6    3.962      41.071
2015    3       11     7  41    4.0538   465.3    3.966      41.046
2015    3       11     7  47    4.0547   465.1    3.971      41.021
2015    3       11     7  52    4.0556   464.8    3.975      40.995
2015    3       11     7  57    4.0565   464.6    3.979      40.970
2015    3       11     8   3    4.0574   464.3    3.983      40.945
2015    3       11     8   8    4.0584   464.1    3.987      40.920
2015    3       11     8  14    4.0593   463.9    3.992      40.894
2015    3       11     8  19    4.0603   463.6    3.996      40.869
2015    3       11     8  24    4.0612   463.4    4.000      40.844
2015    3       11     8  30    4.0622   463.1    4.004      40.819
2015    3       11     8  35    4.0633   462.9    4.009      40.794
2015    3       11     8  40    4.0642   462.6    4.013      40.769
2015    3       11     8  46    4.0652   462.4    4.017      40.745
2015    3       11     8  51    4.0663   462.1    4.021      40.720
2015    3       11     8  57    4.0674   461.9    4.026      40.695
2015    3       11     9   2    4.0683   461.6    4.030      40.670
2015    3       11     9   7    4.0695   461.4    4.034      40.646
2015    3       11     9  13    4.0706   461.1    4.039      40.622
2015    3       11     9  18    4.0717   460.9    4.043      40.597
2015    3       11     9  23    4.0727   460.6    4.048      40.573
2015    3       11     9  29    4.0739   460.4    4.052      40.549
2015    3       11     9  34    4.0751   460.1    4.056      40.525
2015    3       11     9  39    4.0762   459.9    4.061      40.501
2015    3       11     9  45    4.0775   459.6    4.065      40.478
2015    3       11     9  50    4.0787   459.4    4.070      40.454
2015    3       11     9  56    4.0798   459.2    4.074      40.431
2015    3       11    10   1    4.0812   458.9    4.079      40.408
2015    3       11    10   6    4.0824   458.7    4.084      40.385
2015    3       11    10  12    4.0837   458.4    4.088      40.362
2015    3       11    10  17    4.0850   458.2    4.093      40.339
2015    3       11    10  22    4.0863   457.9    4.098      40.316
2015    3       11    10  28    4.0876   457.7    4.102      40.294
2015    3       11    10  33    4.0890   457.5    4.107      40.272
2015    3       11    10  39    4.0903   457.2    4.112      40.250
2015    3       11    10  44    4.0917   457.0    4.116      40.228
2015    3       11    10  49    4.0931   456.7    4.121      40.206
2015    3       11    10  55    4.0945   456.5    4.126      40.184
2015    3       11    11   0    4.0960   456.3    4.131      40.162
2015    3       11    11   5    4.0973   456.0    4.136      40.141
2015    3       11    11  11    4.0988   455.8    4.141      40.120
2015    3       11    11  16    4.1003   455.6    4.146      40.099
2015    3       11    11  21    4.1018   455.3    4.150      40.077
2015    3       11    11  27    4.1032   455.1    4.155      40.056
2015    3       11    11  32    4.1047   454.8    4.160      40.036
2015    3       11    11  38    4.1062   454.6    4.165      40.015
2015    3       11    11  43    4.1078   454.4    4.170      39.994
2015    3       11    11  48    4.1093   454.1    4.175      39.974
2015    3       11    11  54    4.1109   453.9    4.180      39.953
2015    3       11    11  59    4.1125   453.7    4.186      39.933
2015    3       11    12   4    4.1140   453.4    4.191      39.913
2015    3       11    12  10    4.1157   453.2    4.196      39.893
2015    3       11    12  15    4.1172   453.0    4.201      39.873
2015    3       11    12  21    4.1189   452.7    4.206      39.853
2015    3       11    12  26    4.1204   452.5    4.211      39.833
2015    3       11    12  31    4.1221   452.2    4.216      39.813
2015    3       11    12  37    4.1237   452.0    4.222      39.793
2015    3       11    12  42    4.1254   451.8    4.227      39.774
2015    3       11    12  47    4.1272   451.5    4.232      39.754
2015    3       11    12  53    4.1288   451.3    4.237      39.735
2015    3       11    12  58    4.1306   451.1    4.243      39.715
2015    3       11    13   3    4.1322   450.8    4.248      39.696
2015    3       11    13   9    4.1340   450.6    4.253      39.677
2015    3       11    13  14    4.1358   450.4    4.258      39.658
2015    3       11    13  20    4.1375   450.2    4.264      39.639
2015    3       11    13  25    4.1393   449.9    4.269      39.620
2015    3       11    13  30    4.1411   449.7    4.275      39.602
2015    3       11    13  36    4.1430   449.5    4.280      39.583
2015    3       11    13  41    4.1448   449.2    4.285      39.565
2015    3       11    13  46    4.1466   449.0    4.291      39.546
2015    3       11    13  52    4.1485   448.8    4.296      39.528
2015    3       11    13  57    4.1504   448.5    4.302      39.510
2015    3       11    14   3    4.1524   448.3    4.307      39.492
2015    3       11    14   8    4.1543   448.1    4.313      39.474
2015    3       11    14  13    4.1562   447.9    4.318      39.456
2015    3       11    14  19    4.1582   447.6    4.324      39.438
2015    3       11    14  24    4.1602   447.4    4.329      39.421
2015    3       11    14  29    4.1622   447.2    4.335      39.403
2015    3       11    14  35    4.1641   447.0    4.340      39.386
2015    3       11    14  40    4.1662   446.7    4.346      39.368
2015    3       11    14  46    4.1682   446.5    4.352      39.351
2015    3       11    14  51    4.1703   446.3    4.357      39.334
2015    3       11    14  56    4.1725   446.1    4.363      39.317
2015    3       11    15   2    4.1745   445.8    4.368      39.300
2015    3       11    15   7    4.1766   445.6    4.374      39.283
2015    3       11    15  12    4.1789   445.4    4.380      39.266
2015    3       11    15  18    4.1811   445.2    4.385      39.249
2015    3       11    15  23    4.1832   445.0    4.391      39.232
2015    3       11    15  28    4.1854   444.7    4.397      39.215
2015    3       11    15  34    4.1876   444.5    4.403      39.199
2015    3       11    15  39    4.1898   444.3    4.408      39.182
2015    3       11    15  45    4.1921   444.1    4.414      39.166
2015    3       11    15  50    4.1944   443.9    4.420      39.149
2015    3       11    15  55    4.1968   443.6    4.425      39.133
2015    3       11    16   1    4.1990   443.4    4.431      39.116
2015    3       11    16   6    4.2015   443.2    4.437      39.099
2015    3       11    16  11    4.2037   443.0    4.443      39.083
2015    3       11    16  17    4.2061   442.8    4.448      39.067
2015    3       11    16  22    4.2085   442.6    4.454      39.050
2015    3       11    16  28    4.2109   442.3    4.460      39.034
2015    3       11    16  33    4.2134   442.1    4.466      39.018
2015    3       11    16  38    4.2159   441.9    4.472      39.001
2015    3       11    16  44    4.2183   441.7    4.477      38.985
2015    3       11    16  49    4.2207   441.5    4.483      38.969
2015    3       11    16  54    4.2234   441.3    4.489      38.953
2015    3       11    17   0    4.2259   441.1    4.495      38.937
2015    3       11    17   5    4.2284   440.8    4.501      38.920
2015    3       11    17  10    4.2309   440.6    4.507      38.904
2015    3       11    17  16    4.2335   440.4    4.513      38.888
2015    3       11    17  21    4.2362   440.2    4.518      38.872
2015    3       11    17  27    4.2387   440.0    4.524      38.856
2015    3       11    17  32    4.2414   439.8    4.530      38.840
2015    3       11    17  37    4.2440   439.6    4.536      38.824
2015    3       11    17  43    4.2467   439.4    4.542      38.808
2015    3       11    17  48    4.2494   439.2    4.548      38.792
2015    3       11    17  53    4.2521   439.0    4.554      38.777
2015    3       11    17  59    4.2549   438.8    4.560      38.761
2015    3       11    18   4    4.2575   438.6    4.566      38.745
2015    3       11    18  10    4.2603   438.3    4.572      38.730
2015    3       11    18  15    4.2630   438.1    4.578      38.714
2015    3       11    18  20    4.2658   437.9    4.585      38.699
2015    3       11    18  26    4.2687   437.7    4.591      38.684
2015    3       11    18  31    4.2715   437.5    4.597      38.669
2015    3       11    18  36    4.2742   437.3    4.603      38.653
2015    3       11    18  42    4.2772   437.1    4.609      38.638
2015    3       11    18  47    4.2799   436.9    4.616      38.624
2015    3       11    18  53    4.2828   436.7    4.622      38.609
2015    3       11    18  58    4.2858   436.5    4.628      38.594
2015    3       11    19   3    4.2888   436.3    4.635      38.580
2015    3       11    19   9    4.2917   436.1    4.641      38.566
2015    3       11    19  14    4.2945   435.9    4.648      38.552
2015    3       11    19  19    4.2975   435.7    4.654      38.538
2015    3       11    19  25    4.3005   435.5    4.661      38.524
2015    3       11    19  30    4.3037   435.3    4.667      38.511
2015    3       11    19  35    4.3067   435.1    4.674      38.497
2015    3       11    19  41    4.3097   434.9    4.681      38.484
2015    3       11    19  46    4.3127   434.7    4.688      38.471
2015    3       11    19  52    4.3159   434.5    4.694      38.459
2015    3       11    19  57    4.3190   434.3    4.701      38.446
2015    3       11    20   2    4.3221   434.1    4.708      38.434
2015    3       11    20   8    4.3253   433.9    4.715      38.422
2015    3       11    20  13    4.3285   433.8    4.722      38.411
2015    3       11    20  18    4.3317   433.6    4.730      38.399
2015    3       11    20  24    4.3349   433.4    4.737      38.388
2015    3       11    20  29    4.3380   433.2    4.744      38.378
2015    3       11    20  35    4.3413   433.0    4.752      38.367
2015    3       11    20  40    4.3447   432.8    4.759      38.357
2015    3       11    20  45    4.3479   432.6    4.767      38.347
2015    3       11    20  51    4.3513   432.4    4.774      38.338
2015    3       11    20  56    4.3548   432.2    4.782      38.329
2015    3       11    21   1    4.3581   432.0    4.790      38.320
2015    3       11    21   7    4.3616   431.8    4.798      38.312
2015    3       11    21  12    4.3651   431.7    4.806      38.304
2015    3       11    21  18    4.3686   431.5    4.814      38.296
2015    3       11    21  23    4.3721   431.3    4.822      38.289
2015    3       11    21  28    4.3755   431.1    4.830      38.282
2015    3       11    21  34    4.3790   430.9    4.838      38.275
2015    3       11    21  39    4.3826   430.7    4.846      38.269
2015    3       11    21  44    4.3863   430.6    4.855      38.263
2015    3       11    21  50    4.3899   430.4    4.863      38.257
2015    3       11    21  55    4.3936   430.2    4.872      38.252
2015    3       11    22   0    4.3975   430.0    4.881      38.247
2015    3       11    22   6    4.4010   429.8    4.889      38.243
2015    3       11    22  11    4.4048   429.7    4.898      38.238
2015    3       11    22  17    4.4087   429.5    4.907      38.234
2015    3       11    22  22    4.4124   429.3    4.916      38.231
2015    3       11    22  27    4.4164   429.1    4.925      38.227
2015    3       11    22  33    4.4201   428.9    4.934      38.224
2015    3       11    22  38    4.4240   428.8    4.943      38.221
2015    3       11    22  43    4.4279   428.6    4.952      38.219
2015    3       11    22  49    4.4318   428.4    4.962      38.217
2015    3       11    22  54    4.4358   428.3    4.971      38.215
2015    3       11    23   0    4.4398   428.1    4.980      38.213
2015    3       11    23   5    4.4440   427.9    4.990      38.211
2015    3       11    23  10    4.4479   427.7    4.999      38.210
2015    3       11    23  16    4.4520   427.6    5.009      38.209
2015    3       11    23  21    4.4563   427.4    5.018      38.208
2015    3       11    23  26    4.4602   427.2    5.028      38.208
2015    3       11    23  32    4.4646   427.1    5.037      38.207
2015    3       11    23  37    4.4686   426.9    5.047      38.207
2015    3       11    23  42    4.4730   426.7    5.057      38.207
2015    3       11    23  48    4.4773   426.6    5.067      38.208
2015    3       11    23  53    4.4816   426.4    5.076      38.208
2015    3       11    23  59    4.4859   426.3    5.086      38.209
2015    3       12     0   4    4.4902   426.1    5.096      38.210
2015    3       12     0   9    4.4946   426.0    5.106      38.211
2015    3       12     0  15    4.4988   425.8    5.115      38.212
2015    3       12     0  20    4.5034   425.6    5.125      38.213
2015    3       12     0  25    4.5076   425.5    5.135      38.214
2015    3       12     0  31    4.5120   425.3    5.145      38.215
2015    3       12     0  36    4.5164   425.2    5.154      38.216
2015    3       12     0  42    4.5208   425.0    5.164      38.217
2015    3       12     0  47    4.5253   424.9    5.174      38.218
2015    3       12     0  52    4.5297   424.7    5.183      38.218
2015    3       12     0  58    4.5344   424.6    5.193      38.219
2015    3       12     1   3    4.5386   424.5    5.202      38.219
2015    3       12     1   8    4.5431   424.3    5.212      38.219
2015    3       12     1  14    4.5476   424.2    5.221      38.219
2015    3       12     1  19    4.5521   424.0    5.230      38.219
2015    3       12     1  25    4.5566   423.9    5.240      38.218
2015    3       12     1  30    4.5610   423.8    5.249      38.217
2015    3       12     1  35    4.5656   423.6    5.258      38.216
2015    3       12     1  41    4.5701   423.5    5.268      38.215
2015    3       12     1  46    4.5748   423.3    5.277      38.213
2015    3       12     1  51    4.5793   423.2    5.286      38.212
2015    3       12     1  57    4.5839   423.1    5.295      38.210
2015    3       12     2   2    4.5884   422.9    5.304      38.208
2015    3       12     2   7    4.5930   422.8    5.314      38.206
2015    3       12     2  13    4.5974   422.7    5.323      38.204
2015    3       12     2  18    4.6022   422.5    5.332      38.202
2015    3       12     2  24    4.6068   422.4    5.341      38.199
2015    3       12     2  29    4.6112   422.3    5.350      38.197
2015    3       12     2  34    4.6160   422.1    5.359      38.195
2015    3       12     2  40    4.6207   422.0    5.369      38.193
2015    3       12     2  45    4.6251   421.9    5.378      38.190
2015    3       12     2  50    4.6300   421.7    5.387      38.188
2015    3       12     2  56    4.6345   421.6    5.397      38.186
2015    3       12     3   1    4.6394   421.5    5.406      38.184
2015    3       12     3   7    4.6440   421.4    5.415      38.182
2015    3       12     3  12    4.6489   421.2    5.425      38.180
2015    3       12     3  17    4.6535   421.1    5.434      38.179
2015    3       12     3  23    4.6582   421.0    5.444      38.177
2015    3       12     3  28    4.6631   420.9    5.453      38.176
2015    3       12     3  33    4.6681   420.7    5.463      38.175
2015    3       12     3  39    4.6727   420.6    5.473      38.174
2015    3       12     3  44    4.6776   420.5    5.483      38.173
2015    3       12     3  49    4.6827   420.4    5.493      38.173
2015    3       12     3  55    4.6874   420.3    5.503      38.173
2015    3       12     4   0    4.6925   420.2    5.513      38.173
2015    3       12     4   6    4.6973   420.0    5.523      38.174
2015    3       12     4  11    4.7025   419.9    5.533      38.175
2015    3       12     4  16    4.7073   419.8    5.544      38.176
2015    3       12     4  22    4.7124   419.7    5.554      38.178
2015    3       12     4  27    4.7174   419.6    5.565      38.180
2015    3       12     4  32    4.7227   419.5    5.576      38.183
2015    3       12     4  38    4.7278   419.4    5.586      38.186
2015    3       12     4  43    4.7328   419.3    5.597      38.189
2015    3       12     4  49    4.7382   419.1    5.608      38.193
2015    3       12     4  54    4.7434   419.0    5.620      38.198
2015    3       12     4  59    4.7485   418.9    5.631      38.203
2015    3       12     5   5    4.7539   418.8    5.642      38.208
2015    3       12     5  10    4.7590   418.7    5.654      38.213
2015    3       12     5  15    4.7644   418.6    5.665      38.219
2015    3       12     5  21    4.7697   418.5    5.677      38.226
2015    3       12     5  26    4.7752   418.4    5.689      38.232
2015    3       12     5  32    4.7805   418.3    5.700      38.239
2015    3       12     5  37    4.7859   418.2    5.712      38.247
2015    3       12     5  42    4.7915   418.1    5.724      38.255
2015    3       12     5  48    4.7970   418.1    5.736      38.263
2015    3       12     5  53    4.8025   418.0    5.749      38.271
2015    3       12     5  58    4.8079   417.9    5.761      38.280
2015    3       12     6   4    4.8134   417.8    5.773      38.289
2015    3       12     6   9    4.8190   417.7    5.786      38.298
2015    3       12     6  14    4.8246   417.6    5.798      38.307
2015    3       12     6  20    4.8302   417.5    5.811      38.317
2015    3       12     6  25    4.8358   417.4    5.823      38.326
2015    3       12     6  31    4.8416   417.3    5.836      38.337
2015    3       12     6  36    4.8471   417.3    5.848      38.347
2015    3       12     6  41    4.8528   417.2    5.861      38.358
2015    3       12     6  47    4.8585   417.1    5.874      38.369
2015    3       12     6  52    4.8644   417.0    5.887      38.380
2015    3       12     6  57    4.8701   416.9    5.899      38.391
2015    3       12     7   3    4.8758   416.9    5.912      38.402
2015    3       12     7   8    4.8817   416.8    5.925      38.413
2015    3       12     7  14    4.8875   416.7    5.938      38.425
2015    3       12     7  19    4.8933   416.7    5.950      38.436
2015    3       12     7  24    4.8991   416.6    5.963      38.448
2015    3       12     7  30    4.9050   416.5    5.976      38.459
2015    3       12     7  35    4.9106   416.4    5.989      38.471
2015    3       12     7  40    4.9165   416.4    6.001      38.483
2015    3       12     7  46    4.9225   416.3    6.014      38.494
2015    3       12     7  51    4.9281   416.2    6.026      38.505
2015    3       12     7  56    4.9341   416.2    6.039      38.516
2015    3       12     8   2    4.9398   416.1    6.051      38.527
2015    3       12     8   7    4.9458   416.1    6.063      38.537
2015    3       12     8  13    4.9516   416.0    6.075      38.547
2015    3       12     8  18    4.9575   415.9    6.087      38.557
2015    3       12     8  23    4.9632   415.9    6.100      38.567
2015    3       12     8  29    4.9691   415.8    6.112      38.576
2015    3       12     8  34    4.9748   415.8    6.123      38.585
2015    3       12     8  39    4.9806   415.7    6.135      38.594
2015    3       12     8  45    4.9866   415.6    6.147      38.602
2015    3       12     8  50    4.9923   415.6    6.159      38.611
2015    3       12     8  56    4.9983   415.5    6.171      38.618
2015    3       12     9   1    5.0040   415.5    6.182      38.626
2015    3       12     9   6    5.0098   415.4    6.194      38.633
2015    3       12     9  12    5.0158   415.4    6.205      38.641
2015    3       12     9  17    5.0216   415.3    6.217      38.648
2015    3       12     9  22    5.0274   415.2    6.229      38.655
2015    3       12     9  28    5.0334   415.2    6.240      38.661
2015    3       12     9  33    5.0392   415.1    6.252      38.668
2015    3       12     9  39    5.0450   415.1    6.263      38.675
2015    3       12     9  44    5.0509   415.0    6.275      38.682
2015    3       12     9  49    5.0568   415.0    6.286      38.689
2015    3       12     9  55    5.0627   414.9    6.298      38.697
2015    3       12    10   0    5.0685   414.9    6.309      38.704
2015    3       12    10   5    5.0744   414.9    6.321      38.712
2015    3       12    10  11    5.0803   414.8    6.332      38.719
2015    3       12    10  16    5.0863   414.8    6.344      38.727
2015    3       12    10  21    5.0922   414.7    6.356      38.735
2015    3       12    10  27    5.0981   414.7    6.367      38.743
2015    3       12    10  32    5.1040   414.6    6.379      38.752
2015    3       12    10  38    5.1098   414.6    6.390      38.761
2015    3       12    10  43    5.1158   414.6    6.402      38.770
2015    3       12    10  48    5.1217   414.5    6.413      38.779
2015    3       12    10  54    5.1277   414.5    6.424      38.789
2015    3       12    10  59    5.1335   414.5    6.436      38.799
2015    3       12    11   4    5.1395   414.4    6.447      38.809
2015    3       12    11  10    5.1454   414.4    6.458      38.819
2015    3       12    11  15    5.1513   414.4    6.470      38.829
2015    3       12    11  21    5.1572   414.3    6.481      38.839
2015    3       12    11  26    5.1631   414.3    6.492      38.849
2015    3       12    11  31    5.1690   414.3    6.503      38.860
2015    3       12    11  37    5.1749   414.2    6.514      38.870
2015    3       12    11  42    5.1809   414.2    6.526      38.880
2015    3       12    11  47    5.1869   414.2    6.537      38.890
2015    3       12    11  53    5.1928   414.2    6.548      38.901
2015    3       12    11  58    5.1987   414.1    6.559      38.911
2015    3       12    12   3    5.2046   414.1    6.570      38.921
2015    3       12    12   9    5.2105   414.1    6.581      38.931
2015    3       12    12  14    5.2164   414.1    6.592      38.941
2015    3       12    12  20    5.2223   414.1    6.603      38.950
2015    3       12    12  25    5.2283   414.0    6.614      38.960
2015    3       12    12  30    5.2342   414.0    6.624      38.970
2015    3       12    12  36    5.2402   414.0    6.635      38.979
2015    3       12    12  41    5.2462   414.0    6.646      38.989
2015    3       12    12  46    5.2521   414.0    6.657      38.998
2015    3       12    12  52    5.2581   414.0    6.668      39.007
2015    3       12    12  57    5.2641   413.9    6.679      39.016
2015    3       12    13   3    5.2700   413.9    6.690      39.026
2015    3       12    13   8    5.2760   413.9    6.700      39.035
2015    3       12    13  13    5.2820   413.9    6.711      39.044
2015    3       12    13  19    5.2880   413.9    6.722      39.053
2015    3       12    13  24    5.2939   413.9    6.733      39.062
2015    3       12    13  29    5.2999   413.9    6.743      39.070
2015    3       12    13  35    5.3059   413.9    6.754      39.079
2015    3       12    13  40    5.3120   413.9    6.765      39.087
2015    3       12    13  46    5.3179   413.8    6.776      39.096
2015    3       12    13  51    5.3240   413.8    6.786      39.105
2015    3       12    13  56    5.3300   413.8    6.797      39.113
2015    3       12    14   2    5.3360   413.8    6.807      39.121
2015    3       12    14   7    5.3420   413.8    6.818      39.130
2015    3       12    14  12    5.3480   413.8    6.829      39.138
2015    3       12    14  18    5.3541   413.8    6.839      39.147
2015    3       12    14  23    5.3601   413.8    6.849      39.155
2015    3       12    14  28    5.3662   413.8    6.860      39.163
2015    3       12    14  34    5.3722   413.8    6.870      39.171
2015    3       12    14  39    5.3782   413.8    6.880      39.179
2015    3       12    14  45    5.3843   413.8    6.891      39.186
2015    3       12    14  50    5.3903   413.8    6.901      39.194
2015    3       12    14  55    5.3964   413.8    6.911      39.202
2015    3       12    15   1    5.4024   413.8    6.921      39.209
2015    3       12    15   6    5.4085   413.8    6.931      39.217
2015    3       12    15  11    5.4146   413.8    6.942      39.224
2015    3       12    15  17    5.4207   413.8    6.952      39.232
2015    3       12    15  22    5.4268   413.8    6.962      39.239
2015    3       12    15  28    5.4329   413.8    6.972      39.247
2015    3       12    15  33    5.4390   413.8    6.982      39.254
2015    3       12    15  38    5.4451   413.8    6.992      39.261
2015    3       12    15  44    5.4513   413.8    7.002      39.269
2015    3       12    15  49    5.4574   413.8    7.012      39.276
2015    3       12    15  54    5.4636   413.8    7.023      39.284
2015    3       12    16   0    5.4698   413.8    7.033      39.292
2015    3       12    16   5    5.4760   413.8    7.043      39.299
2015    3       12    16  10    5.4822   413.8    7.054      39.307
2015    3       12    16  16    5.4884   413.8    7.064      39.316
2015    3       12    16  21    5.4947   413.8    7.075      39.324
2015    3       12    16  27    5.5009   413.8    7.085      39.333
2015    3       12    16  32    5.5072   413.8    7.096      39.342
2015    3       12    16  37    5.5135   413.8    7.107      39.352
2015    3       12    16  43    5.5198   413.8    7.118      39.361
2015    3       12    16  48    5.5261   413.8    7.129      39.371
2015    3       12    16  53    5.5324   413.8    7.140      39.382
2015    3       12    16  59    5.5387   413.9    7.151      39.393
2015    3       12    17   4    5.5450   413.9    7.162      39.405
2015    3       12    17  10    5.5512   413.9    7.174      39.419
2015    3       12    17  15    5.5575   413.9    7.185      39.433
2015    3       12    17  20    5.5637   413.9    7.196      39.448
2015    3       12    17  26    5.5700   413.9    7.207      39.464
2015    3       12    17  31    5.5762   413.9    7.218      39.481
2015    3       12    17  36    5.5824   414.0    7.230      39.498
2015    3       12    17  42    5.5886   414.0    7.241      39.515
2015    3       12    17  47    5.5947   414.0    7.252      39.533
2015    3       12    17  53    5.6009   414.0    7.262      39.551
2015    3       12    17  58    5.6070   414.1    7.273      39.570
2015    3       12    18   3    5.6130   414.1    7.284      39.589
2015    3       12    18   9    5.6191   414.1    7.294      39.608
2015    3       12    18  14    5.6251   414.1    7.304      39.628
2015    3       12    18  19    5.6311   414.2    7.314      39.648
2015    3       12    18  25    5.6371   414.2    7.324      39.667
2015    3       12    18  30    5.6431   414.2    7.334      39.686
2015    3       12    18  35    5.6490   414.2    7.343      39.705
2015    3       12    18  41    5.6549   414.3    7.353      39.723
2015    3       12    18  46    5.6608   414.3    7.362      39.742
2015    3       12    18  52    5.6666   414.3    7.371      39.759
2015    3       12    18  57    5.6725   414.4    7.380      39.777
2015    3       12    19   2    5.6783   414.4    7.388      39.794
2015    3       12    19   8    5.6841   414.4    7.397      39.811
2015    3       12    19  13    5.6898   414.5    7.405      39.828
2015    3       12    19  18    5.6956   414.5    7.414      39.844
2015    3       12    19  24    5.7014   414.5    7.422      39.860
2015    3       12    19  29    5.7071   414.6    7.430      39.875
2015    3       12    19  35    5.7129   414.6    7.438      39.890
2015    3       12    19  40    5.7186   414.6    7.445      39.905
2015    3       12    19  45    5.7243   414.7    7.453      39.919
2015    3       12    19  51    5.7300   414.7    7.460      39.934
2015    3       12    19  56    5.7357   414.7    7.468      39.947
2015    3       12    20   1    5.7414   414.8    7.475      39.961
2015    3       12    20   7    5.7470   414.8    7.482      39.974
2015    3       12    20  12    5.7527   414.9    7.490      39.987
2015    3       12    20  17    5.7584   414.9    7.497      40.000
2015    3       12    20  23    5.7640   414.9    7.504      40.012
2015    3       12    20  28    5.7697   415.0    7.511      40.025
2015    3       12    20  34    5.7754   415.0    7.517      40.036
2015    3       12    20  39    5.7810   415.0    7.524      40.048
2015    3       12    20  44    5.7867   415.1    7.531      40.060
2015    3       12    20  50    5.7924   415.1    7.538      40.071
2015    3       12    20  55    5.7980   415.2    7.544      40.083
2015    3       12    21   0    5.8037   415.2    7.551      40.094
2015    3       12    21   6    5.8093   415.2    7.557      40.105
2015    3       12    21  11    5.8150   415.3    7.564      40.115
2015    3       12    21  17    5.8207   415.3    7.570      40.126
2015    3       12    21  22    5.8263   415.3    7.577      40.137
2015    3       12    21  27    5.8320   415.4    7.583      40.147
2015    3       12    21  33    5.8377   415.4    7.589      40.158
2015    3       12    21  38    5.8435   415.5    7.596      40.168
2015    3       12    21  43    5.8491   415.5    7.602      40.179
2015    3       12    21  49    5.8549   415.5    7.608      40.189
2015    3       12    21  54    5.8606   415.6    7.614      40.200
2015    3       12    21  59    5.8664   415.6    7.621      40.210
2015    3       12    22   5    5.8723   415.7    7.627      40.221
2015    3       12    22  10    5.8780   415.7    7.633      40.232
2015    3       12    22  16    5.8839   415.8    7.640      40.243
2015    3       12    22  21    5.8897   415.8    7.646      40.254
2015    3       12    22  26    5.8956   415.8    7.652      40.265
2015    3       12    22  32    5.9015   415.9    7.659      40.277
2015    3       12    22  37    5.9074   415.9    7.665      40.289
2015    3       12    22  42    5.9133   416.0    7.672      40.301
2015    3       12    22  48    5.9193   416.0    7.678      40.314
2015    3       12    22  53    5.9254   416.1    7.685      40.327
2015    3       12    22  59    5.9315   416.1    7.692      40.340
2015    3       12    23   4    5.9375   416.2    7.698      40.354
2015    3       12    23   9    5.9436   416.2    7.705      40.369
2015    3       12    23  15    5.9498   416.3    7.712      40.383
2015    3       12    23  20    5.9559   416.3    7.720      40.399
2015    3       12    23  25    5.9621   416.4    7.727      40.415
2015    3       12    23  31    5.9683   416.4    7.734      40.431
2015    3       12    23  36    5.9746   416.5    7.742      40.448
2015    3       12    23  41    5.9809   416.5    7.750      40.466
2015    3       12    23  47    5.9872   416.6    7.758      40.484
2015    3       12    23  52    5.9935   416.6    7.766      40.503
2015    3       12    23  58    5.9998   416.7    7.774      40.523
2015    3       13     0   3    6.0061   416.7    7.783      40.543
2015    3       13     0   8    6.0125   416.8    7.792      40.564
2015    3       13     0  14    6.0188   416.9    7.801      40.586
2015    3       13     0  19    6.0252   416.9    7.810      40.608
2015    3       13     0  24    6.0314   417.0    7.819      40.632
2015    3       13     0  30    6.0377   417.0    7.829      40.657
2015    3       13     0  35    6.0440   417.1    7.838      40.684
2015    3       13     0  41    6.0501   417.2    7.848      40.711
2015    3       13     0  46    6.0563   417.3    7.857      40.740
2015    3       13     0  51    6.0625   417.3    7.867      40.770
2015    3       13     0  57    6.0685   417.4    7.876      40.801
2015    3       13     1   2    6.0745   417.5    7.886      40.832
2015    3       13     1   7    6.0805   417.5    7.895      40.864
2015    3       13     1  13    6.0865   417.6    7.904      40.897
2015    3       13     1  18    6.0923   417.7    7.913      40.930
2015    3       13     1  23    6.0982   417.8    7.922      40.964
2015    3       13     1  29    6.1040   417.9    7.930      40.998
2015    3       13     1  34    6.1098   417.9    7.938      41.033
2015    3       13     1  40    6.1155   418.0    7.946      41.067
2015    3       13     1  45    6.1211   418.1    7.954      41.102
2015    3       13     1  50    6.1268   418.2    7.962      41.135
2015    3       13     1  56    6.1323   418.3    7.969      41.169
2015    3       13     2   1    6.1379   418.3    7.976      41.201
2015    3       13     2   6    6.1434   418.4    7.983      41.234
2015    3       13     2  12    6.1489   418.5    7.989      41.266
2015    3       13     2  17    6.1543   418.6    7.995      41.297
2015    3       13     2  23    6.1597   418.7    8.001      41.329
2015    3       13     2  28    6.1651   418.7    8.007      41.359
2015    3       13     2  33    6.1705   418.8    8.013      41.390
2015    3       13     2  39    6.1758   418.9    8.018      41.420
2015    3       13     2  44    6.1812   419.0    8.023      41.449
2015    3       13     2  49    6.1865   419.1    8.028      41.478
2015    3       13     2  55    6.1918   419.1    8.033      41.507
2015    3       13     3   0    6.1971   419.2    8.038      41.535
2015    3       13     3   5    6.2024   419.3    8.042      41.563
2015    3       13     3  11    6.2077   419.4    8.046      41.590
2015    3       13     3  16    6.2130   419.5    8.050      41.618
2015    3       13     3  22    6.2182   419.5    8.054      41.645
2015    3       13     3  27    6.2235   419.6    8.058      41.672
2015    3       13     3  32    6.2288   419.7    8.062      41.698
2015    3       13     3  38    6.2340   419.8    8.065      41.724
2015    3       13     3  43    6.2393   419.9    8.069      41.750
2015    3       13     3  48    6.2445   419.9    8.072      41.776
2015    3       13     3  54    6.2498   420.0    8.075      41.801
2015    3       13     3  59    6.2549   420.1    8.078      41.826
2015    3       13     4   5    6.2602   420.2    8.081      41.851
2015    3       13     4  10    6.2655   420.3    8.084      41.875
2015    3       13     4  15    6.2706   420.4    8.087      41.899
2015    3       13     4  21    6.2759   420.4    8.089      41.923
2015    3       13     4  26    6.2812   420.5    8.092      41.947
2015    3       13     4  31    6.2864   420.6    8.094      41.971
2015    3       13     4  37    6.2916   420.7    8.097      41.995
2015    3       13     4  42    6.2968   420.8    8.099      42.018
2015    3       13     4  47    6.3020   420.9    8.101      42.041
2015    3       13     4  53    6.3072   421.0    8.103      42.064
2015    3       13     4  58    6.3125   421.1    8.106      42.087
2015    3       13     5   4    6.3178   421.1    8.108      42.110
2015    3       13     5   9    6.3231   421.2    8.110      42.133
2015    3       13     5  14    6.3282   421.3    8.112      42.155
2015    3       13     5  20    6.3335   421.4    8.114      42.178
2015    3       13     5  25    6.3389   421.5    8.116      42.200
2015    3       13     5  30    6.3441   421.6    8.118      42.223
2015    3       13     5  36    6.3494   421.7    8.120      42.246
2015    3       13     5  41    6.3548   421.8    8.122      42.268
2015    3       13     5  47    6.3602   421.8    8.124      42.291
2015    3       13     5  52    6.3654   421.9    8.126      42.314
2015    3       13     5  57    6.3708   422.0    8.128      42.337
2015    3       13     6   3    6.3762   422.1    8.130      42.360
2015    3       13     6   8    6.3816   422.2    8.132      42.384
2015    3       13     6  13    6.3871   422.3    8.134      42.407
2015    3       13     6  19    6.3926   422.4    8.136      42.431
2015    3       13     6  24    6.3980   422.5    8.138      42.456
2015    3       13     6  29    6.4036   422.6    8.140      42.480
2015    3       13     6  35    6.4092   422.7    8.143      42.505
2015    3       13     6  40    6.4147   422.8    8.145      42.531
2015    3       13     6  46    6.4203   422.9    8.148      42.556
2015    3       13     6  51    6.4258   423.0    8.151      42.582
2015    3       13     6  56    6.4314   423.1    8.154      42.609
2015    3       13     7   2    6.4370   423.2    8.157      42.636
2015    3       13     7   7    6.4428   423.3    8.160      42.664
2015    3       13     7  12    6.4485   423.4    8.163      42.692
2015    3       13     7  18    6.4541   423.5    8.167      42.720
2015    3       13     7  23    6.4598   423.6    8.170      42.750
2015    3       13     7  29    6.4657   423.7    8.174      42.780
2015    3       13     7  34    6.4714   423.8    8.178      42.810
2015    3       13     7  39    6.4770   423.9    8.183      42.841
2015    3       13     7  45    6.4827   424.0    8.188      42.872
2015    3       13     7  50    6.4886   424.1    8.192      42.905
2015    3       13     7  55    6.4942   424.2    8.198      42.938
2015    3       13     8   1    6.5000   424.3    8.203      42.973
2015    3       13     8   6    6.5055   424.4    8.209      43.008
2015    3       13     8  11    6.5112   424.5    8.214      43.044
2015    3       13     8  17    6.5169   424.7    8.220      43.082
2015    3       13     8  22    6.5224   424.8    8.227      43.121
2015    3       13     8  28    6.5280   424.9    8.233      43.161
2015    3       13     8  33    6.5335   425.0    8.239      43.202
2015    3       13     8  38    6.5389   425.1    8.246      43.245
2015    3       13     8  44    6.5443   425.3    8.252      43.290
2015    3       13     8  49    6.5496   425.4    8.258      43.337
2015    3       13     8  54    6.5549   425.5    8.264      43.385
2015    3       13     9   0    6.5602   425.6    8.270      43.435
2015    3       13     9   5    6.5655   425.8    8.276      43.487
2015    3       13     9  11    6.5705   425.9    8.282      43.539
2015    3       13     9  16    6.5757   426.0    8.287      43.593
2015    3       13     9  21    6.5807   426.2    8.292      43.647
2015    3       13     9  27    6.5857   426.3    8.297      43.702
2015    3       13     9  32    6.5907   426.4    8.302      43.757
2015    3       13     9  37    6.5956   426.6    8.306      43.813
2015    3       13     9  43    6.6005   426.7    8.310      43.870
2015    3       13     9  48    6.6053   426.9    8.314      43.926
2015    3       13     9  53    6.6101   427.0    8.317      43.983
2015    3       13     9  59    6.6148   427.1    8.320      44.040
2015    3       13    10   4    6.6196   427.3    8.323      44.096
2015    3       13    10  10    6.6243   427.4    8.326      44.153
2015    3       13    10  15    6.6290   427.5    8.328      44.208
2015    3       13    10  20    6.6336   427.6    8.330      44.264
2015    3       13    10  26    6.6383   427.8    8.332      44.319
2015    3       13    10  31    6.6429   427.9    8.333      44.373
2015    3       13    10  36    6.6475   428.0    8.335      44.427
2015    3       13    10  42    6.6521   428.2    8.336      44.480
2015    3       13    10  47    6.6567   428.3    8.337      44.533
2015    3       13    10  53    6.6613   428.4    8.337      44.586
2015    3       13    10  58    6.6659   428.6    8.338      44.637
2015    3       13    11   3    6.6705   428.7    8.338      44.688
2015    3       13    11   9    6.6751   428.8    8.338      44.739
2015    3       13    11  14    6.6796   429.0    8.338      44.789
2015    3       13    11  19    6.6842   429.1    8.338      44.838
2015    3       13    11  25    6.6888   429.2    8.338      44.887
2015    3       13    11  30    6.6934   429.4    8.337      44.935
2015    3       13    11  35    6.6979   429.5    8.337      44.982
2015    3       13    11  41    6.7025   429.6    8.336      45.029
2015    3       13    11  46    6.7071   429.8    8.335      45.075
2015    3       13    11  52    6.7116   429.9    8.334      45.121
2015    3       13    11  57    6.7162   430.0    8.333      45.166
2015    3       13    12   2    6.7208   430.2    8.332      45.211
2015    3       13    12   8    6.7254   430.3    8.331      45.255
2015    3       13    12  13    6.7300   430.4    8.329      45.299
2015    3       13    12  18    6.7346   430.6    8.328      45.343
2015    3       13    12  24    6.7391   430.7    8.326      45.386
2015    3       13    12  29    6.7438   430.8    8.325      45.429
2015    3       13    12  35    6.7484   431.0    8.323      45.471
2015    3       13    12  40    6.7530   431.1    8.322      45.513
2015    3       13    12  45    6.7576   431.2    8.320      45.555
2015    3       13    12  51    6.7623   431.4    8.319      45.597
2015    3       13    12  56    6.7670   431.5    8.317      45.638
2015    3       13    13   1    6.7717   431.7    8.315      45.679
2015    3       13    13   7    6.7764   431.8    8.314      45.720
2015    3       13    13  12    6.7811   431.9    8.312      45.761
2015    3       13    13  17    6.7859   432.1    8.310      45.802
2015    3       13    13  23    6.7907   432.2    8.309      45.842
2015    3       13    13  28    6.7955   432.3    8.307      45.883
2015    3       13    13  34    6.8002   432.5    8.305      45.923
2015    3       13    13  39    6.8051   432.6    8.304      45.963
2015    3       13    13  44    6.8099   432.7    8.302      46.003
2015    3       13    13  50    6.8148   432.9    8.301      46.043
2015    3       13    13  55    6.8196   433.0    8.299      46.083
2015    3       13    14   0    6.8246   433.2    8.298      46.123
2015    3       13    14   6    6.8294   433.3    8.297      46.163
2015    3       13    14  11    6.8343   433.4    8.295      46.203
2015    3       13    14  17    6.8392   433.6    8.294      46.244
2015    3       13    14  22    6.8441   433.7    8.293      46.284
2015    3       13    14  27    6.8489   433.9    8.293      46.324
2015    3       13    14  33    6.8538   434.0    8.292      46.365
2015    3       13    14  38    6.8588   434.2    8.292      46.405
2015    3       13    14  43    6.8637   434.3    8.291      46.446
2015    3       13    14  49    6.8686   434.4    8.291      46.487
2015    3       13    14  54    6.8735   434.6    8.292      46.529
2015    3       13    15   0    6.8783   434.7    8.292      46.571
2015    3       13    15   5    6.8833   434.9    8.293      46.613
2015    3       13    15  10    6.8880   435.0    8.294      46.656
2015    3       13    15  16    6.8930   435.2    8.295      46.699
2015    3       13    15  21    6.8977   435.3    8.297      46.743
2015    3       13    15  26    6.9025   435.4    8.299      46.788
2015    3       13    15  32    6.9075   435.6    8.301      46.833
2015    3       13    15  37    6.9123   435.7    8.304      46.881
2015    3       13    15  42    6.9171   435.9    8.307      46.929
2015    3       13    15  48    6.9218   436.0    8.310      46.980
2015    3       13    15  53    6.9265   436.2    8.314      47.033
2015    3       13    15  59    6.9315   436.4    8.317      47.087
2015    3       13    16   4    6.9363   436.5    8.321      47.144
2015    3       13    16   9    6.9410   436.7    8.326      47.203
2015    3       13    16  15    6.9456   436.8    8.330      47.266
2015    3       13    16  20    6.9503   437.0    8.334      47.332
2015    3       13    16  25    6.9550   437.2    8.339      47.400
2015    3       13    16  31    6.9597   437.3    8.343      47.472
2015    3       13    16  36    6.9645   437.5    8.347      47.546
2015    3       13    16  42    6.9692   437.7    8.351      47.622
2015    3       13    16  47    6.9738   437.9    8.355      47.700
2015    3       13    16  52    6.9783   438.1    8.358      47.781
2015    3       13    16  58    6.9827   438.2    8.361      47.862
2015    3       13    17   3    6.9874   438.4    8.364      47.944
2015    3       13    17   8    6.9917   438.6    8.367      48.026
2015    3       13    17  14    6.9962   438.8    8.369      48.109
2015    3       13    17  19    7.0004   439.0    8.371      48.192
2015    3       13    17  24    7.0048   439.2    8.372      48.276
2015    3       13    17  30    7.0090   439.4    8.373      48.359
2015    3       13    17  35    7.0134   439.6    8.374      48.442
2015    3       13    17  41    7.0174   439.8    8.374      48.523
2015    3       13    17  46    7.0217   440.0    8.374      48.604
2015    3       13    17  51    7.0258   440.1    8.374      48.684
2015    3       13    17  57    7.0299   440.3    8.373      48.762
2015    3       13    18   2    7.0338   440.5    8.372      48.840
2015    3       13    18   7    7.0380   440.7    8.371      48.916
2015    3       13    18  13    7.0419   440.9    8.370      48.992
2015    3       13    18  18    7.0459   441.1    8.368      49.066
2015    3       13    18  24    7.0497   441.3    8.366      49.140
2015    3       13    18  29    7.0537   441.5    8.364      49.213
2015    3       13    18  34    7.0576   441.7    8.361      49.285
2015    3       13    18  40    7.0615   441.9    8.359      49.355
2015    3       13    18  45    7.0655   442.1    8.356      49.425
2015    3       13    18  50    7.0694   442.3    8.353      49.495
2015    3       13    18  56    7.0733   442.5    8.351      49.563
2015    3       13    19   1    7.0770   442.7    8.348      49.631
2015    3       13    19   7    7.0809   442.9    8.345      49.698
2015    3       13    19  12    7.0848   443.1    8.341      49.765
2015    3       13    19  17    7.0887   443.3    8.338      49.831
2015    3       13    19  23    7.0927   443.5    8.335      49.896
2015    3       13    19  28    7.0965   443.6    8.332      49.961
2015    3       13    19  33    7.1005   443.8    8.328      50.026
2015    3       13    19  39    7.1044   444.0    8.325      50.090
2015    3       13    19  44    7.1084   444.2    8.322      50.154
2015    3       13    19  49    7.1124   444.4    8.319      50.218
2015    3       13    19  55    7.1165   444.6    8.315      50.282
2015    3       13    20   0    7.1207   444.8    8.312      50.345
2015    3       13    20   6    7.1247   445.0    8.309      50.409
2015    3       13    20  11    7.1290   445.2    8.306      50.473
2015    3       13    20  16    7.1333   445.4    8.303      50.536
2015    3       13    20  22    7.1376   445.6    8.301      50.600
2015    3       13    20  27    7.1420   445.8    8.298      50.665
2015    3       13    20  32    7.1465   446.0    8.296      50.730
2015    3       13    20  38    7.1509   446.2    8.294      50.797
2015    3       13    20  43    7.1554   446.4    8.292      50.865
2015    3       13    20  49    7.1599   446.6    8.290      50.935
2015    3       13    20  54    7.1644   446.8    8.287      51.006
2015    3       13    20  59    7.1689   447.1    8.286      51.079
2015    3       13    21   5    7.1734   447.3    8.284      51.153
2015    3       13    21  10    7.1779   447.5    8.282      51.228
2015    3       13    21  15    7.1822   447.7    8.279      51.304
2015    3       13    21  21    7.1866   448.0    8.277      51.381
2015    3       13    21  26    7.1909   448.2    8.275      51.458
2015    3       13    21  32    7.1951   448.4    8.273      51.535
2015    3       13    21  37    7.1992   448.7    8.270      51.613
2015    3       13    21  42    7.2033   448.9    8.267      51.690
2015    3       13    21  48    7.2072   449.1    8.265      51.768
2015    3       13    21  53    7.2111   449.4    8.262      51.845
2015    3       13    21  58    7.2149   449.6    8.259      51.921
2015    3       13    22   4    7.2186   449.8    8.255      51.996
2015    3       13    22   9    7.2223   450.1    8.252      52.070
2015    3       13    22  14    7.2260   450.3    8.249      52.144
2015    3       13    22  20    7.2295   450.5    8.246      52.217
2015    3       13    22  25    7.2330   450.8    8.242      52.289
2015    3       13    22  31    7.2365   451.0    8.239      52.361
2015    3       13    22  36    7.2400   451.2    8.236      52.433
2015    3       13    22  41    7.2434   451.5    8.232      52.504
2015    3       13    22  47    7.2468   451.7    8.229      52.575
2015    3       13    22  52    7.2502   451.9    8.226      52.647
2015    3       13    22  57    7.2535   452.2    8.223      52.719
2015    3       13    23   3    7.2569   452.4    8.220      52.792
2015    3       13    23   8    7.2602   452.6    8.217      52.864
2015    3       13    23  14    7.2636   452.9    8.214      52.937
2015    3       13    23  19    7.2669   453.1    8.212      53.010
2015    3       13    23  24    7.2702   453.3    8.209      53.083
2015    3       13    23  30    7.2736   453.6    8.207      53.158
2015    3       13    23  35    7.2769   453.8    8.204      53.235
2015    3       13    23  40    7.2804   454.1    8.202      53.313
2015    3       13    23  46    7.2835   454.3    8.199      53.392
2015    3       13    23  51    7.2870   454.5    8.197      53.472
2015    3       13    23  57    7.2903   454.8    8.194      53.554
2015    3       14     0   2    7.2934   455.0    8.191      53.636
2015    3       14     0   7    7.2968   455.3    8.188      53.719
2015    3       14     0  13    7.2999   455.5    8.185      53.803
2015    3       14     0  18    7.3030   455.8    8.181      53.886
2015    3       14     0  23    7.3063   456.1    8.177      53.969
2015    3       14     0  29    7.3094   456.3    8.173      54.052
2015    3       14     0  34    7.3125   456.6    8.169      54.135
2015    3       14     0  39    7.3155   456.8    8.164      54.218
2015    3       14     0  45    7.3184   457.1    8.159      54.300
2015    3       14     0  50    7.3211   457.4    8.154      54.383
2015    3       14     0  56    7.3241   457.6    8.148      54.463
2015    3       14     1   1    7.3267   457.9    8.142      54.542
2015    3       14     1   6    7.3294   458.2    8.136      54.621
2015    3       14     1  12    7.3321   458.5    8.129      54.698
2015    3       14     1  17    7.3347   458.7    8.122      54.774
2015    3       14     1  22    7.3374   459.0    8.115      54.849
2015    3       14     1  28    7.3399   459.3    8.108      54.923
2015    3       14     1  33    7.3422   459.6    8.100      54.996
2015    3       14     1  39    7.3446   459.9    8.092      55.068
2015    3       14     1  44    7.3471   460.1    8.084      55.139
2015    3       14     1  49    7.3492   460.4    8.076      55.210
2015    3       14     1  55    7.3517   460.7    8.067      55.279
2015    3       14     2   0    7.3537   461.0    8.059      55.347
2015    3       14     2   5    7.3559   461.3    8.050      55.414
2015    3       14     2  11    7.3580   461.6    8.041      55.480
2015    3       14     2  16    7.3601   461.8    8.033      55.545
2015    3       14     2  21    7.3621   462.1    8.024      55.610
2015    3       14     2  27    7.3642   462.4    8.015      55.674
2015    3       14     2  32    7.3662   462.6    8.007      55.738
2015    3       14     2  38    7.3682   462.9    7.998      55.802
2015    3       14     2  43    7.3705   463.2    7.990      55.866
2015    3       14     2  48    7.3723   463.5    7.981      55.930
2015    3       14     2  54    7.3744   463.7    7.973      55.995
2015    3       14     2  59    7.3768   464.0    7.965      56.062
2015    3       14     3   4    7.3789   464.3    7.956      56.129
2015    3       14     3  10    7.3810   464.6    7.948      56.197
2015    3       14     3  15    7.3829   464.9    7.940      56.266
2015    3       14     3  21    7.3852   465.1    7.932      56.336
2015    3       14     3  26    7.3871   465.4    7.924      56.406
2015    3       14     3  31    7.3893   465.7    7.916      56.477
2015    3       14     3  37    7.3917   466.0    7.909      56.548
2015    3       14     3  42    7.3938   466.3    7.901      56.620
2015    3       14     3  47    7.3959   466.6    7.893      56.693
2015    3       14     3  53    7.3976   466.8    7.886      56.767
2015    3       14     3  58    7.3999   467.1    7.878      56.842
2015    3       14     4   4    7.4015   467.4    7.871      56.918
2015    3       14     4   9    7.4034   467.7    7.863      56.995
2015    3       14     4  14    7.4052   468.0    7.856      57.074
2015    3       14     4  20    7.4069   468.3    7.848      57.154
2015    3       14     4  25    7.4089   468.6    7.840      57.235
2015    3       14     4  30    7.4101   468.9    7.832      57.316
2015    3       14     4  36    7.4116   469.2    7.824      57.399
2015    3       14     4  41    7.4133   469.5    7.815      57.481
2015    3       14     4  46    7.4146   469.8    7.807      57.564
2015    3       14     4  52    7.4158   470.1    7.798      57.647
2015    3       14     4  57    7.4165   470.4    7.789      57.730
2015    3       14     5   3    7.4178   470.7    7.779      57.813
2015    3       14     5   8    7.4187   471.1    7.769      57.895
2015    3       14     5  13    7.4195   471.4    7.759      57.977
2015    3       14     5  19    7.4202   471.7    7.749      58.057
2015    3       14     5  24    7.4209   472.0    7.739      58.136
2015    3       14     5  29    7.4211   472.3    7.728      58.214
2015    3       14     5  35    7.4219   472.7    7.717      58.289
2015    3       14     5  40    7.4223   473.0    7.706      58.363
2015    3       14     5  46    7.4227   473.3    7.695      58.436
2015    3       14     5  51    7.4226   473.7    7.683      58.508
2015    3       14     5  56    7.4231   474.0    7.671      58.579
2015    3       14     6   2    7.4228   474.4    7.658      58.649
2015    3       14     6   7    7.4227   474.7    7.646      58.718
2015    3       14     6  12    7.4229   475.1    7.633      58.785
2015    3       14     6  18    7.4223   475.4    7.620      58.850
2015    3       14     6  23    7.4222   475.7    7.607      58.914
2015    3       14     6  28    7.4213   476.1    7.593      58.977
2015    3       14     6  34    7.4210   476.4    7.580      59.037
2015    3       14     6  39    7.4203   476.8    7.566      59.096
2015    3       14     6  45    7.4194   477.1    7.552      59.154
2015    3       14     6  50    7.4181   477.4    7.538      59.209
2015    3       14     6  55    7.4174   477.8    7.524      59.263
2015    3       14     7   1    7.4159   478.1    7.510      59.316
2015    3       14     7   6    7.4150   478.4    7.496      59.367
2015    3       14     7  11    7.4134   478.7    7.482      59.416
2015    3       14     7  17    7.4121   479.0    7.468      59.465
2015    3       14     7  22    7.4112   479.3    7.454      59.512
2015    3       14     7  28    7.4094   479.6    7.441      59.558
2015    3       14     7  33    7.4081   479.9    7.427      59.604
2015    3       14     7  38    7.4068   480.2    7.413      59.650
2015    3       14     7  44    7.4055   480.5    7.400      59.697
2015    3       14     7  49    7.4046   480.8    7.386      59.744
2015    3       14     7  54    7.4029   481.1    7.373      59.792
2015    3       14     8   0    7.4020   481.3    7.360      59.841
2015    3       14     8   5    7.4008   481.6    7.346      59.890
2015    3       14     8  10    7.3991   481.9    7.333      59.941
2015    3       14     8  16    7.3983   482.2    7.320      59.992
2015    3       14     8  21    7.3965   482.5    7.307      60.044
2015    3       14     8  27    7.3956   482.8    7.293      60.098
2015    3       14     8  32    7.3942   483.1    7.280      60.152
2015    3       14     8  37    7.3928   483.4    7.267      60.207
2015    3       14     8  43    7.3913   483.7    7.254      60.263
2015    3       14     8  48    7.3898   484.1    7.241      60.318
2015    3       14     8  53    7.3883   484.4    7.228      60.374
2015    3       14     8  59    7.3864   484.7    7.215      60.429
2015    3       14     9   4    7.3848   485.0    7.202      60.484
2015    3       14     9  10    7.3833   485.3    7.190      60.539
2015    3       14     9  15    7.3818   485.6    7.177      60.594
2015    3       14     9  20    7.3807   485.8    7.165      60.650
2015    3       14     9  26    7.3787   486.1    7.153      60.707
2015    3       14     9  31    7.3776   486.4    7.141      60.764
2015    3       14     9  36    7.3756   486.7    7.129      60.821
2015    3       14     9  42    7.3745   487.1    7.117      60.878
2015    3       14     9  47    7.3729   487.4    7.106      60.936
2015    3       14     9  52    7.3713   487.7    7.094      60.993
2015    3       14     9  58    7.3697   488.0    7.083      61.049
2015    3       14    10   3    7.3681   488.3    7.071      61.106
2015    3       14    10   9    7.3659   488.6    7.060      61.164
2015    3       14    10  14    7.3642   489.0    7.049      61.221
2015    3       14    10  19    7.3629   489.3    7.038      61.277
2015    3       14    10  25    7.3606   489.6    7.026      61.334
2015    3       14    10  30    7.3586   489.9    7.015      61.390
2015    3       14    10  35    7.3566   490.3    7.004      61.446
2015    3       14    10  41    7.3549   490.6    6.992      61.502
2015    3       14    10  46    7.3522   490.9    6.980      61.558
2015    3       14    10  51    7.3498   491.2    6.968      61.613
2015    3       14    10  57    7.3474   491.6    6.956      61.667
2015    3       14    11   2    7.3447   491.9    6.944      61.721
2015    3       14    11   8    7.3420   492.2    6.932      61.775
2015    3       14    11  13    7.3396   492.5    6.919      61.828
2015    3       14    11  18    7.3365   492.9    6.906      61.880
2015    3       14    11  24    7.3333   493.2    6.894      61.930
2015    3       14    11  29    7.3300   493.5    6.881      61.979
2015    3       14    11  34    7.3266   493.8    6.868      62.026
2015    3       14    11  40    7.3225   494.1    6.854      62.072
2015    3       14    11  45    7.3194   494.4    6.841      62.117
2015    3       14    11  51    7.3158   494.7    6.828      62.159
2015    3       14    11  56    7.3120   495.0    6.815      62.201
2015    3       14    12   1    7.3077   495.3    6.802      62.241
2015    3       14    12   7    7.3039   495.6    6.788      62.280
2015    3       14    12  12    7.3007   495.8    6.775      62.318
2015    3       14    12  17    7.2963   496.1    6.762      62.355
2015    3       14    12  23    7.2931   496.4    6.749      62.392
2015    3       14    12  28    7.2886   496.7    6.736      62.429
2015    3       14    12  33    7.2849   497.0    6.724      62.467
2015    3       14    12  39    7.2811   497.3    6.711      62.504
2015    3       14    12  44    7.2779   497.5    6.698      62.542
2015    3       14    12  50    7.2735   497.8    6.686      62.579
2015    3       14    12  55    7.2703   498.2    6.673      62.617
2015    3       14    13   0    7.2659   498.5    6.661      62.656
2015    3       14    13   6    7.2626   498.8    6.648      62.694
2015    3       14    13  11    7.2580   499.2    6.635      62.732
2015    3       14    13  16    7.2545   499.5    6.622      62.770
2015    3       14    13  22    7.2497   499.8    6.609      62.805
2015    3       14    13  27    7.2453   500.2    6.596      62.840
2015    3       14    13  33    7.2409   500.5    6.582      62.872
2015    3       14    13  38    7.2363   500.8    6.569      62.903
2015    3       14    13  43    7.2322   501.2    6.556      62.931
2015    3       14    13  49    7.2270   501.5    6.542      62.957
2015    3       14    13  54    7.2221   501.8    6.528      62.981
2015    3       14    13  59    7.2172   502.1    6.515      63.002
2015    3       14    14   5    7.2121   502.5    6.501      63.021
2015    3       14    14  10    7.2076   502.8    6.487      63.039
2015    3       14    14  15    7.2024   503.1    6.474      63.055
2015    3       14    14  21    7.1967   503.4    6.460      63.070
2015    3       14    14  26    7.1919   503.6    6.446      63.084
2015    3       14    14  32    7.1861   503.9    6.433      63.097
2015    3       14    14  37    7.1814   504.2    6.420      63.111
2015    3       14    14  42    7.1756   504.5    6.406      63.124
2015    3       14    14  48    7.1709   504.7    6.393      63.138
2015    3       14    14  53    7.1657   505.0    6.380      63.153
2015    3       14    14  58    7.1605   505.3    6.367      63.169
2015    3       14    15   4    7.1554   505.6    6.355      63.186
2015    3       14    15   9    7.1498   505.8    6.342      63.203
2015    3       14    15  15    7.1451   506.1    6.330      63.221
2015    3       14    15  20    7.1399   506.4    6.317      63.240
2015    3       14    15  25    7.1348   506.6    6.305      63.259
2015    3       14    15  31    7.1291   506.9    6.293      63.279
2015    3       14    15  36    7.1245   507.1    6.281      63.300
2015    3       14    15  41    7.1189   507.4    6.269      63.321
2015    3       14    15  47    7.1138   507.6    6.257      63.343
2015    3       14    15  52    7.1092   507.9    6.246      63.365
2015    3       14    15  57    7.1038   508.1    6.235      63.388
2015    3       14    16   3    7.0989   508.3    6.224      63.412
2015    3       14    16   8    7.0945   508.5    6.213      63.436
2015    3       14    16  14    7.0893   508.8    6.203      63.463
2015    3       14    16  19    7.0845   509.0    6.193      63.493
2015    3       14    16  24    7.0798   509.2    6.183      63.525
2015    3       14    16  30    7.0752   509.5    6.173      63.558
2015    3       14    16  35    7.0706   509.7    6.164      63.594
2015    3       14    16  40    7.0664   510.0    6.154      63.630
2015    3       14    16  46    7.0618   510.2    6.145      63.668
2015    3       14    16  51    7.0573   510.5    6.136      63.706
2015    3       14    16  57    7.0523   510.8    6.127      63.744
2015    3       14    17   2    7.0481   511.0    6.118      63.781
2015    3       14    17   7    7.0430   511.3    6.109      63.818
2015    3       14    17  13    7.0383   511.6    6.100      63.852
2015    3       14    17  18    7.0339   511.9    6.090      63.886
2015    3       14    17  23    7.0290   512.1    6.081      63.917
2015    3       14    17  29    7.0237   512.4    6.072      63.946
2015    3       14    17  34    7.0192   512.7    6.063      63.972
2015    3       14    17  39    7.0141   513.0    6.053      63.997
2015    3       14    17  45    7.0090   513.2    6.044      64.019
2015    3       14    17  50    7.0037   513.5    6.034      64.041
2015    3       14    17  56    6.9984   513.8    6.025      64.061
2015    3       14    18   1    6.9931   514.0    6.015      64.081
2015    3       14    18   6    6.9876   514.3    6.005      64.100
2015    3       14    18  12    6.9817   514.6    5.995      64.117
2015    3       14    18  17    6.9761   514.8    5.985      64.134
2015    3       14    18  22    6.9707   515.1    5.975      64.150
2015    3       14    18  28    6.9649   515.4    5.965      64.165
2015    3       14    18  33    6.9587   515.6    5.955      64.179
2015    3       14    18  39    6.9528   515.9    5.945      64.192
2015    3       14    18  44    6.9471   516.1    5.935      64.203
2015    3       14    18  49    6.9408   516.4    5.925      64.212
2015    3       14    18  55    6.9348   516.6    5.915      64.221
2015    3       14    19   0    6.9288   516.9    5.905      64.228
2015    3       14    19   5    6.9228   517.1    5.895      64.234
2015    3       14    19  11    6.9168   517.3    5.885      64.240
2015    3       14    19  16    6.9107   517.6    5.875      64.244
2015    3       14    19  21    6.9047   517.8    5.865      64.249
2015    3       14    19  27    6.8990   518.0    5.856      64.253
2015    3       14    19  32    6.8930   518.2    5.847      64.259
2015    3       14    19  38    6.8869   518.4    5.837      64.265
2015    3       14    19  43    6.8813   518.6    5.828      64.272
2015    3       14    19  48    6.8755   518.9    5.819      64.280
2015    3       14    19  54    6.8697   519.1    5.810      64.289
2015    3       14    19  59    6.8640   519.3    5.802      64.298
2015    3       14    20   4    6.8583   519.5    5.793      64.308
2015    3       14    20  10    6.8526   519.8    5.784      64.317
2015    3       14    20  15    6.8469   520.0    5.776      64.327
2015    3       14    20  21    6.8412   520.3    5.767      64.336
2015    3       14    20  26    6.8353   520.5    5.758      64.344
2015    3       14    20  31    6.8295   520.7    5.750      64.352
2015    3       14    20  37    6.8237   521.0    5.741      64.360
2015    3       14    20  42    6.8180   521.2    5.732      64.366
2015    3       14    20  47    6.8121   521.5    5.723      64.370
2015    3       14    20  53    6.8063   521.7    5.714      64.373
2015    3       14    20  58    6.8005   521.9    5.706      64.375
2015    3       14    21   3    6.7946   522.1    5.697      64.376
2015    3       14    21   9    6.7888   522.4    5.688      64.376
2015    3       14    21  14    6.7828   522.6    5.679      64.376
2015    3       14    21  20    6.7770   522.8    5.670      64.374
2015    3       14    21  25    6.7711   523.0    5.661      64.373
2015    3       14    21  30    6.7652   523.2    5.653      64.371
2015    3       14    21  36    6.7594   523.4    5.644      64.370
2015    3       14    21  41    6.7535   523.6    5.635      64.368
2015    3       14    21  46    6.7477   523.9    5.626      64.366
2015    3       14    21  52    6.7420   524.1    5.618      64.364
2015    3       14    21  57    6.7362   524.3    5.609      64.362
2015    3       14    22   2    6.7305   524.5    5.601      64.361
2015    3       14    22   8    6.7248   524.7    5.592      64.360
2015    3       14    22  13    6.7191   524.9    5.584      64.359
2015    3       14    22  19    6.7135   525.1    5.575      64.359
2015    3       14    22  24    6.7079   525.3    5.567      64.359
2015    3       14    22  29    6.7023   525.5    5.559      64.360
2015    3       14    22  35    6.6967   525.7    5.551      64.361
2015    3       14    22  40    6.6912   525.9    5.543      64.362
2015    3       14    22  45    6.6856   526.1    5.535      64.363
2015    3       14    22  51    6.6801   526.4    5.527      64.365
2015    3       14    22  56    6.6746   526.6    5.519      64.366
2015    3       14    23   2    6.6692   526.8    5.511      64.368
2015    3       14    23   7    6.6637   527.0    5.503      64.369
2015    3       14    23  12    6.6582   527.2    5.495      64.371
2015    3       14    23  18    6.6528   527.4    5.488      64.372
2015    3       14    23  23    6.6473   527.6    5.480      64.373
2015    3       14    23  28    6.6418   527.8    5.472      64.374
2015    3       14    23  34    6.6364   528.0    5.465      64.374
2015    3       14    23  39    6.6309   528.2    5.457      64.374
2015    3       14    23  44    6.6255   528.4    5.450      64.375
2015    3       14    23  50    6.6201   528.6    5.442      64.375
2015    3       14    23  55    6.6146   528.8    5.435      64.375
2015    3       15     0   1    6.6092   529.0    5.427      64.374
