year    month   day   hour  minute  B_enl V_enl   n_enl       T_enl
[year] [month] [day] [hour][minute] [nT]  [km/s]  [cm-3]      [kK]
2015    3       28     0   5    3.7093   555.8    3.445      49.149
2015    3       28     0  11    3.7065   555.6    3.445      49.091
2015    3       28     0  17    3.7038   555.4    3.444      49.033
2015    3       28     0  23    3.7011   555.1    3.443      48.974
2015    3       28     0  29    3.6984   554.9    3.443      48.916
2015    3       28     0  35    3.6957   554.7    3.442      48.858
2015    3       28     0  41    3.6930   554.4    3.442      48.799
2015    3       28     0  47    3.6903   554.2    3.441      48.740
2015    3       28     0  53    3.6876   553.9    3.441      48.681
2015    3       28     0  58    3.6849   553.7    3.440      48.621
2015    3       28     1   4    3.6822   553.4    3.440      48.561
2015    3       28     1  10    3.6795   553.2    3.439      48.500
2015    3       28     1  16    3.6768   552.9    3.439      48.440
2015    3       28     1  22    3.6741   552.7    3.439      48.380
2015    3       28     1  28    3.6714   552.4    3.438      48.320
2015    3       28     1  34    3.6688   552.1    3.438      48.259
2015    3       28     1  40    3.6661   551.9    3.438      48.199
2015    3       28     1  46    3.6635   551.6    3.437      48.139
2015    3       28     1  52    3.6609   551.4    3.437      48.079
2015    3       28     1  57    3.6583   551.1    3.437      48.019
2015    3       28     2   3    3.6557   550.8    3.437      47.959
2015    3       28     2   9    3.6531   550.6    3.437      47.899
2015    3       28     2  15    3.6506   550.3    3.436      47.840
2015    3       28     2  21    3.6480   550.0    3.436      47.780
2015    3       28     2  27    3.6455   549.8    3.436      47.721
2015    3       28     2  33    3.6430   549.5    3.437      47.661
2015    3       28     2  39    3.6405   549.3    3.437      47.602
2015    3       28     2  45    3.6380   549.0    3.437      47.544
2015    3       28     2  51    3.6355   548.7    3.437      47.485
2015    3       28     2  56    3.6331   548.5    3.437      47.426
2015    3       28     3   2    3.6306   548.2    3.438      47.367
2015    3       28     3   8    3.6282   547.9    3.438      47.308
2015    3       28     3  14    3.6258   547.7    3.438      47.249
2015    3       28     3  20    3.6233   547.4    3.439      47.191
2015    3       28     3  26    3.6209   547.1    3.439      47.132
2015    3       28     3  32    3.6185   546.8    3.439      47.072
2015    3       28     3  38    3.6161   546.6    3.440      47.012
2015    3       28     3  44    3.6138   546.3    3.440      46.952
2015    3       28     3  50    3.6114   546.0    3.440      46.891
2015    3       28     3  55    3.6090   545.8    3.441      46.830
2015    3       28     4   1    3.6066   545.5    3.441      46.768
2015    3       28     4   7    3.6042   545.2    3.441      46.706
2015    3       28     4  13    3.6018   545.0    3.441      46.643
2015    3       28     4  19    3.5994   544.7    3.441      46.580
2015    3       28     4  25    3.5970   544.4    3.441      46.517
2015    3       28     4  31    3.5945   544.2    3.440      46.453
2015    3       28     4  37    3.5921   543.9    3.440      46.389
2015    3       28     4  43    3.5897   543.6    3.440      46.325
2015    3       28     4  48    3.5873   543.4    3.439      46.260
2015    3       28     4  54    3.5849   543.1    3.439      46.194
2015    3       28     5   0    3.5825   542.8    3.439      46.129
2015    3       28     5   6    3.5801   542.6    3.438      46.063
2015    3       28     5  12    3.5776   542.3    3.438      45.997
2015    3       28     5  18    3.5752   542.0    3.437      45.930
2015    3       28     5  24    3.5728   541.8    3.436      45.863
2015    3       28     5  30    3.5704   541.5    3.436      45.796
2015    3       28     5  36    3.5680   541.2    3.435      45.729
2015    3       28     5  42    3.5656   541.0    3.434      45.661
2015    3       28     5  47    3.5632   540.7    3.434      45.593
2015    3       28     5  53    3.5608   540.4    3.433      45.525
2015    3       28     5  59    3.5584   540.2    3.432      45.456
2015    3       28     6   5    3.5561   539.9    3.431      45.388
2015    3       28     6  11    3.5537   539.6    3.430      45.319
2015    3       28     6  17    3.5513   539.3    3.429      45.249
2015    3       28     6  23    3.5490   539.1    3.428      45.180
2015    3       28     6  29    3.5466   538.8    3.428      45.111
2015    3       28     6  35    3.5443   538.5    3.427      45.041
2015    3       28     6  41    3.5419   538.2    3.426      44.972
2015    3       28     6  46    3.5396   538.0    3.425      44.902
2015    3       28     6  52    3.5373   537.7    3.424      44.832
2015    3       28     6  58    3.5350   537.4    3.423      44.762
2015    3       28     7   4    3.5327   537.1    3.422      44.693
2015    3       28     7  10    3.5304   536.8    3.421      44.623
2015    3       28     7  16    3.5281   536.6    3.420      44.553
2015    3       28     7  22    3.5258   536.3    3.419      44.483
2015    3       28     7  28    3.5235   536.0    3.418      44.414
2015    3       28     7  34    3.5213   535.7    3.417      44.344
2015    3       28     7  40    3.5190   535.4    3.416      44.274
2015    3       28     7  45    3.5168   535.1    3.416      44.205
2015    3       28     7  51    3.5146   534.9    3.415      44.135
2015    3       28     7  57    3.5123   534.6    3.414      44.066
2015    3       28     8   3    3.5101   534.3    3.413      43.996
2015    3       28     8   9    3.5079   534.0    3.412      43.927
2015    3       28     8  15    3.5057   533.7    3.411      43.858
2015    3       28     8  21    3.5036   533.4    3.411      43.789
2015    3       28     8  27    3.5014   533.1    3.410      43.720
2015    3       28     8  33    3.4992   532.8    3.409      43.652
2015    3       28     8  39    3.4971   532.5    3.409      43.583
2015    3       28     8  44    3.4949   532.2    3.408      43.515
2015    3       28     8  50    3.4928   531.9    3.407      43.448
2015    3       28     8  56    3.4907   531.6    3.407      43.380
2015    3       28     9   2    3.4886   531.3    3.406      43.313
2015    3       28     9   8    3.4866   531.0    3.406      43.247
2015    3       28     9  14    3.4845   530.7    3.406      43.181
2015    3       28     9  20    3.4825   530.4    3.405      43.115
2015    3       28     9  26    3.4805   530.1    3.405      43.050
2015    3       28     9  32    3.4785   529.8    3.405      42.985
2015    3       28     9  38    3.4765   529.5    3.405      42.921
2015    3       28     9  43    3.4745   529.2    3.405      42.858
2015    3       28     9  49    3.4726   528.9    3.405      42.795
2015    3       28     9  55    3.4707   528.5    3.405      42.733
2015    3       28    10   1    3.4688   528.2    3.405      42.671
2015    3       28    10   7    3.4669   527.9    3.406      42.610
2015    3       28    10  13    3.4650   527.6    3.406      42.549
2015    3       28    10  19    3.4631   527.3    3.406      42.488
2015    3       28    10  25    3.4613   527.0    3.407      42.428
2015    3       28    10  31    3.4595   526.7    3.408      42.368
2015    3       28    10  37    3.4576   526.4    3.408      42.308
2015    3       28    10  42    3.4558   526.1    3.409      42.249
2015    3       28    10  48    3.4540   525.8    3.410      42.190
2015    3       28    10  54    3.4522   525.4    3.410      42.130
2015    3       28    11   0    3.4504   525.1    3.411      42.071
2015    3       28    11   6    3.4486   524.8    3.412      42.012
2015    3       28    11  12    3.4468   524.5    3.413      41.952
2015    3       28    11  18    3.4450   524.2    3.414      41.892
2015    3       28    11  24    3.4432   523.9    3.415      41.832
2015    3       28    11  30    3.4414   523.5    3.415      41.773
2015    3       28    11  35    3.4396   523.2    3.416      41.713
2015    3       28    11  41    3.4378   522.9    3.417      41.654
2015    3       28    11  47    3.4360   522.6    3.418      41.594
2015    3       28    11  53    3.4343   522.3    3.419      41.535
2015    3       28    11  59    3.4325   521.9    3.420      41.476
2015    3       28    12   5    3.4307   521.6    3.421      41.417
2015    3       28    12  11    3.4290   521.3    3.422      41.358
2015    3       28    12  17    3.4272   521.0    3.424      41.299
2015    3       28    12  23    3.4255   520.7    3.425      41.241
2015    3       28    12  29    3.4238   520.3    3.426      41.182
2015    3       28    12  34    3.4221   520.0    3.427      41.124
2015    3       28    12  40    3.4204   519.7    3.429      41.066
2015    3       28    12  46    3.4187   519.4    3.430      41.008
2015    3       28    12  52    3.4170   519.0    3.431      40.950
2015    3       28    12  58    3.4154   518.7    3.433      40.892
2015    3       28    13   4    3.4137   518.4    3.434      40.835
2015    3       28    13  10    3.4121   518.1    3.436      40.777
2015    3       28    13  16    3.4104   517.7    3.437      40.719
2015    3       28    13  22    3.4088   517.4    3.439      40.662
2015    3       28    13  28    3.4072   517.1    3.440      40.604
2015    3       28    13  33    3.4056   516.7    3.442      40.546
2015    3       28    13  39    3.4040   516.4    3.443      40.489
2015    3       28    13  45    3.4024   516.1    3.445      40.431
2015    3       28    13  51    3.4007   515.8    3.446      40.373
2015    3       28    13  57    3.3992   515.4    3.448      40.315
2015    3       28    14   3    3.3976   515.1    3.449      40.256
2015    3       28    14   9    3.3960   514.8    3.451      40.198
2015    3       28    14  15    3.3944   514.4    3.452      40.140
2015    3       28    14  21    3.3928   514.1    3.454      40.081
2015    3       28    14  27    3.3912   513.7    3.455      40.022
2015    3       28    14  32    3.3897   513.4    3.456      39.964
2015    3       28    14  38    3.3881   513.1    3.458      39.905
2015    3       28    14  44    3.3866   512.7    3.459      39.846
2015    3       28    14  50    3.3851   512.4    3.460      39.787
2015    3       28    14  56    3.3835   512.1    3.462      39.728
2015    3       28    15   2    3.3820   511.7    3.463      39.669
2015    3       28    15   8    3.3805   511.4    3.464      39.609
2015    3       28    15  14    3.3790   511.0    3.466      39.550
2015    3       28    15  20    3.3776   510.7    3.467      39.491
2015    3       28    15  26    3.3761   510.4    3.468      39.432
2015    3       28    15  31    3.3747   510.0    3.470      39.373
2015    3       28    15  37    3.3732   509.7    3.471      39.315
2015    3       28    15  43    3.3718   509.3    3.472      39.256
2015    3       28    15  49    3.3704   509.0    3.473      39.197
2015    3       28    15  55    3.3690   508.6    3.475      39.138
2015    3       28    16   1    3.3676   508.3    3.476      39.079
2015    3       28    16   7    3.3662   508.0    3.477      39.020
2015    3       28    16  13    3.3648   507.6    3.478      38.961
2015    3       28    16  19    3.3634   507.3    3.480      38.902
2015    3       28    16  25    3.3620   506.9    3.481      38.842
2015    3       28    16  30    3.3606   506.6    3.482      38.783
2015    3       28    16  36    3.3592   506.3    3.483      38.722
2015    3       28    16  42    3.3578   505.9    3.484      38.661
2015    3       28    16  48    3.3563   505.6    3.486      38.600
2015    3       28    16  54    3.3549   505.2    3.487      38.539
2015    3       28    17   0    3.3535   504.9    3.488      38.477
2015    3       28    17   6    3.3521   504.5    3.489      38.415
2015    3       28    17  12    3.3507   504.2    3.490      38.352
2015    3       28    17  18    3.3493   503.8    3.491      38.290
2015    3       28    17  23    3.3480   503.5    3.492      38.227
2015    3       28    17  29    3.3466   503.1    3.493      38.165
2015    3       28    17  35    3.3452   502.7    3.494      38.102
2015    3       28    17  41    3.3439   502.4    3.495      38.040
2015    3       28    17  47    3.3425   502.0    3.496      37.977
2015    3       28    17  53    3.3412   501.7    3.498      37.915
2015    3       28    17  59    3.3399   501.3    3.499      37.853
2015    3       28    18   5    3.3386   500.9    3.500      37.791
2015    3       28    18  11    3.3373   500.6    3.501      37.728
2015    3       28    18  17    3.3361   500.2    3.502      37.667
2015    3       28    18  22    3.3348   499.8    3.503      37.605
2015    3       28    18  28    3.3336   499.5    3.505      37.544
2015    3       28    18  34    3.3324   499.1    3.506      37.483
2015    3       28    18  40    3.3312   498.7    3.508      37.422
2015    3       28    18  46    3.3300   498.4    3.509      37.362
2015    3       28    18  52    3.3289   498.0    3.511      37.302
2015    3       28    18  58    3.3278   497.6    3.512      37.243
2015    3       28    19   4    3.3267   497.2    3.514      37.184
2015    3       28    19  10    3.3257   496.8    3.516      37.126
2015    3       28    19  16    3.3247   496.5    3.518      37.069
2015    3       28    19  21    3.3237   496.1    3.520      37.012
2015    3       28    19  27    3.3227   495.7    3.523      36.955
2015    3       28    19  33    3.3218   495.3    3.525      36.900
2015    3       28    19  39    3.3209   494.9    3.528      36.845
2015    3       28    19  45    3.3201   494.5    3.530      36.790
2015    3       28    19  51    3.3193   494.2    3.533      36.737
2015    3       28    19  57    3.3185   493.8    3.536      36.684
2015    3       28    20   3    3.3178   493.4    3.539      36.632
2015    3       28    20   9    3.3171   493.0    3.542      36.580
2015    3       28    20  15    3.3164   492.6    3.545      36.530
2015    3       28    20  20    3.3158   492.2    3.549      36.480
2015    3       28    20  26    3.3152   491.8    3.553      36.430
2015    3       28    20  32    3.3146   491.4    3.556      36.381
2015    3       28    20  38    3.3141   491.0    3.560      36.333
2015    3       28    20  44    3.3136   490.7    3.564      36.285
2015    3       28    20  50    3.3132   490.3    3.568      36.238
2015    3       28    20  56    3.3127   489.9    3.572      36.192
2015    3       28    21   2    3.3123   489.5    3.577      36.145
2015    3       28    21   8    3.3119   489.1    3.581      36.100
2015    3       28    21  14    3.3116   488.7    3.586      36.054
2015    3       28    21  19    3.3113   488.3    3.590      36.010
2015    3       28    21  25    3.3110   487.9    3.595      35.965
2015    3       28    21  31    3.3108   487.5    3.600      35.921
2015    3       28    21  37    3.3105   487.1    3.605      35.877
2015    3       28    21  43    3.3103   486.7    3.610      35.833
2015    3       28    21  49    3.3102   486.3    3.615      35.790
2015    3       28    21  55    3.3100   485.9    3.620      35.747
2015    3       28    22   1    3.3099   485.5    3.625      35.704
2015    3       28    22   7    3.3098   485.1    3.630      35.662
2015    3       28    22  13    3.3098   484.7    3.636      35.620
2015    3       28    22  18    3.3098   484.3    3.641      35.578
2015    3       28    22  24    3.3098   483.9    3.647      35.536
2015    3       28    22  30    3.3098   483.5    3.652      35.495
2015    3       28    22  36    3.3099   483.1    3.658      35.454
2015    3       28    22  42    3.3100   482.7    3.663      35.414
2015    3       28    22  48    3.3101   482.3    3.669      35.373
2015    3       28    22  54    3.3103   481.9    3.675      35.334
2015    3       28    23   0    3.3104   481.5    3.681      35.294
2015    3       28    23   6    3.3107   481.1    3.687      35.254
2015    3       28    23  12    3.3109   480.7    3.693      35.215
2015    3       28    23  17    3.3112   480.3    3.699      35.175
2015    3       28    23  23    3.3114   479.9    3.705      35.136
2015    3       28    23  29    3.3117   479.5    3.711      35.096
2015    3       28    23  35    3.3120   479.1    3.717      35.057
2015    3       28    23  41    3.3123   478.7    3.724      35.018
2015    3       28    23  47    3.3127   478.4    3.730      34.978
2015    3       28    23  53    3.3130   478.0    3.736      34.937
2015    3       28    23  59    3.3134   477.6    3.742      34.897
2015    3       29     0   5    3.3138   477.2    3.749      34.856
2015    3       29     0  10    3.3142   476.8    3.755      34.815
2015    3       29     0  16    3.3147   476.4    3.761      34.774
2015    3       29     0  22    3.3152   476.0    3.768      34.732
2015    3       29     0  28    3.3157   475.6    3.774      34.691
2015    3       29     0  34    3.3162   475.2    3.780      34.650
2015    3       29     0  40    3.3168   474.8    3.787      34.608
2015    3       29     0  46    3.3174   474.4    3.793      34.567
2015    3       29     0  52    3.3180   474.0    3.800      34.526
2015    3       29     0  58    3.3187   473.6    3.806      34.484
2015    3       29     1   4    3.3194   473.3    3.813      34.443
2015    3       29     1   9    3.3202   472.9    3.819      34.402
2015    3       29     1  15    3.3209   472.5    3.826      34.361
2015    3       29     1  21    3.3218   472.1    3.833      34.321
2015    3       29     1  27    3.3226   471.7    3.839      34.280
2015    3       29     1  33    3.3236   471.3    3.846      34.240
2015    3       29     1  39    3.3245   470.9    3.853      34.199
2015    3       29     1  45    3.3255   470.5    3.860      34.159
2015    3       29     1  51    3.3265   470.1    3.866      34.119
2015    3       29     1  57    3.3276   469.8    3.873      34.080
2015    3       29     2   3    3.3287   469.4    3.880      34.040
2015    3       29     2   8    3.3298   469.0    3.887      34.001
2015    3       29     2  14    3.3310   468.6    3.894      33.962
2015    3       29     2  20    3.3322   468.2    3.902      33.923
2015    3       29     2  26    3.3335   467.8    3.909      33.885
2015    3       29     2  32    3.3348   467.4    3.916      33.847
2015    3       29     2  38    3.3361   467.1    3.924      33.809
2015    3       29     2  44    3.3375   466.7    3.931      33.772
2015    3       29     2  50    3.3389   466.3    3.939      33.734
2015    3       29     2  56    3.3404   465.9    3.946      33.698
2015    3       29     3   2    3.3419   465.5    3.954      33.662
2015    3       29     3   7    3.3434   465.1    3.962      33.626
2015    3       29     3  13    3.3450   464.8    3.970      33.590
2015    3       29     3  19    3.3466   464.4    3.978      33.556
2015    3       29     3  25    3.3483   464.0    3.986      33.521
2015    3       29     3  31    3.3500   463.6    3.994      33.487
2015    3       29     3  37    3.3517   463.3    4.002      33.453
2015    3       29     3  43    3.3535   462.9    4.010      33.420
2015    3       29     3  49    3.3553   462.5    4.019      33.388
2015    3       29     3  55    3.3572   462.1    4.028      33.356
2015    3       29     4   1    3.3591   461.8    4.036      33.324
2015    3       29     4   6    3.3611   461.4    4.045      33.293
2015    3       29     4  12    3.3630   461.0    4.054      33.262
2015    3       29     4  18    3.3651   460.7    4.063      33.232
2015    3       29     4  24    3.3671   460.3    4.072      33.202
2015    3       29     4  30    3.3693   459.9    4.081      33.172
2015    3       29     4  36    3.3714   459.6    4.091      33.144
2015    3       29     4  42    3.3736   459.2    4.100      33.115
2015    3       29     4  48    3.3758   458.8    4.110      33.087
2015    3       29     4  54    3.3781   458.5    4.119      33.059
2015    3       29     5   0    3.3804   458.1    4.129      33.032
2015    3       29     5   5    3.3828   457.7    4.139      33.005
2015    3       29     5  11    3.3852   457.4    4.149      32.979
2015    3       29     5  17    3.3876   457.0    4.159      32.953
2015    3       29     5  23    3.3901   456.6    4.170      32.927
2015    3       29     5  29    3.3926   456.3    4.180      32.902
2015    3       29     5  35    3.3952   455.9    4.191      32.877
2015    3       29     5  41    3.3978   455.6    4.201      32.853
2015    3       29     5  47    3.4005   455.2    4.212      32.829
2015    3       29     5  53    3.4032   454.8    4.223      32.806
2015    3       29     5  58    3.4059   454.5    4.234      32.783
2015    3       29     6   4    3.4087   454.1    4.245      32.761
2015    3       29     6  10    3.4116   453.8    4.257      32.739
2015    3       29     6  16    3.4145   453.4    4.268      32.718
2015    3       29     6  22    3.4175   453.1    4.280      32.697
2015    3       29     6  28    3.4205   452.7    4.292      32.677
2015    3       29     6  34    3.4236   452.4    4.304      32.658
2015    3       29     6  40    3.4268   452.0    4.316      32.639
2015    3       29     6  46    3.4300   451.7    4.328      32.621
2015    3       29     6  52    3.4333   451.3    4.341      32.604
2015    3       29     6  57    3.4367   451.0    4.353      32.587
2015    3       29     7   3    3.4401   450.7    4.366      32.571
2015    3       29     7   9    3.4435   450.3    4.379      32.556
2015    3       29     7  15    3.4471   450.0    4.392      32.541
2015    3       29     7  21    3.4507   449.6    4.406      32.527
2015    3       29     7  27    3.4544   449.3    4.419      32.514
2015    3       29     7  33    3.4581   449.0    4.433      32.502
2015    3       29     7  39    3.4619   448.7    4.446      32.490
2015    3       29     7  45    3.4658   448.4    4.460      32.479
2015    3       29     7  51    3.4698   448.0    4.474      32.468
2015    3       29     7  56    3.4738   447.7    4.488      32.459
2015    3       29     8   2    3.4778   447.4    4.502      32.450
2015    3       29     8   8    3.4819   447.1    4.517      32.441
2015    3       29     8  14    3.4861   446.8    4.531      32.433
2015    3       29     8  20    3.4903   446.5    4.546      32.426
2015    3       29     8  26    3.4946   446.2    4.560      32.419
2015    3       29     8  32    3.4989   445.9    4.575      32.413
2015    3       29     8  38    3.5033   445.6    4.590      32.407
2015    3       29     8  44    3.5076   445.3    4.604      32.402
2015    3       29     8  50    3.5121   445.0    4.619      32.397
2015    3       29     8  55    3.5165   444.7    4.634      32.393
2015    3       29     9   1    3.5210   444.4    4.649      32.390
2015    3       29     9   7    3.5256   444.2    4.664      32.387
2015    3       29     9  13    3.5301   443.9    4.679      32.384
2015    3       29     9  19    3.5347   443.6    4.694      32.382
2015    3       29     9  25    3.5394   443.3    4.708      32.380
2015    3       29     9  31    3.5440   443.1    4.723      32.379
2015    3       29     9  37    3.5487   442.8    4.738      32.378
2015    3       29     9  43    3.5535   442.6    4.753      32.377
2015    3       29     9  49    3.5582   442.3    4.769      32.376
2015    3       29     9  54    3.5630   442.0    4.784      32.376
2015    3       29    10   0    3.5678   441.8    4.799      32.376
2015    3       29    10   6    3.5727   441.5    4.814      32.376
2015    3       29    10  12    3.5776   441.3    4.829      32.377
2015    3       29    10  18    3.5824   441.0    4.844      32.377
2015    3       29    10  24    3.5874   440.8    4.859      32.378
2015    3       29    10  30    3.5923   440.5    4.874      32.380
2015    3       29    10  36    3.5973   440.3    4.890      32.381
2015    3       29    10  42    3.6023   440.1    4.905      32.383
2015    3       29    10  47    3.6073   439.8    4.920      32.385
2015    3       29    10  53    3.6123   439.6    4.935      32.387
2015    3       29    10  59    3.6174   439.3    4.950      32.389
2015    3       29    11   5    3.6225   439.1    4.966      32.392
2015    3       29    11  11    3.6276   438.9    4.981      32.395
2015    3       29    11  17    3.6327   438.7    4.996      32.398
2015    3       29    11  23    3.6379   438.4    5.011      32.401
2015    3       29    11  29    3.6431   438.2    5.026      32.404
2015    3       29    11  35    3.6483   438.0    5.041      32.408
2015    3       29    11  41    3.6535   437.8    5.057      32.412
2015    3       29    11  46    3.6588   437.5    5.072      32.416
2015    3       29    11  52    3.6640   437.3    5.087      32.420
2015    3       29    11  58    3.6694   437.1    5.102      32.424
2015    3       29    12   4    3.6747   436.9    5.117      32.428
2015    3       29    12  10    3.6801   436.7    5.133      32.433
2015    3       29    12  16    3.6854   436.5    5.148      32.438
2015    3       29    12  22    3.6909   436.3    5.163      32.443
2015    3       29    12  28    3.6963   436.0    5.179      32.448
2015    3       29    12  34    3.7018   435.8    5.194      32.454
2015    3       29    12  40    3.7073   435.6    5.210      32.459
2015    3       29    12  45    3.7129   435.4    5.226      32.466
2015    3       29    12  51    3.7185   435.2    5.241      32.472
2015    3       29    12  57    3.7241   435.0    5.257      32.479
2015    3       29    13   3    3.7298   434.8    5.273      32.486
2015    3       29    13   9    3.7356   434.6    5.289      32.494
2015    3       29    13  15    3.7414   434.4    5.305      32.503
2015    3       29    13  21    3.7472   434.2    5.321      32.512
2015    3       29    13  27    3.7531   434.0    5.338      32.521
2015    3       29    13  33    3.7591   433.8    5.354      32.531
2015    3       29    13  39    3.7651   433.7    5.371      32.542
2015    3       29    13  44    3.7712   433.5    5.388      32.554
2015    3       29    13  50    3.7773   433.3    5.405      32.566
2015    3       29    13  56    3.7835   433.1    5.422      32.579
2015    3       29    14   2    3.7898   432.9    5.439      32.593
2015    3       29    14   8    3.7961   432.7    5.456      32.607
2015    3       29    14  14    3.8025   432.6    5.474      32.623
2015    3       29    14  20    3.8089   432.4    5.491      32.639
2015    3       29    14  26    3.8154   432.2    5.509      32.655
2015    3       29    14  32    3.8220   432.1    5.527      32.673
2015    3       29    14  38    3.8286   431.9    5.545      32.691
2015    3       29    14  43    3.8352   431.7    5.563      32.711
2015    3       29    14  49    3.8420   431.6    5.581      32.730
2015    3       29    14  55    3.8487   431.4    5.600      32.751
2015    3       29    15   1    3.8555   431.3    5.618      32.772
2015    3       29    15   7    3.8624   431.2    5.636      32.794
2015    3       29    15  13    3.8692   431.0    5.655      32.816
2015    3       29    15  19    3.8761   430.9    5.673      32.838
2015    3       29    15  25    3.8830   430.7    5.691      32.861
2015    3       29    15  31    3.8900   430.6    5.710      32.884
2015    3       29    15  37    3.8969   430.5    5.728      32.908
2015    3       29    15  42    3.9039   430.3    5.747      32.931
2015    3       29    15  48    3.9110   430.2    5.765      32.955
2015    3       29    15  54    3.9180   430.1    5.784      32.980
2015    3       29    16   0    3.9250   430.0    5.802      33.004
2015    3       29    16   6    3.9321   429.8    5.821      33.029
2015    3       29    16  12    3.9391   429.7    5.839      33.054
2015    3       29    16  18    3.9462   429.6    5.858      33.079
2015    3       29    16  24    3.9533   429.5    5.876      33.105
2015    3       29    16  30    3.9605   429.4    5.895      33.132
2015    3       29    16  35    3.9677   429.3    5.914      33.159
2015    3       29    16  41    3.9749   429.2    5.932      33.186
2015    3       29    16  47    3.9821   429.0    5.951      33.214
2015    3       29    16  53    3.9894   428.9    5.970      33.243
2015    3       29    16  59    3.9967   428.8    5.989      33.273
2015    3       29    17   5    4.0040   428.7    6.008      33.303
2015    3       29    17  11    4.0114   428.6    6.027      33.334
2015    3       29    17  17    4.0187   428.6    6.045      33.366
2015    3       29    17  23    4.0261   428.5    6.064      33.399
2015    3       29    17  29    4.0335   428.4    6.083      33.433
2015    3       29    17  34    4.0408   428.3    6.101      33.468
2015    3       29    17  40    4.0482   428.3    6.119      33.505
2015    3       29    17  46    4.0555   428.2    6.137      33.541
2015    3       29    17  52    4.0629   428.1    6.155      33.579
2015    3       29    17  58    4.0702   428.0    6.173      33.616
2015    3       29    18   4    4.0776   428.0    6.191      33.654
2015    3       29    18  10    4.0849   427.9    6.208      33.692
2015    3       29    18  16    4.0923   427.9    6.225      33.729
2015    3       29    18  22    4.0996   427.8    6.243      33.766
2015    3       29    18  28    4.1070   427.7    6.260      33.803
2015    3       29    18  33    4.1144   427.7    6.276      33.839
2015    3       29    18  39    4.1218   427.6    6.293      33.876
2015    3       29    18  45    4.1292   427.6    6.310      33.912
2015    3       29    18  51    4.1366   427.5    6.326      33.948
2015    3       29    18  57    4.1440   427.4    6.343      33.984
2015    3       29    19   3    4.1514   427.4    6.359      34.020
2015    3       29    19   9    4.1588   427.3    6.375      34.055
2015    3       29    19  15    4.1662   427.3    6.391      34.091
2015    3       29    19  21    4.1737   427.2    6.407      34.126
2015    3       29    19  27    4.1812   427.2    6.423      34.161
2015    3       29    19  32    4.1886   427.2    6.439      34.197
2015    3       29    19  38    4.1962   427.1    6.455      34.232
2015    3       29    19  44    4.2036   427.1    6.471      34.267
2015    3       29    19  50    4.2112   427.0    6.487      34.302
2015    3       29    19  56    4.2187   427.0    6.502      34.337
2015    3       29    20   2    4.2263   427.0    6.518      34.372
2015    3       29    20   8    4.2339   426.9    6.534      34.407
2015    3       29    20  14    4.2415   426.9    6.549      34.443
2015    3       29    20  20    4.2491   426.9    6.564      34.478
2015    3       29    20  26    4.2568   426.8    6.580      34.514
2015    3       29    20  31    4.2644   426.8    6.595      34.550
2015    3       29    20  37    4.2721   426.8    6.610      34.586
2015    3       29    20  43    4.2798   426.7    6.625      34.622
2015    3       29    20  49    4.2875   426.7    6.640      34.658
2015    3       29    20  55    4.2951   426.7    6.655      34.694
2015    3       29    21   1    4.3029   426.7    6.670      34.730
2015    3       29    21   7    4.3106   426.7    6.685      34.767
2015    3       29    21  13    4.3183   426.6    6.700      34.803
2015    3       29    21  19    4.3261   426.6    6.714      34.839
2015    3       29    21  25    4.3338   426.6    6.729      34.875
2015    3       29    21  30    4.3416   426.6    6.744      34.911
2015    3       29    21  36    4.3494   426.6    6.758      34.948
2015    3       29    21  42    4.3572   426.6    6.772      34.984
2015    3       29    21  48    4.3650   426.6    6.787      35.020
2015    3       29    21  54    4.3728   426.6    6.801      35.057
2015    3       29    22   0    4.3806   426.5    6.815      35.093
2015    3       29    22   6    4.3884   426.5    6.829      35.130
2015    3       29    22  12    4.3962   426.5    6.843      35.166
2015    3       29    22  18    4.4040   426.5    6.857      35.203
2015    3       29    22  23    4.4119   426.5    6.871      35.239
2015    3       29    22  29    4.4197   426.5    6.884      35.276
2015    3       29    22  35    4.4275   426.5    6.898      35.312
2015    3       29    22  41    4.4353   426.5    6.911      35.348
2015    3       29    22  47    4.4432   426.5    6.925      35.383
2015    3       29    22  53    4.4510   426.6    6.939      35.419
2015    3       29    22  59    4.4588   426.6    6.952      35.455
2015    3       29    23   5    4.4667   426.6    6.966      35.490
2015    3       29    23  11    4.4745   426.6    6.979      35.526
2015    3       29    23  17    4.4824   426.6    6.993      35.561
2015    3       29    23  22    4.4903   426.6    7.006      35.597
2015    3       29    23  28    4.4982   426.6    7.020      35.632
2015    3       29    23  34    4.5061   426.6    7.033      35.669
2015    3       29    23  40    4.5140   426.6    7.047      35.705
2015    3       29    23  46    4.5220   426.6    7.061      35.742
2015    3       29    23  52    4.5300   426.6    7.075      35.779
2015    3       29    23  58    4.5381   426.6    7.089      35.817
2015    3       30     0   4    4.5461   426.6    7.103      35.856
2015    3       30     0  10    4.5542   426.6    7.118      35.896
2015    3       30     0  16    4.5624   426.7    7.132      35.936
2015    3       30     0  21    4.5705   426.7    7.147      35.978
2015    3       30     0  27    4.5787   426.7    7.161      36.021
2015    3       30     0  33    4.5869   426.7    7.176      36.065
2015    3       30     0  39    4.5950   426.8    7.190      36.111
2015    3       30     0  45    4.6032   426.8    7.205      36.159
2015    3       30     0  51    4.6114   426.9    7.219      36.208
2015    3       30     0  57    4.6196   426.9    7.234      36.258
2015    3       30     1   3    4.6277   426.9    7.248      36.310
2015    3       30     1   9    4.6359   427.0    7.262      36.362
2015    3       30     1  15    4.6441   427.0    7.277      36.415
2015    3       30     1  20    4.6522   427.1    7.291      36.469
2015    3       30     1  26    4.6603   427.2    7.305      36.524
2015    3       30     1  32    4.6684   427.2    7.318      36.579
2015    3       30     1  38    4.6764   427.3    7.332      36.634
2015    3       30     1  44    4.6844   427.4    7.345      36.690
2015    3       30     1  50    4.6925   427.4    7.358      36.746
2015    3       30     1  56    4.7004   427.5    7.371      36.801
2015    3       30     2   2    4.7084   427.6    7.384      36.856
2015    3       30     2   8    4.7163   427.6    7.396      36.911
2015    3       30     2  14    4.7243   427.7    7.408      36.964
2015    3       30     2  19    4.7322   427.8    7.421      37.017
2015    3       30     2  25    4.7401   427.8    7.433      37.069
2015    3       30     2  31    4.7480   427.9    7.444      37.120
2015    3       30     2  37    4.7558   428.0    7.456      37.171
2015    3       30     2  43    4.7637   428.1    7.468      37.221
2015    3       30     2  49    4.7716   428.1    7.479      37.272
2015    3       30     2  55    4.7795   428.2    7.491      37.321
2015    3       30     3   1    4.7874   428.3    7.502      37.371
2015    3       30     3   7    4.7953   428.4    7.514      37.421
2015    3       30     3  13    4.8032   428.4    7.525      37.470
2015    3       30     3  18    4.8111   428.5    7.536      37.520
2015    3       30     3  24    4.8191   428.6    7.547      37.570
2015    3       30     3  30    4.8270   428.7    7.558      37.620
2015    3       30     3  36    4.8350   428.8    7.569      37.671
2015    3       30     3  42    4.8429   428.9    7.580      37.722
2015    3       30     3  48    4.8508   429.0    7.591      37.774
2015    3       30     3  54    4.8587   429.1    7.601      37.825
2015    3       30     4   0    4.8666   429.2    7.611      37.878
2015    3       30     4   6    4.8744   429.3    7.621      37.930
2015    3       30     4  11    4.8822   429.4    7.630      37.983
2015    3       30     4  17    4.8900   429.5    7.640      38.035
2015    3       30     4  23    4.8978   429.6    7.649      38.088
2015    3       30     4  29    4.9055   429.7    7.658      38.140
2015    3       30     4  35    4.9131   429.8    7.667      38.192
2015    3       30     4  41    4.9208   429.9    7.676      38.245
2015    3       30     4  47    4.9284   430.0    7.684      38.297
2015    3       30     4  53    4.9360   430.1    7.692      38.348
2015    3       30     4  59    4.9436   430.3    7.700      38.400
2015    3       30     5   5    4.9512   430.4    7.708      38.452
2015    3       30     5  10    4.9587   430.5    7.716      38.503
2015    3       30     5  16    4.9663   430.6    7.724      38.554
2015    3       30     5  22    4.9738   430.7    7.731      38.605
2015    3       30     5  28    4.9813   430.8    7.738      38.655
2015    3       30     5  34    4.9888   430.9    7.745      38.706
2015    3       30     5  40    4.9963   431.0    7.752      38.756
2015    3       30     5  46    5.0038   431.1    7.759      38.805
2015    3       30     5  52    5.0113   431.2    7.766      38.855
2015    3       30     5  58    5.0188   431.4    7.773      38.904
2015    3       30     6   4    5.0263   431.5    7.779      38.953
2015    3       30     6   9    5.0338   431.6    7.785      39.002
2015    3       30     6  15    5.0413   431.7    7.792      39.051
2015    3       30     6  21    5.0488   431.8    7.798      39.099
2015    3       30     6  27    5.0563   431.9    7.804      39.148
2015    3       30     6  33    5.0638   432.0    7.810      39.196
2015    3       30     6  39    5.0713   432.1    7.816      39.244
2015    3       30     6  45    5.0788   432.2    7.822      39.291
2015    3       30     6  51    5.0863   432.4    7.828      39.339
2015    3       30     6  57    5.0937   432.5    7.834      39.387
2015    3       30     7   3    5.1012   432.6    7.839      39.434
2015    3       30     7   8    5.1087   432.7    7.845      39.482
2015    3       30     7  14    5.1162   432.8    7.851      39.529
2015    3       30     7  20    5.1237   432.9    7.856      39.577
2015    3       30     7  26    5.1311   433.0    7.862      39.624
2015    3       30     7  32    5.1386   433.2    7.867      39.672
2015    3       30     7  38    5.1461   433.3    7.873      39.719
2015    3       30     7  44    5.1536   433.4    7.879      39.767
2015    3       30     7  50    5.1611   433.5    7.884      39.816
2015    3       30     7  56    5.1685   433.6    7.890      39.864
2015    3       30     8   2    5.1760   433.8    7.896      39.913
2015    3       30     8   7    5.1835   433.9    7.901      39.962
2015    3       30     8  13    5.1909   434.0    7.907      40.012
2015    3       30     8  19    5.1984   434.1    7.913      40.061
2015    3       30     8  25    5.2058   434.3    7.918      40.111
2015    3       30     8  31    5.2132   434.4    7.924      40.163
2015    3       30     8  37    5.2206   434.5    7.929      40.214
2015    3       30     8  43    5.2279   434.7    7.935      40.266
2015    3       30     8  49    5.2352   434.8    7.940      40.319
2015    3       30     8  55    5.2425   434.9    7.945      40.372
2015    3       30     9   1    5.2497   435.1    7.950      40.425
2015    3       30     9   6    5.2569   435.2    7.955      40.478
2015    3       30     9  12    5.2641   435.4    7.959      40.530
2015    3       30     9  18    5.2713   435.5    7.964      40.581
2015    3       30     9  24    5.2784   435.7    7.968      40.632
2015    3       30     9  30    5.2855   435.8    7.973      40.682
2015    3       30     9  36    5.2925   436.0    7.977      40.731
2015    3       30     9  42    5.2996   436.1    7.981      40.780
2015    3       30     9  48    5.3066   436.3    7.985      40.829
2015    3       30     9  54    5.3136   436.4    7.989      40.876
2015    3       30     9  59    5.3206   436.5    7.993      40.924
2015    3       30    10   5    5.3276   436.7    7.997      40.971
2015    3       30    10  11    5.3346   436.8    8.001      41.018
2015    3       30    10  17    5.3416   437.0    8.005      41.064
2015    3       30    10  23    5.3487   437.1    8.009      41.111
2015    3       30    10  29    5.3557   437.3    8.013      41.157
2015    3       30    10  35    5.3627   437.4    8.017      41.203
2015    3       30    10  41    5.3698   437.6    8.021      41.250
2015    3       30    10  47    5.3768   437.7    8.025      41.297
2015    3       30    10  53    5.3839   437.9    8.030      41.344
2015    3       30    10  58    5.3910   438.0    8.034      41.392
2015    3       30    11   4    5.3981   438.2    8.038      41.441
2015    3       30    11  10    5.4052   438.3    8.043      41.490
2015    3       30    11  16    5.4123   438.5    8.047      41.541
2015    3       30    11  22    5.4194   438.7    8.052      41.592
2015    3       30    11  28    5.4265   438.8    8.056      41.645
2015    3       30    11  34    5.4336   439.0    8.061      41.698
2015    3       30    11  40    5.4407   439.1    8.066      41.752
2015    3       30    11  46    5.4478   439.3    8.071      41.807
2015    3       30    11  51    5.4550   439.5    8.077      41.863
2015    3       30    11  57    5.4621   439.6    8.082      41.920
2015    3       30    12   3    5.4693   439.8    8.088      41.978
2015    3       30    12   9    5.4765   439.9    8.094      42.039
2015    3       30    12  15    5.4838   440.1    8.100      42.101
2015    3       30    12  21    5.4911   440.3    8.106      42.165
2015    3       30    12  27    5.4984   440.5    8.113      42.230
2015    3       30    12  33    5.5057   440.6    8.119      42.297
2015    3       30    12  39    5.5131   440.8    8.126      42.365
2015    3       30    12  44    5.5205   441.0    8.133      42.434
2015    3       30    12  50    5.5279   441.1    8.140      42.507
2015    3       30    12  56    5.5354   441.3    8.147      42.581
2015    3       30    13   2    5.5428   441.5    8.154      42.657
2015    3       30    13   8    5.5502   441.7    8.161      42.734
2015    3       30    13  14    5.5576   441.9    8.167      42.813
2015    3       30    13  20    5.5650   442.1    8.173      42.893
2015    3       30    13  26    5.5723   442.3    8.179      42.974
2015    3       30    13  31    5.5795   442.5    8.184      43.054
2015    3       30    13  37    5.5866   442.7    8.189      43.133
2015    3       30    13  43    5.5938   442.9    8.193      43.210
2015    3       30    13  49    5.6008   443.1    8.197      43.286
2015    3       30    13  55    5.6078   443.3    8.201      43.361
2015    3       30    14   1    5.6147   443.5    8.204      43.434
2015    3       30    14   7    5.6216   443.8    8.207      43.506
2015    3       30    14  13    5.6284   444.0    8.209      43.577
2015    3       30    14  19    5.6351   444.2    8.211      43.647
2015    3       30    14  24    5.6418   444.4    8.213      43.716
2015    3       30    14  30    5.6484   444.6    8.214      43.784
2015    3       30    14  36    5.6550   444.8    8.215      43.851
2015    3       30    14  42    5.6616   445.0    8.216      43.917
2015    3       30    14  48    5.6681   445.3    8.216      43.982
2015    3       30    14  54    5.6745   445.5    8.216      44.047
2015    3       30    15   0    5.6809   445.7    8.216      44.110
2015    3       30    15   6    5.6873   445.9    8.216      44.172
2015    3       30    15  12    5.6936   446.2    8.215      44.234
2015    3       30    15  17    5.6998   446.4    8.214      44.295
2015    3       30    15  23    5.7061   446.6    8.213      44.355
2015    3       30    15  29    5.7122   446.8    8.211      44.414
2015    3       30    15  35    5.7184   447.1    8.209      44.473
2015    3       30    15  41    5.7244   447.3    8.208      44.531
2015    3       30    15  47    5.7305   447.5    8.205      44.588
2015    3       30    15  53    5.7365   447.8    8.203      44.645
2015    3       30    15  59    5.7424   448.0    8.201      44.700
2015    3       30    16   4    5.7483   448.2    8.198      44.756
2015    3       30    16  10    5.7542   448.5    8.195      44.810
2015    3       30    16  16    5.7600   448.7    8.192      44.865
2015    3       30    16  22    5.7658   449.0    8.189      44.918
2015    3       30    16  28    5.7715   449.2    8.186      44.971
2015    3       30    16  34    5.7772   449.4    8.182      45.023
2015    3       30    16  40    5.7829   449.7    8.179      45.074
2015    3       30    16  46    5.7885   449.9    8.175      45.125
2015    3       30    16  52    5.7941   450.2    8.171      45.175
2015    3       30    16  57    5.7997   450.4    8.167      45.225
2015    3       30    17   3    5.8053   450.6    8.163      45.274
2015    3       30    17   9    5.8108   450.9    8.159      45.324
2015    3       30    17  15    5.8163   451.1    8.155      45.372
2015    3       30    17  21    5.8218   451.4    8.152      45.421
2015    3       30    17  27    5.8273   451.6    8.148      45.469
2015    3       30    17  33    5.8328   451.8    8.144      45.517
2015    3       30    17  39    5.8383   452.1    8.140      45.565
2015    3       30    17  44    5.8438   452.3    8.136      45.612
2015    3       30    17  50    5.8492   452.6    8.132      45.660
2015    3       30    17  56    5.8547   452.8    8.129      45.708
2015    3       30    18   2    5.8602   453.0    8.125      45.756
2015    3       30    18   8    5.8657   453.3    8.122      45.805
2015    3       30    18  14    5.8713   453.5    8.119      45.853
2015    3       30    18  20    5.8769   453.7    8.117      45.903
2015    3       30    18  26    5.8825   454.0    8.114      45.953
2015    3       30    18  31    5.8882   454.2    8.112      46.005
2015    3       30    18  37    5.8939   454.4    8.111      46.058
2015    3       30    18  43    5.8997   454.7    8.109      46.113
2015    3       30    18  49    5.9055   454.9    8.109      46.171
2015    3       30    18  55    5.9115   455.2    8.108      46.230
2015    3       30    19   1    5.9175   455.4    8.109      46.291
2015    3       30    19   7    5.9236   455.6    8.109      46.354
2015    3       30    19  13    5.9297   455.9    8.110      46.420
2015    3       30    19  19    5.9360   456.2    8.112      46.491
2015    3       30    19  24    5.9422   456.4    8.114      46.566
2015    3       30    19  30    5.9485   456.7    8.115      46.644
2015    3       30    19  36    5.9548   457.0    8.117      46.725
2015    3       30    19  42    5.9611   457.3    8.119      46.809
2015    3       30    19  48    5.9673   457.5    8.121      46.894
2015    3       30    19  54    5.9735   457.8    8.123      46.979
2015    3       30    20   0    5.9797   458.1    8.125      47.066
2015    3       30    20   6    5.9858   458.4    8.127      47.153
2015    3       30    20  11    5.9917   458.7    8.128      47.242
2015    3       30    20  17    5.9977   459.0    8.129      47.330
2015    3       30    20  23    6.0034   459.3    8.129      47.419
2015    3       30    20  29    6.0091   459.6    8.129      47.509
2015    3       30    20  35    6.0146   459.9    8.128      47.599
2015    3       30    20  41    6.0201   460.3    8.126      47.688
2015    3       30    20  47    6.0254   460.6    8.124      47.775
2015    3       30    20  53    6.0305   460.9    8.122      47.860
2015    3       30    20  59    6.0356   461.2    8.119      47.942
2015    3       30    21   4    6.0406   461.5    8.115      48.023
2015    3       30    21  10    6.0454   461.9    8.111      48.102
2015    3       30    21  16    6.0502   462.2    8.107      48.179
2015    3       30    21  22    6.0549   462.5    8.102      48.254
2015    3       30    21  28    6.0595   462.8    8.097      48.328
2015    3       30    21  34    6.0641   463.1    8.091      48.400
2015    3       30    21  40    6.0686   463.5    8.085      48.471
2015    3       30    21  46    6.0731   463.8    8.079      48.541
2015    3       30    21  52    6.0775   464.1    8.073      48.609
2015    3       30    21  57    6.0818   464.4    8.066      48.677
2015    3       30    22   3    6.0861   464.7    8.059      48.743
2015    3       30    22   9    6.0904   465.1    8.052      48.809
2015    3       30    22  15    6.0946   465.4    8.045      48.873
2015    3       30    22  21    6.0988   465.7    8.037      48.936
2015    3       30    22  27    6.1030   466.0    8.029      48.999
2015    3       30    22  33    6.1071   466.4    8.021      49.061
2015    3       30    22  39    6.1111   466.7    8.013      49.121
2015    3       30    22  44    6.1151   467.0    8.004      49.181
2015    3       30    22  50    6.1191   467.3    7.995      49.241
2015    3       30    22  56    6.1230   467.7    7.986      49.299
2015    3       30    23   2    6.1269   468.0    7.977      49.358
2015    3       30    23   8    6.1307   468.4    7.968      49.416
2015    3       30    23  14    6.1345   468.7    7.958      49.474
2015    3       30    23  20    6.1383   469.0    7.949      49.532
2015    3       30    23  26    6.1421   469.4    7.939      49.590
2015    3       30    23  32    6.1459   469.7    7.929      49.648
2015    3       30    23  37    6.1497   470.1    7.919      49.706
2015    3       30    23  43    6.1534   470.5    7.909      49.764
2015    3       30    23  49    6.1571   470.8    7.899      49.821
2015    3       30    23  55    6.1608   471.2    7.889      49.879
2015    3       31     0   1    6.1644   471.5    7.879      49.936
2015    3       31     0   7    6.1679   471.9    7.869      49.993
2015    3       31     0  13    6.1714   472.3    7.858      50.049
2015    3       31     0  19    6.1749   472.6    7.848      50.106
2015    3       31     0  25    6.1783   473.0    7.837      50.162
2015    3       31     0  30    6.1817   473.4    7.826      50.217
2015    3       31     0  36    6.1849   473.8    7.816      50.273
2015    3       31     0  42    6.1882   474.1    7.805      50.329
2015    3       31     0  48    6.1914   474.5    7.794      50.385
2015    3       31     0  54    6.1946   474.8    7.783      50.441
2015    3       31     1   0    6.1978   475.2    7.772      50.497
2015    3       31     1   6    6.2009   475.6    7.761      50.554
2015    3       31     1  12    6.2040   475.9    7.750      50.611
2015    3       31     1  18    6.2071   476.3    7.740      50.669
2015    3       31     1  23    6.2102   476.7    7.729      50.727
2015    3       31     1  29    6.2133   477.0    7.718      50.785
2015    3       31     1  35    6.2164   477.4    7.707      50.843
2015    3       31     1  41    6.2196   477.8    7.697      50.902
2015    3       31     1  47    6.2227   478.1    7.687      50.962
2015    3       31     1  53    6.2258   478.5    7.676      51.022
2015    3       31     1  59    6.2290   478.9    7.666      51.082
2015    3       31     2   5    6.2322   479.2    7.656      51.143
2015    3       31     2  10    6.2354   479.6    7.646      51.204
2015    3       31     2  16    6.2385   480.0    7.637      51.265
2015    3       31     2  22    6.2417   480.4    7.627      51.327
2015    3       31     2  28    6.2449   480.8    7.617      51.392
2015    3       31     2  34    6.2480   481.2    7.607      51.458
2015    3       31     2  40    6.2510   481.6    7.597      51.525
2015    3       31     2  46    6.2539   482.0    7.586      51.593
2015    3       31     2  52    6.2567   482.4    7.575      51.662
2015    3       31     2  58    6.2594   482.9    7.564      51.732
2015    3       31     3   3    6.2618   483.3    7.552      51.803
2015    3       31     3   9    6.2642   483.8    7.539      51.873
2015    3       31     3  15    6.2663   484.2    7.526      51.941
2015    3       31     3  21    6.2682   484.7    7.513      52.007
2015    3       31     3  27    6.2698   485.1    7.498      52.071
2015    3       31     3  33    6.2712   485.5    7.484      52.132
2015    3       31     3  39    6.2725   486.0    7.469      52.191
2015    3       31     3  45    6.2737   486.4    7.455      52.247
2015    3       31     3  51    6.2747   486.8    7.440      52.299
2015    3       31     3  56    6.2758   487.1    7.425      52.349
2015    3       31     4   2    6.2768   487.5    7.411      52.398
2015    3       31     4   8    6.2778   487.9    7.396      52.448
2015    3       31     4  14    6.2789   488.3    7.382      52.497
2015    3       31     4  20    6.2800   488.7    7.368      52.546
2015    3       31     4  26    6.2811   489.1    7.354      52.595
2015    3       31     4  32    6.2822   489.5    7.339      52.643
2015    3       31     4  38    6.2833   489.9    7.325      52.691
2015    3       31     4  44    6.2844   490.2    7.311      52.739
2015    3       31     4  49    6.2856   490.6    7.297      52.788
2015    3       31     4  55    6.2867   491.0    7.283      52.837
2015    3       31     5   1    6.2878   491.4    7.269      52.888
2015    3       31     5   7    6.2888   491.8    7.255      52.940
2015    3       31     5  13    6.2897   492.2    7.240      52.992
2015    3       31     5  19    6.2907   492.6    7.225      53.044
2015    3       31     5  25    6.2915   493.0    7.210      53.094
2015    3       31     5  31    6.2923   493.4    7.195      53.144
2015    3       31     5  37    6.2929   493.8    7.180      53.191
2015    3       31     5  42    6.2935   494.2    7.165      53.237
2015    3       31     5  48    6.2941   494.6    7.150      53.280
2015    3       31     5  54    6.2946   495.0    7.135      53.320
2015    3       31     6   0    6.2951   495.3    7.120      53.358
2015    3       31     6   6    6.2957   495.7    7.105      53.396
2015    3       31     6  12    6.2963   496.0    7.091      53.434
2015    3       31     6  18    6.2969   496.4    7.076      53.473
2015    3       31     6  24    6.2975   496.7    7.062      53.513
2015    3       31     6  30    6.2981   497.1    7.048      53.555
2015    3       31     6  35    6.2987   497.4    7.034      53.600
2015    3       31     6  41    6.2993   497.8    7.020      53.647
2015    3       31     6  47    6.3000   498.2    7.007      53.697
2015    3       31     6  53    6.3007   498.6    6.993      53.749
2015    3       31     6  59    6.3013   499.1    6.979      53.801
2015    3       31     7   5    6.3020   499.5    6.966      53.854
2015    3       31     7  11    6.3026   499.9    6.953      53.904
2015    3       31     7  17    6.3032   500.4    6.939      53.953
2015    3       31     7  23    6.3037   500.8    6.926      53.999
2015    3       31     7  28    6.3041   501.2    6.913      54.044
2015    3       31     7  34    6.3044   501.6    6.899      54.087
2015    3       31     7  40    6.3046   502.0    6.885      54.129
2015    3       31     7  46    6.3047   502.4    6.871      54.170
2015    3       31     7  52    6.3048   502.9    6.857      54.211
2015    3       31     7  58    6.3047   503.3    6.843      54.252
2015    3       31     8   4    6.3046   503.7    6.829      54.294
2015    3       31     8  10    6.3043   504.1    6.814      54.336
2015    3       31     8  16    6.3040   504.5    6.799      54.379
2015    3       31     8  21    6.3036   504.9    6.785      54.423
2015    3       31     8  27    6.3030   505.3    6.770      54.468
2015    3       31     8  33    6.3024   505.8    6.755      54.513
2015    3       31     8  39    6.3017   506.2    6.740      54.560
2015    3       31     8  45    6.3010   506.6    6.725      54.606
2015    3       31     8  51    6.3002   507.0    6.711      54.653
2015    3       31     8  57    6.2995   507.4    6.696      54.698
2015    3       31     9   3    6.2988   507.8    6.682      54.744
2015    3       31     9   9    6.2981   508.2    6.668      54.789
2015    3       31     9  14    6.2975   508.6    6.654      54.834
2015    3       31     9  20    6.2969   509.0    6.640      54.879
2015    3       31     9  26    6.2963   509.4    6.627      54.925
2015    3       31     9  32    6.2957   509.8    6.613      54.971
2015    3       31     9  38    6.2951   510.2    6.599      55.019
2015    3       31     9  44    6.2945   510.6    6.585      55.068
2015    3       31     9  50    6.2938   511.1    6.571      55.119
2015    3       31     9  56    6.2930   511.6    6.557      55.169
2015    3       31    10   2    6.2922   512.0    6.543      55.219
2015    3       31    10   7    6.2912   512.5    6.528      55.268
2015    3       31    10  13    6.2901   513.0    6.513      55.312
2015    3       31    10  19    6.2888   513.5    6.498      55.354
2015    3       31    10  25    6.2874   514.0    6.483      55.393
2015    3       31    10  31    6.2858   514.5    6.467      55.431
2015    3       31    10  37    6.2839   514.9    6.451      55.465
2015    3       31    10  43    6.2817   515.4    6.434      55.498
2015    3       31    10  49    6.2794   515.9    6.417      55.528
2015    3       31    10  55    6.2770   516.3    6.400      55.557
2015    3       31    11   1    6.2745   516.7    6.384      55.582
2015    3       31    11   6    6.2719   517.1    6.368      55.603
2015    3       31    11  12    6.2695   517.5    6.352      55.622
2015    3       31    11  18    6.2672   517.9    6.337      55.640
2015    3       31    11  24    6.2651   518.2    6.322      55.660
2015    3       31    11  30    6.2630   518.6    6.307      55.681
2015    3       31    11  36    6.2611   518.9    6.293      55.702
2015    3       31    11  42    6.2593   519.3    6.279      55.726
2015    3       31    11  48    6.2576   519.7    6.266      55.752
2015    3       31    11  54    6.2560   520.0    6.253      55.780
2015    3       31    11  59    6.2544   520.4    6.239      55.812
2015    3       31    12   5    6.2528   520.8    6.226      55.847
2015    3       31    12  11    6.2511   521.3    6.213      55.887
2015    3       31    12  17    6.2494   521.7    6.200      55.930
2015    3       31    12  23    6.2476   522.1    6.186      55.975
2015    3       31    12  29    6.2458   522.6    6.173      56.021
2015    3       31    12  35    6.2439   523.0    6.159      56.066
2015    3       31    12  41    6.2418   523.5    6.145      56.108
2015    3       31    12  47    6.2397   523.9    6.132      56.146
2015    3       31    12  52    6.2375   524.3    6.118      56.180
2015    3       31    12  58    6.2353   524.7    6.104      56.210
2015    3       31    13   4    6.2331   525.0    6.091      56.236
2015    3       31    13  10    6.2309   525.4    6.077      56.260
2015    3       31    13  16    6.2288   525.7    6.064      56.283
2015    3       31    13  22    6.2267   526.1    6.051      56.308
2015    3       31    13  28    6.2246   526.4    6.039      56.334
2015    3       31    13  34    6.2226   526.7    6.027      56.362
2015    3       31    13  40    6.2207   527.1    6.015      56.394
2015    3       31    13  45    6.2188   527.4    6.003      56.429
2015    3       31    13  51    6.2169   527.8    5.991      56.468
2015    3       31    13  57    6.2151   528.2    5.980      56.510
2015    3       31    14   3    6.2133   528.6    5.968      56.555
2015    3       31    14   9    6.2115   529.0    5.957      56.601
2015    3       31    14  15    6.2097   529.4    5.946      56.648
2015    3       31    14  21    6.2079   529.8    5.935      56.694
2015    3       31    14  27    6.2060   530.3    5.925      56.739
2015    3       31    14  33    6.2040   530.7    5.914      56.780
2015    3       31    14  38    6.2020   531.1    5.903      56.819
2015    3       31    14  44    6.1998   531.5    5.892      56.856
2015    3       31    14  50    6.1977   531.9    5.881      56.892
2015    3       31    14  56    6.1954   532.3    5.870      56.927
2015    3       31    15   2    6.1931   532.6    5.858      56.961
2015    3       31    15   8    6.1907   533.0    5.847      56.994
2015    3       31    15  14    6.1882   533.4    5.835      57.028
2015    3       31    15  20    6.1856   533.8    5.824      57.062
2015    3       31    15  26    6.1830   534.2    5.812      57.096
2015    3       31    15  32    6.1803   534.6    5.800      57.131
2015    3       31    15  37    6.1774   535.0    5.788      57.166
2015    3       31    15  43    6.1745   535.4    5.776      57.201
2015    3       31    15  49    6.1715   535.9    5.764      57.237
2015    3       31    15  55    6.1685   536.3    5.752      57.272
2015    3       31    16   1    6.1654   536.7    5.740      57.306
2015    3       31    16   7    6.1623   537.0    5.728      57.338
2015    3       31    16  13    6.1593   537.4    5.717      57.370
2015    3       31    16  19    6.1563   537.7    5.706      57.400
2015    3       31    16  25    6.1534   538.1    5.695      57.431
2015    3       31    16  30    6.1506   538.4    5.684      57.462
2015    3       31    16  36    6.1479   538.8    5.673      57.495
2015    3       31    16  42    6.1452   539.1    5.663      57.529
2015    3       31    16  48    6.1425   539.5    5.652      57.566
2015    3       31    16  54    6.1399   539.9    5.642      57.606
2015    3       31    17   0    6.1373   540.3    5.632      57.650
2015    3       31    17   6    6.1347   540.7    5.621      57.696
2015    3       31    17  12    6.1321   541.1    5.611      57.742
2015    3       31    17  18    6.1295   541.6    5.601      57.790
2015    3       31    17  23    6.1268   542.0    5.591      57.836
2015    3       31    17  29    6.1241   542.5    5.580      57.879
2015    3       31    17  35    6.1213   542.9    5.570      57.918
2015    3       31    17  41    6.1185   543.3    5.559      57.954
2015    3       31    17  47    6.1155   543.7    5.548      57.989
2015    3       31    17  53    6.1125   544.1    5.537      58.022
2015    3       31    17  59    6.1093   544.5    5.525      58.053
2015    3       31    18   5    6.1061   544.9    5.514      58.084
2015    3       31    18  11    6.1029   545.3    5.503      58.114
2015    3       31    18  17    6.0997   545.7    5.492      58.144
2015    3       31    18  22    6.0966   546.1    5.480      58.172
2015    3       31    18  28    6.0935   546.5    5.470      58.200
2015    3       31    18  34    6.0906   546.8    5.459      58.227
2015    3       31    18  40    6.0877   547.2    5.448      58.255
2015    3       31    18  46    6.0850   547.6    5.438      58.284
2015    3       31    18  52    6.0823   547.9    5.428      58.314
2015    3       31    18  58    6.0796   548.3    5.418      58.347
2015    3       31    19   4    6.0770   548.7    5.409      58.381
2015    3       31    19  10    6.0745   549.0    5.399      58.418
2015    3       31    19  15    6.0720   549.4    5.390      58.458
2015    3       31    19  21    6.0695   549.8    5.380      58.500
2015    3       31    19  27    6.0670   550.2    5.371      58.545
2015    3       31    19  33    6.0645   550.7    5.362      58.592
2015    3       31    19  39    6.0620   551.1    5.353      58.640
2015    3       31    19  45    6.0595   551.5    5.345      58.690
2015    3       31    19  51    6.0569   551.9    5.336      58.739
2015    3       31    19  57    6.0544   552.3    5.327      58.786
2015    3       31    20   3    6.0518   552.7    5.318      58.833
2015    3       31    20   8    6.0492   553.1    5.309      58.878
2015    3       31    20  14    6.0466   553.5    5.300      58.922
2015    3       31    20  20    6.0439   553.9    5.291      58.966
2015    3       31    20  26    6.0412   554.3    5.282      59.009
2015    3       31    20  32    6.0385   554.7    5.272      59.051
2015    3       31    20  38    6.0358   555.1    5.263      59.094
2015    3       31    20  44    6.0331   555.5    5.254      59.136
2015    3       31    20  50    6.0305   555.9    5.245      59.178
2015    3       31    20  56    6.0279   556.3    5.236      59.219
2015    3       31    21   2    6.0253   556.7    5.227      59.260
2015    3       31    21   7    6.0227   557.1    5.219      59.302
2015    3       31    21  13    6.0201   557.5    5.210      59.343
2015    3       31    21  19    6.0175   557.9    5.201      59.385
2015    3       31    21  25    6.0150   558.3    5.192      59.428
2015    3       31    21  31    6.0124   558.7    5.184      59.471
2015    3       31    21  37    6.0099   559.1    5.175      59.514
2015    3       31    21  43    6.0073   559.5    5.166      59.559
2015    3       31    21  49    6.0048   559.9    5.158      59.604
2015    3       31    21  55    6.0022   560.3    5.149      59.650
2015    3       31    22   0    5.9996   560.7    5.141      59.695
2015    3       31    22   6    5.9970   561.1    5.133      59.742
2015    3       31    22  12    5.9944   561.5    5.124      59.787
2015    3       31    22  18    5.9917   561.9    5.116      59.833
2015    3       31    22  24    5.9890   562.3    5.107      59.878
2015    3       31    22  30    5.9863   562.7    5.099      59.923
2015    3       31    22  36    5.9836   563.1    5.090      59.968
2015    3       31    22  42    5.9809   563.5    5.082      60.013
2015    3       31    22  48    5.9781   563.9    5.073      60.058
2015    3       31    22  53    5.9753   564.3    5.065      60.102
2015    3       31    22  59    5.9725   564.7    5.056      60.146
2015    3       31    23   5    5.9696   565.1    5.047      60.190
2015    3       31    23  11    5.9668   565.5    5.039      60.234
2015    3       31    23  17    5.9640   565.9    5.030      60.278
2015    3       31    23  23    5.9611   566.3    5.022      60.321
2015    3       31    23  29    5.9583   566.7    5.013      60.364
2015    3       31    23  35    5.9554   567.1    5.004      60.407
2015    3       31    23  41    5.9526   567.5    4.996      60.450
2015    3       31    23  47    5.9498   567.9    4.987      60.492
2015    3       31    23  52    5.9470   568.3    4.978      60.535
2015    3       31    23  58    5.9441   568.7    4.970      60.577
2015    4        1     0   4    5.9414   569.1    4.961      60.619
2015    4        1     0  10    5.9386   569.5    4.952      60.661
2015    4        1     0  16    5.9358   569.9    4.943      60.703
2015    4        1     0  22    5.9330   570.3    4.935      60.744
2015    4        1     0  28    5.9303   570.8    4.926      60.785
2015    4        1     0  34    5.9276   571.2    4.917      60.827
2015    4        1     0  40    5.9248   571.6    4.908      60.868
2015    4        1     0  45    5.9221   572.0    4.900      60.909
2015    4        1     0  51    5.9194   572.4    4.891      60.950
2015    4        1     0  57    5.9167   572.8    4.882      60.990
2015    4        1     1   3    5.9140   573.2    4.873      61.031
2015    4        1     1   9    5.9113   573.6    4.865      61.072
2015    4        1     1  15    5.9087   574.0    4.856      61.112
2015    4        1     1  21    5.9061   574.4    4.848      61.153
2015    4        1     1  27    5.9035   574.8    4.839      61.194
2015    4        1     1  33    5.9009   575.2    4.830      61.235
2015    4        1     1  38    5.8984   575.5    4.822      61.277
2015    4        1     1  44    5.8959   575.9    4.814      61.319
2015    4        1     1  50    5.8934   576.3    4.805      61.361
2015    4        1     1  56    5.8909   576.7    4.797      61.403
2015    4        1     2   2    5.8884   577.1    4.789      61.447
2015    4        1     2   8    5.8860   577.5    4.781      61.490
2015    4        1     2  14    5.8835   577.9    4.773      61.535
2015    4        1     2  20    5.8811   578.3    4.765      61.580
2015    4        1     2  26    5.8787   578.7    4.757      61.625
2015    4        1     2  32    5.8763   579.1    4.749      61.671
2015    4        1     2  37    5.8739   579.5    4.741      61.718
2015    4        1     2  43    5.8715   579.9    4.733      61.765
2015    4        1     2  49    5.8690   580.3    4.726      61.813
2015    4        1     2  55    5.8667   580.7    4.718      61.861
2015    4        1     3   1    5.8643   581.1    4.711      61.909
2015    4        1     3   7    5.8618   581.5    4.704      61.958
2015    4        1     3  13    5.8594   581.9    4.696      62.007
2015    4        1     3  19    5.8570   582.3    4.689      62.055
2015    4        1     3  25    5.8546   582.7    4.681      62.104
2015    4        1     3  30    5.8522   583.0    4.674      62.152
2015    4        1     3  36    5.8497   583.4    4.667      62.200
2015    4        1     3  42    5.8473   583.8    4.660      62.248
2015    4        1     3  48    5.8448   584.2    4.652      62.296
2015    4        1     3  54    5.8423   584.6    4.645      62.343
2015    4        1     4   0    5.8398   585.0    4.638      62.390
2015    4        1     4   6    5.8373   585.4    4.630      62.437
2015    4        1     4  12    5.8348   585.8    4.623      62.483
2015    4        1     4  18    5.8323   586.2    4.616      62.529
2015    4        1     4  24    5.8298   586.6    4.609      62.575
2015    4        1     4  29    5.8273   587.0    4.601      62.620
2015    4        1     4  35    5.8247   587.4    4.594      62.665
2015    4        1     4  41    5.8222   587.8    4.587      62.710
2015    4        1     4  47    5.8196   588.2    4.579      62.755
2015    4        1     4  53    5.8171   588.6    4.572      62.799
2015    4        1     4  59    5.8145   589.0    4.565      62.844
2015    4        1     5   5    5.8119   589.4    4.557      62.888
2015    4        1     5  11    5.8093   589.8    4.550      62.933
2015    4        1     5  17    5.8068   590.2    4.543      62.977
2015    4        1     5  22    5.8041   590.6    4.536      63.022
2015    4        1     5  28    5.8015   591.0    4.529      63.067
2015    4        1     5  34    5.7989   591.4    4.522      63.112
2015    4        1     5  40    5.7963   591.8    4.515      63.157
2015    4        1     5  46    5.7937   592.2    4.508      63.203
2015    4        1     5  52    5.7910   592.6    4.501      63.249
2015    4        1     5  58    5.7884   593.0    4.494      63.296
2015    4        1     6   4    5.7857   593.4    4.487      63.343
2015    4        1     6  10    5.7831   593.7    4.480      63.390
2015    4        1     6  16    5.7804   594.1    4.473      63.438
2015    4        1     6  21    5.7777   594.5    4.467      63.486
2015    4        1     6  27    5.7750   594.9    4.460      63.535
2015    4        1     6  33    5.7723   595.3    4.453      63.584
2015    4        1     6  39    5.7696   595.7    4.447      63.633
2015    4        1     6  45    5.7669   596.1    4.440      63.683
2015    4        1     6  51    5.7641   596.5    4.433      63.733
2015    4        1     6  57    5.7614   596.9    4.426      63.783
2015    4        1     7   3    5.7587   597.3    4.420      63.832
2015    4        1     7   9    5.7559   597.7    4.413      63.882
2015    4        1     7  14    5.7532   598.1    4.406      63.931
2015    4        1     7  20    5.7505   598.5    4.399      63.981
2015    4        1     7  26    5.7477   598.9    4.393      64.030
2015    4        1     7  32    5.7450   599.3    4.386      64.079
2015    4        1     7  38    5.7423   599.7    4.379      64.127
2015    4        1     7  44    5.7396   600.1    4.372      64.174
2015    4        1     7  50    5.7369   600.5    4.365      64.221
2015    4        1     7  56    5.7342   600.9    4.358      64.267
2015    4        1     8   2    5.7315   601.3    4.351      64.312
2015    4        1     8   8    5.7289   601.6    4.344      64.357
2015    4        1     8  13    5.7262   602.0    4.337      64.401
2015    4        1     8  19    5.7235   602.4    4.330      64.445
2015    4        1     8  25    5.7209   602.8    4.323      64.489
2015    4        1     8  31    5.7182   603.2    4.316      64.532
2015    4        1     8  37    5.7156   603.6    4.309      64.575
2015    4        1     8  43    5.7130   604.0    4.302      64.617
2015    4        1     8  49    5.7104   604.4    4.295      64.659
2015    4        1     8  55    5.7077   604.7    4.287      64.701
2015    4        1     9   1    5.7051   605.1    4.280      64.743
2015    4        1     9   6    5.7025   605.5    4.273      64.785
2015    4        1     9  12    5.6999   605.9    4.266      64.826
2015    4        1     9  18    5.6973   606.3    4.259      64.868
2015    4        1     9  24    5.6947   606.7    4.252      64.909
2015    4        1     9  30    5.6921   607.1    4.245      64.950
2015    4        1     9  36    5.6894   607.4    4.239      64.992
2015    4        1     9  42    5.6868   607.8    4.232      65.033
2015    4        1     9  48    5.6842   608.2    4.225      65.074
2015    4        1     9  54    5.6815   608.6    4.218      65.115
2015    4        1    10   0    5.6788   609.0    4.211      65.157
2015    4        1    10   5    5.6761   609.3    4.204      65.198
2015    4        1    10  11    5.6734   609.7    4.197      65.239
2015    4        1    10  17    5.6707   610.1    4.191      65.280
2015    4        1    10  23    5.6680   610.5    4.184      65.320
2015    4        1    10  29    5.6653   610.9    4.177      65.361
2015    4        1    10  35    5.6625   611.3    4.170      65.401
2015    4        1    10  41    5.6597   611.6    4.164      65.441
2015    4        1    10  47    5.6569   612.0    4.157      65.480
2015    4        1    10  53    5.6541   612.4    4.150      65.519
2015    4        1    10  58    5.6513   612.8    4.143      65.557
2015    4        1    11   4    5.6484   613.2    4.137      65.595
2015    4        1    11  10    5.6456   613.5    4.130      65.632
2015    4        1    11  16    5.6427   613.9    4.123      65.669
2015    4        1    11  22    5.6398   614.3    4.116      65.706
2015    4        1    11  28    5.6368   614.7    4.110      65.742
2015    4        1    11  34    5.6339   615.0    4.103      65.778
2015    4        1    11  40    5.6309   615.4    4.096      65.814
2015    4        1    11  46    5.6280   615.8    4.090      65.850
2015    4        1    11  52    5.6250   616.2    4.083      65.885
2015    4        1    11  57    5.6220   616.5    4.076      65.921
2015    4        1    12   3    5.6190   616.9    4.070      65.956
2015    4        1    12   9    5.6161   617.3    4.063      65.992
2015    4        1    12  15    5.6131   617.7    4.057      66.027
2015    4        1    12  21    5.6101   618.0    4.050      66.064
2015    4        1    12  27    5.6072   618.4    4.044      66.100
2015    4        1    12  33    5.6042   618.8    4.037      66.137
2015    4        1    12  39    5.6012   619.1    4.031      66.174
2015    4        1    12  45    5.5983   619.5    4.025      66.212
2015    4        1    12  50    5.5953   619.9    4.019      66.251
2015    4        1    12  56    5.5923   620.2    4.013      66.290
2015    4        1    13   2    5.5893   620.6    4.007      66.330
2015    4        1    13   8    5.5864   621.0    4.001      66.371
2015    4        1    13  14    5.5834   621.3    3.995      66.412
2015    4        1    13  20    5.5804   621.7    3.989      66.454
2015    4        1    13  26    5.5775   622.1    3.984      66.497
2015    4        1    13  32    5.5745   622.4    3.978      66.541
2015    4        1    13  38    5.5716   622.8    3.972      66.585
2015    4        1    13  44    5.5686   623.1    3.967      66.630
2015    4        1    13  49    5.5656   623.5    3.961      66.675
2015    4        1    13  55    5.5627   623.9    3.956      66.720
2015    4        1    14   1    5.5598   624.2    3.950      66.765
2015    4        1    14   7    5.5568   624.6    3.945      66.811
2015    4        1    14  13    5.5539   624.9    3.939      66.856
2015    4        1    14  19    5.5510   625.3    3.933      66.900
2015    4        1    14  25    5.5481   625.6    3.928      66.945
2015    4        1    14  31    5.5452   626.0    3.922      66.989
2015    4        1    14  37    5.5423   626.3    3.917      67.032
2015    4        1    14  42    5.5394   626.7    3.911      67.074
2015    4        1    14  48    5.5365   627.0    3.905      67.115
2015    4        1    14  54    5.5336   627.4    3.899      67.155
2015    4        1    15   0    5.5308   627.7    3.894      67.193
2015    4        1    15   6    5.5279   628.1    3.888      67.231
2015    4        1    15  12    5.5251   628.4    3.882      67.268
2015    4        1    15  18    5.5222   628.8    3.876      67.305
2015    4        1    15  24    5.5193   629.1    3.870      67.340
2015    4        1    15  30    5.5165   629.5    3.864      67.375
2015    4        1    15  36    5.5136   629.8    3.858      67.409
2015    4        1    15  41    5.5108   630.1    3.852      67.442
2015    4        1    15  47    5.5079   630.5    3.847      67.475
2015    4        1    15  53    5.5050   630.8    3.841      67.507
2015    4        1    15  59    5.5022   631.2    3.835      67.539
2015    4        1    16   5    5.4993   631.5    3.829      67.570
2015    4        1    16  11    5.4965   631.8    3.823      67.600
2015    4        1    16  17    5.4936   632.2    3.817      67.630
2015    4        1    16  23    5.4907   632.5    3.811      67.659
2015    4        1    16  29    5.4878   632.9    3.805      67.689
2015    4        1    16  34    5.4849   633.2    3.800      67.718
2015    4        1    16  40    5.4820   633.5    3.794      67.746
2015    4        1    16  46    5.4791   633.9    3.788      67.774
2015    4        1    16  52    5.4761   634.2    3.782      67.802
2015    4        1    16  58    5.4732   634.5    3.777      67.830
2015    4        1    17   4    5.4702   634.9    3.771      67.857
2015    4        1    17  10    5.4672   635.2    3.765      67.884
2015    4        1    17  16    5.4642   635.5    3.760      67.911
2015    4        1    17  22    5.4612   635.9    3.754      67.938
2015    4        1    17  28    5.4582   636.2    3.749      67.965
2015    4        1    17  33    5.4551   636.5    3.743      67.991
2015    4        1    17  39    5.4521   636.9    3.738      68.017
2015    4        1    17  45    5.4490   637.2    3.732      68.043
2015    4        1    17  51    5.4459   637.5    3.727      68.070
2015    4        1    17  57    5.4428   637.8    3.721      68.095
2015    4        1    18   3    5.4397   638.2    3.716      68.121
2015    4        1    18   9    5.4365   638.5    3.710      68.146
2015    4        1    18  15    5.4334   638.8    3.705      68.171
2015    4        1    18  21    5.4302   639.1    3.699      68.197
2015    4        1    18  27    5.4271   639.4    3.694      68.222
2015    4        1    18  32    5.4239   639.8    3.689      68.246
2015    4        1    18  38    5.4207   640.1    3.683      68.271
2015    4        1    18  44    5.4175   640.4    3.678      68.295
2015    4        1    18  50    5.4143   640.7    3.673      68.320
2015    4        1    18  56    5.4111   641.0    3.667      68.344
2015    4        1    19   2    5.4079   641.3    3.662      68.368
2015    4        1    19   8    5.4047   641.6    3.657      68.392
2015    4        1    19  14    5.4016   641.9    3.651      68.417
2015    4        1    19  20    5.3984   642.3    3.646      68.441
2015    4        1    19  25    5.3952   642.6    3.641      68.465
2015    4        1    19  31    5.3920   642.9    3.636      68.489
2015    4        1    19  37    5.3889   643.2    3.630      68.513
2015    4        1    19  43    5.3857   643.5    3.625      68.537
2015    4        1    19  49    5.3826   643.8    3.620      68.561
2015    4        1    19  55    5.3794   644.1    3.615      68.585
2015    4        1    20   1    5.3763   644.4    3.610      68.609
2015    4        1    20   7    5.3732   644.7    3.605      68.634
2015    4        1    20  13    5.3701   644.9    3.600      68.658
2015    4        1    20  19    5.3670   645.2    3.595      68.682
2015    4        1    20  24    5.3639   645.5    3.590      68.707
2015    4        1    20  30    5.3608   645.8    3.585      68.731
2015    4        1    20  36    5.3577   646.1    3.580      68.756
2015    4        1    20  42    5.3546   646.4    3.576      68.780
2015    4        1    20  48    5.3515   646.7    3.571      68.805
2015    4        1    20  54    5.3485   647.0    3.566      68.829
2015    4        1    21   0    5.3454   647.2    3.561      68.853
2015    4        1    21   6    5.3424   647.5    3.557      68.876
2015    4        1    21  12    5.3394   647.8    3.552      68.900
2015    4        1    21  18    5.3363   648.1    3.547      68.923
2015    4        1    21  23    5.3333   648.4    3.542      68.946
2015    4        1    21  29    5.3303   648.6    3.538      68.968
2015    4        1    21  35    5.3274   648.9    3.533      68.990
2015    4        1    21  41    5.3244   649.2    3.528      69.012
2015    4        1    21  47    5.3214   649.5    3.524      69.033
2015    4        1    21  53    5.3185   649.7    3.519      69.054
2015    4        1    21  59    5.3155   650.0    3.514      69.074
2015    4        1    22   5    5.3126   650.3    3.510      69.094
2015    4        1    22  11    5.3097   650.6    3.505      69.113
2015    4        1    22  16    5.3067   650.8    3.500      69.132
2015    4        1    22  22    5.3038   651.1    3.496      69.151
2015    4        1    22  28    5.3009   651.4    3.491      69.170
2015    4        1    22  34    5.2980   651.6    3.486      69.188
2015    4        1    22  40    5.2950   651.9    3.482      69.206
2015    4        1    22  46    5.2921   652.2    3.477      69.224
2015    4        1    22  52    5.2892   652.4    3.472      69.242
2015    4        1    22  58    5.2863   652.7    3.468      69.259
2015    4        1    23   4    5.2834   652.9    3.463      69.276
2015    4        1    23  10    5.2804   653.2    3.458      69.293
2015    4        1    23  15    5.2775   653.5    3.454      69.310
2015    4        1    23  21    5.2745   653.7    3.449      69.326
2015    4        1    23  27    5.2716   654.0    3.444      69.343
2015    4        1    23  33    5.2687   654.2    3.440      69.359
2015    4        1    23  39    5.2657   654.5    3.435      69.376
2015    4        1    23  45    5.2628   654.7    3.430      69.392
2015    4        1    23  51    5.2598   655.0    3.426      69.408
2015    4        1    23  57    5.2569   655.3    3.421      69.424
2015    4        2     0   3    5.2539   655.5    3.417      69.441
2015    4        2     0   8    5.2510   655.8    3.413      69.457
2015    4        2     0  14    5.2481   656.0    3.408      69.474
2015    4        2     0  20    5.2451   656.3    3.404      69.491
2015    4        2     0  26    5.2422   656.5    3.400      69.508
2015    4        2     0  32    5.2393   656.7    3.395      69.525
2015    4        2     0  38    5.2363   657.0    3.391      69.542
2015    4        2     0  44    5.2334   657.2    3.387      69.559
2015    4        2     0  50    5.2305   657.5    3.383      69.577
2015    4        2     0  56    5.2275   657.7    3.379      69.595
2015    4        2     1   2    5.2246   658.0    3.375      69.612
2015    4        2     1   7    5.2217   658.2    3.371      69.630
2015    4        2     1  13    5.2188   658.4    3.367      69.648
2015    4        2     1  19    5.2159   658.7    3.364      69.666
2015    4        2     1  25    5.2130   658.9    3.360      69.684
2015    4        2     1  31    5.2101   659.2    3.356      69.701
2015    4        2     1  37    5.2071   659.4    3.352      69.719
2015    4        2     1  43    5.2042   659.6    3.349      69.736
2015    4        2     1  49    5.2013   659.9    3.345      69.754
2015    4        2     1  55    5.1984   660.1    3.342      69.770
2015    4        2     2   0    5.1955   660.3    3.338      69.787
2015    4        2     2   6    5.1925   660.5    3.334      69.803
2015    4        2     2  12    5.1896   660.8    3.331      69.819
2015    4        2     2  18    5.1867   661.0    3.328      69.835
2015    4        2     2  24    5.1838   661.2    3.324      69.850
2015    4        2     2  30    5.1808   661.5    3.321      69.865
2015    4        2     2  36    5.1779   661.7    3.317      69.879
2015    4        2     2  42    5.1750   661.9    3.314      69.894
2015    4        2     2  48    5.1720   662.1    3.310      69.908
2015    4        2     2  54    5.1691   662.3    3.307      69.921
2015    4        2     2  59    5.1662   662.6    3.304      69.935
2015    4        2     3   5    5.1632   662.8    3.300      69.948
2015    4        2     3  11    5.1603   663.0    3.297      69.960
2015    4        2     3  17    5.1574   663.2    3.294      69.973
2015    4        2     3  23    5.1544   663.4    3.290      69.985
2015    4        2     3  29    5.1515   663.6    3.287      69.997
2015    4        2     3  35    5.1486   663.8    3.284      70.009
2015    4        2     3  41    5.1457   664.1    3.281      70.020
2015    4        2     3  47    5.1428   664.3    3.277      70.032
2015    4        2     3  53    5.1399   664.5    3.274      70.043
2015    4        2     3  58    5.1370   664.7    3.271      70.054
2015    4        2     4   4    5.1341   664.9    3.268      70.064
2015    4        2     4  10    5.1312   665.1    3.265      70.075
2015    4        2     4  16    5.1283   665.3    3.261      70.085
2015    4        2     4  22    5.1254   665.5    3.258      70.095
2015    4        2     4  28    5.1225   665.7    3.255      70.105
2015    4        2     4  34    5.1196   665.9    3.252      70.115
2015    4        2     4  40    5.1168   666.1    3.249      70.124
2015    4        2     4  46    5.1139   666.3    3.246      70.133
2015    4        2     4  51    5.1110   666.5    3.242      70.142
2015    4        2     4  57    5.1082   666.7    3.239      70.151
2015    4        2     5   3    5.1054   666.8    3.236      70.160
2015    4        2     5   9    5.1025   667.0    3.233      70.169
2015    4        2     5  15    5.0997   667.2    3.230      70.177
2015    4        2     5  21    5.0969   667.4    3.226      70.186
2015    4        2     5  27    5.0941   667.6    3.223      70.194
2015    4        2     5  33    5.0913   667.8    3.220      70.203
2015    4        2     5  39    5.0885   668.0    3.217      70.211
2015    4        2     5  45    5.0857   668.1    3.214      70.220
2015    4        2     5  50    5.0829   668.3    3.210      70.228
2015    4        2     5  56    5.0801   668.5    3.207      70.237
2015    4        2     6   2    5.0774   668.7    3.204      70.246
2015    4        2     6   8    5.0747   668.9    3.201      70.255
2015    4        2     6  14    5.0719   669.0    3.198      70.264
2015    4        2     6  20    5.0692   669.2    3.194      70.273
2015    4        2     6  26    5.0665   669.4    3.191      70.283
2015    4        2     6  32    5.0637   669.6    3.188      70.293
2015    4        2     6  38    5.0610   669.8    3.185      70.302
2015    4        2     6  43    5.0583   669.9    3.181      70.313
2015    4        2     6  49    5.0556   670.1    3.178      70.323
2015    4        2     6  55    5.0530   670.3    3.175      70.333
2015    4        2     7   1    5.0503   670.4    3.172      70.344
2015    4        2     7   7    5.0476   670.6    3.169      70.355
2015    4        2     7  13    5.0449   670.8    3.165      70.365
2015    4        2     7  19    5.0422   671.0    3.162      70.377
2015    4        2     7  25    5.0396   671.1    3.159      70.388
2015    4        2     7  31    5.0369   671.3    3.156      70.399
2015    4        2     7  37    5.0343   671.5    3.153      70.411
2015    4        2     7  42    5.0316   671.6    3.150      70.422
2015    4        2     7  48    5.0290   671.8    3.147      70.434
2015    4        2     7  54    5.0263   672.0    3.144      70.446
2015    4        2     8   0    5.0237   672.1    3.141      70.458
2015    4        2     8   6    5.0211   672.3    3.138      70.470
2015    4        2     8  12    5.0184   672.5    3.135      70.482
2015    4        2     8  18    5.0158   672.6    3.132      70.495
2015    4        2     8  24    5.0132   672.8    3.129      70.507
2015    4        2     8  30    5.0106   672.9    3.126      70.520
2015    4        2     8  36    5.0080   673.1    3.123      70.532
2015    4        2     8  41    5.0054   673.3    3.121      70.545
2015    4        2     8  47    5.0028   673.4    3.118      70.558
2015    4        2     8  53    5.0003   673.6    3.115      70.570
2015    4        2     8  59    4.9977   673.7    3.112      70.583
2015    4        2     9   5    4.9951   673.9    3.110      70.596
2015    4        2     9  11    4.9926   674.0    3.107      70.608
2015    4        2     9  17    4.9900   674.2    3.105      70.621
2015    4        2     9  23    4.9874   674.3    3.102      70.633
2015    4        2     9  29    4.9849   674.5    3.100      70.645
2015    4        2     9  34    4.9824   674.6    3.097      70.657
2015    4        2     9  40    4.9798   674.8    3.095      70.669
2015    4        2     9  46    4.9773   674.9    3.092      70.681
2015    4        2     9  52    4.9748   675.1    3.090      70.692
2015    4        2     9  58    4.9722   675.2    3.087      70.703
2015    4        2    10   4    4.9697   675.4    3.085      70.714
2015    4        2    10  10    4.9672   675.5    3.082      70.725
2015    4        2    10  16    4.9647   675.7    3.080      70.734
2015    4        2    10  22    4.9622   675.8    3.078      70.744
2015    4        2    10  28    4.9596   676.0    3.075      70.753
2015    4        2    10  33    4.9572   676.1    3.073      70.762
2015    4        2    10  39    4.9546   676.2    3.071      70.770
2015    4        2    10  45    4.9522   676.4    3.068      70.778
2015    4        2    10  51    4.9497   676.5    3.066      70.786
2015    4        2    10  57    4.9472   676.6    3.064      70.793
2015    4        2    11   3    4.9447   676.8    3.062      70.799
2015    4        2    11   9    4.9423   676.9    3.059      70.805
2015    4        2    11  15    4.9398   677.0    3.057      70.811
2015    4        2    11  21    4.9374   677.2    3.055      70.816
2015    4        2    11  27    4.9349   677.3    3.052      70.820
2015    4        2    11  32    4.9325   677.4    3.050      70.825
2015    4        2    11  38    4.9301   677.6    3.048      70.828
2015    4        2    11  44    4.9276   677.7    3.046      70.832
2015    4        2    11  50    4.9252   677.8    3.043      70.835
2015    4        2    11  56    4.9228   678.0    3.041      70.837
2015    4        2    12   2    4.9204   678.1    3.039      70.840
2015    4        2    12   8    4.9180   678.2    3.037      70.841
2015    4        2    12  14    4.9156   678.3    3.034      70.843
2015    4        2    12  20    4.9132   678.4    3.032      70.844
2015    4        2    12  25    4.9108   678.6    3.030      70.846
2015    4        2    12  31    4.9085   678.7    3.027      70.846
2015    4        2    12  37    4.9061   678.8    3.025      70.847
2015    4        2    12  43    4.9037   678.9    3.023      70.848
2015    4        2    12  49    4.9013   679.0    3.021      70.848
2015    4        2    12  55    4.8990   679.1    3.018      70.848
2015    4        2    13   1    4.8967   679.3    3.016      70.849
2015    4        2    13   7    4.8943   679.4    3.014      70.849
2015    4        2    13  13    4.8920   679.5    3.012      70.849
2015    4        2    13  19    4.8897   679.6    3.009      70.849
2015    4        2    13  24    4.8874   679.7    3.007      70.850
2015    4        2    13  30    4.8851   679.8    3.005      70.850
2015    4        2    13  36    4.8828   679.9    3.003      70.851
2015    4        2    13  42    4.8805   680.0    3.000      70.852
2015    4        2    13  48    4.8782   680.1    2.998      70.853
2015    4        2    13  54    4.8759   680.2    2.996      70.854
2015    4        2    14   0    4.8737   680.4    2.994      70.855
2015    4        2    14   6    4.8714   680.5    2.992      70.857
2015    4        2    14  12    4.8692   680.6    2.989      70.858
2015    4        2    14  17    4.8670   680.7    2.987      70.860
2015    4        2    14  23    4.8647   680.8    2.985      70.862
2015    4        2    14  29    4.8625   680.9    2.983      70.865
2015    4        2    14  35    4.8603   681.0    2.981      70.867
2015    4        2    14  41    4.8581   681.1    2.978      70.870
2015    4        2    14  47    4.8559   681.2    2.976      70.873
2015    4        2    14  53    4.8537   681.3    2.974      70.876
2015    4        2    14  59    4.8516   681.4    2.972      70.879
2015    4        2    15   5    4.8494   681.5    2.970      70.882
2015    4        2    15  11    4.8472   681.6    2.968      70.886
2015    4        2    15  16    4.8451   681.7    2.966      70.889
2015    4        2    15  22    4.8430   681.8    2.964      70.893
2015    4        2    15  28    4.8408   681.9    2.961      70.897
2015    4        2    15  34    4.8387   682.0    2.959      70.901
2015    4        2    15  40    4.8365   682.1    2.957      70.905
2015    4        2    15  46    4.8344   682.1    2.955      70.909
2015    4        2    15  52    4.8323   682.2    2.953      70.914
2015    4        2    15  58    4.8302   682.3    2.951      70.918
2015    4        2    16   4    4.8281   682.4    2.949      70.922
2015    4        2    16  10    4.8260   682.5    2.947      70.927
2015    4        2    16  15    4.8239   682.6    2.945      70.931
2015    4        2    16  21    4.8218   682.7    2.943      70.935
2015    4        2    16  27    4.8197   682.8    2.941      70.940
2015    4        2    16  33    4.8176   682.9    2.940      70.944
2015    4        2    16  39    4.8155   683.0    2.938      70.948
2015    4        2    16  45    4.8135   683.1    2.936      70.953
2015    4        2    16  51    4.8114   683.1    2.934      70.957
2015    4        2    16  57    4.8093   683.2    2.932      70.961
2015    4        2    17   3    4.8073   683.3    2.930      70.965
2015    4        2    17   8    4.8052   683.4    2.929      70.968
2015    4        2    17  14    4.8032   683.5    2.927      70.972
2015    4        2    17  20    4.8011   683.6    2.925      70.976
2015    4        2    17  26    4.7991   683.7    2.923      70.979
2015    4        2    17  32    4.7970   683.7    2.922      70.983
2015    4        2    17  38    4.7950   683.8    2.920      70.986
2015    4        2    17  44    4.7930   683.9    2.919      70.989
2015    4        2    17  50    4.7909   684.0    2.917      70.992
2015    4        2    17  56    4.7889   684.0    2.915      70.994
2015    4        2    18   2    4.7869   684.1    2.914      70.996
2015    4        2    18   7    4.7849   684.2    2.912      70.999
2015    4        2    18  13    4.7829   684.3    2.911      71.000
2015    4        2    18  19    4.7809   684.3    2.909      71.002
2015    4        2    18  25    4.7790   684.4    2.908      71.003
2015    4        2    18  31    4.7770   684.5    2.906      71.004
2015    4        2    18  37    4.7750   684.6    2.905      71.005
2015    4        2    18  43    4.7730   684.6    2.903      71.006
2015    4        2    18  49    4.7711   684.7    2.902      71.006
2015    4        2    18  55    4.7691   684.8    2.900      71.006
2015    4        2    19   1    4.7672   684.8    2.899      71.006
2015    4        2    19   6    4.7652   684.9    2.898      71.006
2015    4        2    19  12    4.7633   685.0    2.896      71.005
2015    4        2    19  18    4.7614   685.0    2.895      71.004
2015    4        2    19  24    4.7594   685.1    2.893      71.004
2015    4        2    19  30    4.7575   685.2    2.892      71.002
2015    4        2    19  36    4.7556   685.2    2.891      71.001
2015    4        2    19  42    4.7537   685.3    2.889      70.999
2015    4        2    19  48    4.7518   685.4    2.888      70.998
2015    4        2    19  54    4.7499   685.4    2.886      70.996
2015    4        2    19  59    4.7480   685.5    2.885      70.994
2015    4        2    20   5    4.7462   685.5    2.884      70.993
2015    4        2    20  11    4.7443   685.6    2.882      70.991
2015    4        2    20  17    4.7425   685.7    2.881      70.989
2015    4        2    20  23    4.7406   685.7    2.879      70.987
2015    4        2    20  29    4.7388   685.8    2.878      70.985
2015    4        2    20  35    4.7370   685.8    2.877      70.983
2015    4        2    20  41    4.7351   685.9    2.875      70.982
2015    4        2    20  47    4.7333   685.9    2.874      70.980
2015    4        2    20  53    4.7316   686.0    2.872      70.978
2015    4        2    20  58    4.7298   686.1    2.871      70.977
2015    4        2    21   4    4.7280   686.1    2.870      70.975
2015    4        2    21  10    4.7262   686.2    2.868      70.974
2015    4        2    21  16    4.7245   686.2    2.867      70.973
2015    4        2    21  22    4.7227   686.3    2.865      70.972
2015    4        2    21  28    4.7210   686.3    2.864      70.970
2015    4        2    21  34    4.7193   686.4    2.863      70.969
2015    4        2    21  40    4.7175   686.4    2.861      70.969
2015    4        2    21  46    4.7158   686.5    2.860      70.968
2015    4        2    21  52    4.7141   686.5    2.858      70.967
2015    4        2    21  57    4.7124   686.6    2.857      70.967
2015    4        2    22   3    4.7107   686.6    2.856      70.966
2015    4        2    22   9    4.7091   686.7    2.854      70.966
2015    4        2    22  15    4.7074   686.7    2.853      70.966
2015    4        2    22  21    4.7057   686.8    2.851      70.966
2015    4        2    22  27    4.7040   686.8    2.850      70.966
2015    4        2    22  33    4.7024   686.9    2.848      70.966
2015    4        2    22  39    4.7007   686.9    2.847      70.966
2015    4        2    22  45    4.6991   687.0    2.846      70.966
2015    4        2    22  50    4.6974   687.0    2.844      70.966
2015    4        2    22  56    4.6958   687.1    2.843      70.966
2015    4        2    23   2    4.6942   687.1    2.842      70.967
2015    4        2    23   8    4.6925   687.1    2.840      70.967
2015    4        2    23  14    4.6909   687.2    2.839      70.968
2015    4        2    23  20    4.6893   687.2    2.837      70.968
2015    4        2    23  26    4.6876   687.3    2.836      70.969
2015    4        2    23  32    4.6860   687.3    2.835      70.969
2015    4        2    23  38    4.6844   687.4    2.833      70.969
2015    4        2    23  44    4.6828   687.4    2.832      70.970
2015    4        2    23  49    4.6812   687.5    2.831      70.970
2015    4        2    23  55    4.6796   687.5    2.830      70.971
2015    4        3     0   1    4.6780   687.5    2.828      70.971
2015    4        3     0   7    4.6764   687.6    2.827      70.972
2015    4        3     0  13    4.6748   687.6    2.826      70.972
2015    4        3     0  19    4.6732   687.7    2.825      70.972
2015    4        3     0  25    4.6716   687.7    2.823      70.973
2015    4        3     0  31    4.6701   687.7    2.822      70.973
2015    4        3     0  37    4.6685   687.8    2.821      70.973
2015    4        3     0  43    4.6669   687.8    2.820      70.974
2015    4        3     0  48    4.6654   687.9    2.819      70.974
2015    4        3     0  54    4.6638   687.9    2.818      70.974
2015    4        3     1   0    4.6623   687.9    2.817      70.974
2015    4        3     1   6    4.6608   688.0    2.815      70.974
2015    4        3     1  12    4.6592   688.0    2.814      70.974
2015    4        3     1  18    4.6577   688.0    2.813      70.974
2015    4        3     1  24    4.6562   688.1    2.812      70.973
2015    4        3     1  30    4.6547   688.1    2.811      70.973
2015    4        3     1  36    4.6532   688.1    2.810      70.972
2015    4        3     1  41    4.6517   688.2    2.809      70.972
2015    4        3     1  47    4.6502   688.2    2.808      70.971
2015    4        3     1  53    4.6487   688.2    2.807      70.970
2015    4        3     1  59    4.6472   688.3    2.806      70.969
2015    4        3     2   5    4.6457   688.3    2.805      70.968
2015    4        3     2  11    4.6443   688.3    2.804      70.967
2015    4        3     2  17    4.6428   688.4    2.803      70.966
2015    4        3     2  23    4.6413   688.4    2.802      70.964
2015    4        3     2  29    4.6399   688.4    2.801      70.963
2015    4        3     2  35    4.6384   688.5    2.800      70.961
2015    4        3     2  40    4.6370   688.5    2.800      70.959
2015    4        3     2  46    4.6356   688.5    2.799      70.957
2015    4        3     2  52    4.6341   688.6    2.798      70.956
2015    4        3     2  58    4.6327   688.6    2.797      70.954
2015    4        3     3   4    4.6313   688.6    2.796      70.951
2015    4        3     3  10    4.6299   688.6    2.795      70.949
2015    4        3     3  16    4.6284   688.7    2.794      70.947
2015    4        3     3  22    4.6270   688.7    2.793      70.945
2015    4        3     3  28    4.6256   688.7    2.792      70.943
2015    4        3     3  34    4.6242   688.7    2.791      70.941
2015    4        3     3  39    4.6228   688.8    2.790      70.938
2015    4        3     3  45    4.6215   688.8    2.789      70.936
2015    4        3     3  51    4.6201   688.8    2.788      70.934
2015    4        3     3  57    4.6187   688.8    2.787      70.932
2015    4        3     4   3    4.6173   688.9    2.787      70.930
2015    4        3     4   9    4.6160   688.9    2.786      70.928
2015    4        3     4  15    4.6146   688.9    2.785      70.925
2015    4        3     4  21    4.6132   688.9    2.784      70.924
2015    4        3     4  27    4.6119   689.0    2.783      70.921
2015    4        3     4  32    4.6105   689.0    2.782      70.920
2015    4        3     4  38    4.6092   689.0    2.781      70.918
2015    4        3     4  44    4.6079   689.0    2.780      70.916
2015    4        3     4  50    4.6065   689.0    2.779      70.914
2015    4        3     4  56    4.6052   689.1    2.778      70.912
2015    4        3     5   2    4.6039   689.1    2.777      70.910
2015    4        3     5   8    4.6026   689.1    2.776      70.909
2015    4        3     5  14    4.6012   689.1    2.775      70.907
2015    4        3     5  20    4.5999   689.1    2.775      70.906
2015    4        3     5  26    4.5986   689.2    2.774      70.904
2015    4        3     5  31    4.5973   689.2    2.773      70.902
2015    4        3     5  37    4.5960   689.2    2.772      70.901
2015    4        3     5  43    4.5947   689.2    2.771      70.900
2015    4        3     5  49    4.5934   689.2    2.770      70.898
2015    4        3     5  55    4.5921   689.3    2.769      70.897
2015    4        3     6   1    4.5908   689.3    2.768      70.895
2015    4        3     6   7    4.5895   689.3    2.767      70.894
2015    4        3     6  13    4.5882   689.3    2.766      70.893
2015    4        3     6  19    4.5869   689.3    2.765      70.892
2015    4        3     6  25    4.5857   689.4    2.764      70.891
2015    4        3     6  30    4.5844   689.4    2.763      70.890
2015    4        3     6  36    4.5831   689.4    2.763      70.889
2015    4        3     6  42    4.5818   689.4    2.762      70.888
2015    4        3     6  48    4.5805   689.4    2.761      70.888
2015    4        3     6  54    4.5793   689.4    2.760      70.887
2015    4        3     7   0    4.5780   689.5    2.759      70.886
2015    4        3     7   6    4.5767   689.5    2.758      70.886
2015    4        3     7  12    4.5755   689.5    2.757      70.885
2015    4        3     7  18    4.5742   689.5    2.757      70.885
2015    4        3     7  23    4.5730   689.5    2.756      70.884
2015    4        3     7  29    4.5717   689.5    2.755      70.884
2015    4        3     7  35    4.5705   689.6    2.754      70.884
2015    4        3     7  41    4.5692   689.6    2.753      70.883
2015    4        3     7  47    4.5680   689.6    2.753      70.883
2015    4        3     7  53    4.5668   689.6    2.752      70.883
2015    4        3     7  59    4.5655   689.6    2.751      70.883
2015    4        3     8   5    4.5643   689.6    2.750      70.882
2015    4        3     8  11    4.5631   689.6    2.749      70.882
2015    4        3     8  17    4.5619   689.7    2.749      70.882
2015    4        3     8  22    4.5607   689.7    2.748      70.882
2015    4        3     8  28    4.5595   689.7    2.747      70.882
2015    4        3     8  34    4.5583   689.7    2.746      70.881
2015    4        3     8  40    4.5571   689.7    2.746      70.881
2015    4        3     8  46    4.5559   689.7    2.745      70.880
2015    4        3     8  52    4.5547   689.7    2.744      70.880
2015    4        3     8  58    4.5535   689.8    2.744      70.880
2015    4        3     9   4    4.5523   689.8    2.743      70.879
2015    4        3     9  10    4.5512   689.8    2.742      70.879
2015    4        3     9  16    4.5500   689.8    2.742      70.878
2015    4        3     9  21    4.5488   689.8    2.741      70.877
2015    4        3     9  27    4.5477   689.8    2.740      70.876
2015    4        3     9  33    4.5465   689.8    2.739      70.876
2015    4        3     9  39    4.5454   689.8    2.739      70.875
2015    4        3     9  45    4.5442   689.8    2.738      70.874
2015    4        3     9  51    4.5431   689.9    2.737      70.873
2015    4        3     9  57    4.5419   689.9    2.737      70.872
2015    4        3    10   3    4.5408   689.9    2.736      70.871
2015    4        3    10   9    4.5396   689.9    2.735      70.870
2015    4        3    10  14    4.5385   689.9    2.735      70.869
2015    4        3    10  20    4.5373   689.9    2.734      70.868
2015    4        3    10  26    4.5362   689.9    2.734      70.867
2015    4        3    10  32    4.5351   689.9    2.733      70.865
2015    4        3    10  38    4.5339   689.9    2.732      70.864
2015    4        3    10  44    4.5328   689.9    2.732      70.863
2015    4        3    10  50    4.5317   690.0    2.731      70.861
2015    4        3    10  56    4.5305   690.0    2.730      70.860
2015    4        3    11   2    4.5294   690.0    2.730      70.859
2015    4        3    11   8    4.5283   690.0    2.729      70.857
2015    4        3    11  13    4.5271   690.0    2.728      70.856
2015    4        3    11  19    4.5260   690.0    2.728      70.854
2015    4        3    11  25    4.5249   690.0    2.727      70.853
2015    4        3    11  31    4.5238   690.0    2.726      70.851
2015    4        3    11  37    4.5227   690.0    2.726      70.850
2015    4        3    11  43    4.5215   690.0    2.725      70.848
2015    4        3    11  49    4.5204   690.0    2.725      70.846
2015    4        3    11  55    4.5193   690.0    2.724      70.845
2015    4        3    12   1    4.5182   690.0    2.723      70.843
2015    4        3    12   6    4.5171   690.0    2.723      70.841
2015    4        3    12  12    4.5160   690.1    2.722      70.840
2015    4        3    12  18    4.5149   690.1    2.721      70.838
2015    4        3    12  24    4.5138   690.1    2.721      70.836
2015    4        3    12  30    4.5127   690.1    2.720      70.834
2015    4        3    12  36    4.5116   690.1    2.719      70.832
2015    4        3    12  42    4.5105   690.1    2.719      70.830
2015    4        3    12  48    4.5094   690.1    2.718      70.828
2015    4        3    12  54    4.5083   690.1    2.717      70.826
2015    4        3    13   0    4.5072   690.1    2.717      70.824
2015    4        3    13   5    4.5061   690.1    2.716      70.822
2015    4        3    13  11    4.5051   690.1    2.715      70.820
2015    4        3    13  17    4.5040   690.1    2.714      70.817
2015    4        3    13  23    4.5029   690.1    2.714      70.815
2015    4        3    13  29    4.5018   690.1    2.713      70.813
2015    4        3    13  35    4.5008   690.1    2.712      70.810
2015    4        3    13  41    4.4997   690.1    2.712      70.808
2015    4        3    13  47    4.4986   690.1    2.711      70.805
2015    4        3    13  53    4.4975   690.1    2.710      70.803
2015    4        3    13  59    4.4965   690.1    2.710      70.800
2015    4        3    14   4    4.4954   690.1    2.709      70.797
2015    4        3    14  10    4.4943   690.1    2.708      70.795
2015    4        3    14  16    4.4933   690.1    2.708      70.792
2015    4        3    14  22    4.4922   690.1    2.707      70.789
2015    4        3    14  28    4.4911   690.1    2.706      70.786
2015    4        3    14  34    4.4901   690.1    2.706      70.784
2015    4        3    14  40    4.4890   690.1    2.705      70.781
2015    4        3    14  46    4.4880   690.1    2.704      70.778
2015    4        3    14  52    4.4869   690.1    2.704      70.775
2015    4        3    14  58    4.4859   690.1    2.703      70.772
2015    4        3    15   3    4.4848   690.1    2.702      70.769
2015    4        3    15   9    4.4838   690.1    2.702      70.766
2015    4        3    15  15    4.4827   690.1    2.701      70.764
2015    4        3    15  21    4.4817   690.1    2.700      70.761
2015    4        3    15  27    4.4806   690.1    2.700      70.758
2015    4        3    15  33    4.4796   690.1    2.699      70.755
2015    4        3    15  39    4.4786   690.1    2.699      70.752
2015    4        3    15  45    4.4775   690.1    2.698      70.750
2015    4        3    15  51    4.4765   690.1    2.697      70.747
2015    4        3    15  56    4.4755   690.1    2.697      70.745
2015    4        3    16   2    4.4745   690.1    2.696      70.742
2015    4        3    16   8    4.4734   690.1    2.696      70.739
2015    4        3    16  14    4.4724   690.1    2.695      70.737
2015    4        3    16  20    4.4714   690.1    2.695      70.735
2015    4        3    16  26    4.4704   690.1    2.694      70.732
2015    4        3    16  32    4.4694   690.1    2.694      70.730
2015    4        3    16  38    4.4684   690.1    2.693      70.728
2015    4        3    16  44    4.4673   690.1    2.692      70.726
2015    4        3    16  50    4.4663   690.1    2.692      70.724
2015    4        3    16  55    4.4653   690.1    2.691      70.722
2015    4        3    17   1    4.4643   690.1    2.691      70.720
2015    4        3    17   7    4.4633   690.1    2.690      70.719
2015    4        3    17  13    4.4623   690.1    2.690      70.717
2015    4        3    17  19    4.4613   690.1    2.690      70.716
2015    4        3    17  25    4.4603   690.1    2.689      70.714
2015    4        3    17  31    4.4593   690.1    2.689      70.713
2015    4        3    17  37    4.4583   690.1    2.688      70.712
2015    4        3    17  43    4.4573   690.1    2.688      70.710
2015    4        3    17  49    4.4562   690.1    2.687      70.709
2015    4        3    17  54    4.4553   690.1    2.687      70.708
2015    4        3    18   0    4.4543   690.1    2.686      70.707
2015    4        3    18   6    4.4532   690.0    2.686      70.706
2015    4        3    18  12    4.4523   690.0    2.685      70.705
2015    4        3    18  18    4.4512   690.0    2.685      70.704
2015    4        3    18  24    4.4502   690.0    2.684      70.703
2015    4        3    18  30    4.4493   690.0    2.684      70.702
2015    4        3    18  36    4.4482   690.0    2.683      70.701
2015    4        3    18  42    4.4473   690.0    2.683      70.700
2015    4        3    18  47    4.4463   690.0    2.682      70.698
2015    4        3    18  53    4.4452   690.0    2.682      70.697
2015    4        3    18  59    4.4443   690.0    2.681      70.695
2015    4        3    19   5    4.4433   690.0    2.681      70.694
2015    4        3    19  11    4.4423   690.0    2.680      70.692
2015    4        3    19  17    4.4413   690.0    2.680      70.690
2015    4        3    19  23    4.4403   690.0    2.679      70.688
2015    4        3    19  29    4.4393   690.0    2.679      70.685
2015    4        3    19  35    4.4383   690.0    2.678      70.683
2015    4        3    19  41    4.4373   690.0    2.678      70.680
2015    4        3    19  46    4.4363   690.0    2.677      70.677
2015    4        3    19  52    4.4353   690.0    2.676      70.674
2015    4        3    19  58    4.4343   690.0    2.676      70.671
2015    4        3    20   4    4.4333   690.0    2.675      70.668
2015    4        3    20  10    4.4323   689.9    2.675      70.664
2015    4        3    20  16    4.4313   689.9    2.674      70.660
2015    4        3    20  22    4.4303   689.9    2.673      70.656
2015    4        3    20  28    4.4293   689.9    2.673      70.652
2015    4        3    20  34    4.4283   689.9    2.672      70.648
2015    4        3    20  40    4.4273   689.9    2.672      70.644
2015    4        3    20  45    4.4263   689.9    2.671      70.639
2015    4        3    20  51    4.4253   689.9    2.670      70.635
2015    4        3    20  57    4.4243   689.9    2.670      70.630
2015    4        3    21   3    4.4233   689.9    2.669      70.625
2015    4        3    21   9    4.4223   689.9    2.669      70.620
2015    4        3    21  15    4.4214   689.8    2.668      70.615
2015    4        3    21  21    4.4204   689.8    2.667      70.610
2015    4        3    21  27    4.4194   689.8    2.667      70.605
2015    4        3    21  33    4.4184   689.8    2.666      70.599
2015    4        3    21  38    4.4174   689.8    2.666      70.594
2015    4        3    21  44    4.4164   689.8    2.665      70.588
2015    4        3    21  50    4.4154   689.8    2.664      70.583
2015    4        3    21  56    4.4144   689.8    2.664      70.577
2015    4        3    22   2    4.4134   689.8    2.663      70.572
2015    4        3    22   8    4.4124   689.8    2.663      70.566
2015    4        3    22  14    4.4114   689.7    2.662      70.560
2015    4        3    22  20    4.4104   689.7    2.661      70.555
2015    4        3    22  26    4.4094   689.7    2.661      70.549
2015    4        3    22  32    4.4084   689.7    2.660      70.543
2015    4        3    22  37    4.4074   689.7    2.660      70.537
2015    4        3    22  43    4.4064   689.7    2.659      70.532
2015    4        3    22  49    4.4054   689.7    2.659      70.526
2015    4        3    22  55    4.4044   689.7    2.658      70.520
2015    4        3    23   1    4.4034   689.6    2.657      70.514
2015    4        3    23   7    4.4024   689.6    2.657      70.508
2015    4        3    23  13    4.4014   689.6    2.656      70.503
2015    4        3    23  19    4.4004   689.6    2.656      70.497
2015    4        3    23  25    4.3994   689.6    2.655      70.491
2015    4        3    23  31    4.3984   689.6    2.655      70.485
2015    4        3    23  36    4.3974   689.6    2.654      70.480
2015    4        3    23  42    4.3964   689.5    2.654      70.474
2015    4        3    23  48    4.3954   689.5    2.653      70.468
2015    4        3    23  54    4.3944   689.5    2.653      70.463
2015    4        4     0   0    4.3934   689.5    2.652      70.457
2015    4        4     0   6    4.3924   689.5    2.652      70.451
2015    4        4     0  12    4.3914   689.5    2.651      70.446
2015    4        4     0  18    4.3905   689.5    2.651      70.441
2015    4        4     0  24    4.3895   689.4    2.650      70.435
2015    4        4     0  29    4.3885   689.4    2.650      70.430
2015    4        4     0  35    4.3875   689.4    2.649      70.425
2015    4        4     0  41    4.3865   689.4    2.649      70.420
2015    4        4     0  47    4.3855   689.4    2.648      70.415
2015    4        4     0  53    4.3846   689.4    2.648      70.410
2015    4        4     0  59    4.3836   689.4    2.647      70.405
2015    4        4     1   5    4.3826   689.3    2.647      70.400
2015    4        4     1  11    4.3816   689.3    2.646      70.396
2015    4        4     1  17    4.3807   689.3    2.646      70.392
2015    4        4     1  23    4.3797   689.3    2.646      70.387
2015    4        4     1  28    4.3788   689.3    2.645      70.383
2015    4        4     1  34    4.3778   689.3    2.645      70.379
2015    4        4     1  40    4.3768   689.2    2.644      70.375
2015    4        4     1  46    4.3759   689.2    2.644      70.372
2015    4        4     1  52    4.3749   689.2    2.644      70.368
2015    4        4     1  58    4.3739   689.2    2.643      70.364
2015    4        4     2   4    4.3730   689.2    2.643      70.360
2015    4        4     2  10    4.3720   689.2    2.642      70.357
2015    4        4     2  16    4.3711   689.2    2.642      70.353
2015    4        4     2  22    4.3701   689.1    2.641      70.349
2015    4        4     2  27    4.3691   689.1    2.641      70.346
2015    4        4     2  33    4.3681   689.1    2.641      70.342
2015    4        4     2  39    4.3672   689.1    2.640      70.338
2015    4        4     2  45    4.3662   689.1    2.640      70.334
2015    4        4     2  51    4.3652   689.1    2.639      70.329
2015    4        4     2  57    4.3642   689.1    2.639      70.325
2015    4        4     3   3    4.3632   689.0    2.638      70.320
2015    4        4     3   9    4.3623   689.0    2.638      70.316
2015    4        4     3  15    4.3613   689.0    2.637      70.311
2015    4        4     3  20    4.3603   689.0    2.637      70.305
2015    4        4     3  26    4.3593   689.0    2.637      70.300
2015    4        4     3  32    4.3583   689.0    2.636      70.294
2015    4        4     3  38    4.3573   688.9    2.636      70.289
2015    4        4     3  44    4.3563   688.9    2.635      70.283
2015    4        4     3  50    4.3553   688.9    2.635      70.277
2015    4        4     3  56    4.3544   688.9    2.634      70.271
2015    4        4     4   2    4.3534   688.9    2.634      70.265
2015    4        4     4   8    4.3524   688.8    2.633      70.258
2015    4        4     4  14    4.3514   688.8    2.633      70.252
2015    4        4     4  19    4.3504   688.8    2.632      70.246
2015    4        4     4  25    4.3494   688.8    2.632      70.239
2015    4        4     4  31    4.3484   688.8    2.631      70.233
2015    4        4     4  37    4.3474   688.8    2.631      70.226
2015    4        4     4  43    4.3464   688.7    2.631      70.220
2015    4        4     4  49    4.3454   688.7    2.630      70.213
2015    4        4     4  55    4.3445   688.7    2.630      70.207
2015    4        4     5   1    4.3435   688.7    2.629      70.201
2015    4        4     5   7    4.3425   688.6    2.629      70.195
2015    4        4     5  13    4.3415   688.6    2.629      70.189
2015    4        4     5  18    4.3405   688.6    2.628      70.183
2015    4        4     5  24    4.3395   688.6    2.628      70.177
2015    4        4     5  30    4.3385   688.6    2.628      70.171
2015    4        4     5  36    4.3375   688.5    2.627      70.165
2015    4        4     5  42    4.3365   688.5    2.627      70.159
2015    4        4     5  48    4.3355   688.5    2.627      70.153
2015    4        4     5  54    4.3345   688.5    2.626      70.147
2015    4        4     6   0    4.3335   688.5    2.626      70.141
2015    4        4     6   6    4.3325   688.4    2.625      70.135
2015    4        4     6  12    4.3315   688.4    2.625      70.128
2015    4        4     6  17    4.3304   688.4    2.625      70.122
2015    4        4     6  23    4.3294   688.4    2.624      70.115
2015    4        4     6  29    4.3284   688.3    2.624      70.109
2015    4        4     6  35    4.3273   688.3    2.624      70.102
2015    4        4     6  41    4.3263   688.3    2.623      70.095
2015    4        4     6  47    4.3253   688.3    2.623      70.088
2015    4        4     6  53    4.3242   688.2    2.622      70.081
2015    4        4     6  59    4.3232   688.2    2.622      70.073
2015    4        4     7   5    4.3222   688.2    2.622      70.066
2015    4        4     7  10    4.3211   688.2    2.621      70.058
2015    4        4     7  16    4.3201   688.1    2.621      70.050
2015    4        4     7  22    4.3191   688.1    2.620      70.042
2015    4        4     7  28    4.3180   688.1    2.620      70.034
2015    4        4     7  34    4.3170   688.0    2.619      70.025
2015    4        4     7  40    4.3160   688.0    2.619      70.017
2015    4        4     7  46    4.3150   688.0    2.619      70.008
2015    4        4     7  52    4.3139   688.0    2.618      70.000
2015    4        4     7  58    4.3129   687.9    2.618      69.991
2015    4        4     8   4    4.3119   687.9    2.617      69.982
2015    4        4     8   9    4.3109   687.9    2.617      69.974
2015    4        4     8  15    4.3099   687.9    2.616      69.965
2015    4        4     8  21    4.3089   687.8    2.616      69.956
2015    4        4     8  27    4.3079   687.8    2.616      69.948
2015    4        4     8  33    4.3069   687.8    2.615      69.939
2015    4        4     8  39    4.3060   687.7    2.615      69.930
2015    4        4     8  45    4.3050   687.7    2.614      69.922
2015    4        4     8  51    4.3040   687.7    2.614      69.913
2015    4        4     8  57    4.3030   687.7    2.614      69.905
2015    4        4     9   2    4.3020   687.6    2.613      69.897
2015    4        4     9   8    4.3010   687.6    2.613      69.888
2015    4        4     9  14    4.3001   687.6    2.613      69.880
2015    4        4     9  20    4.2991   687.5    2.612      69.872
2015    4        4     9  26    4.2981   687.5    2.612      69.864
2015    4        4     9  32    4.2971   687.5    2.612      69.856
2015    4        4     9  38    4.2961   687.5    2.611      69.847
2015    4        4     9  44    4.2951   687.4    2.611      69.840
2015    4        4     9  50    4.2942   687.4    2.611      69.832
2015    4        4     9  56    4.2931   687.4    2.610      69.823
2015    4        4    10   1    4.2922   687.4    2.610      69.816
2015    4        4    10   7    4.2912   687.3    2.610      69.808
2015    4        4    10  13    4.2901   687.3    2.609      69.799
2015    4        4    10  19    4.2892   687.3    2.609      69.791
2015    4        4    10  25    4.2881   687.2    2.609      69.783
2015    4        4    10  31    4.2871   687.2    2.609      69.775
2015    4        4    10  37    4.2861   687.2    2.608      69.767
2015    4        4    10  43    4.2851   687.2    2.608      69.759
2015    4        4    10  49    4.2841   687.1    2.608      69.750
2015    4        4    10  55    4.2831   687.1    2.608      69.742
2015    4        4    11   0    4.2820   687.1    2.607      69.733
2015    4        4    11   6    4.2810   687.0    2.607      69.725
2015    4        4    11  12    4.2800   687.0    2.607      69.716
2015    4        4    11  18    4.2789   687.0    2.607      69.707
2015    4        4    11  24    4.2779   687.0    2.606      69.699
2015    4        4    11  30    4.2769   686.9    2.606      69.690
2015    4        4    11  36    4.2758   686.9    2.606      69.681
2015    4        4    11  42    4.2748   686.9    2.606      69.672
2015    4        4    11  48    4.2738   686.8    2.605      69.663
2015    4        4    11  54    4.2727   686.8    2.605      69.654
2015    4        4    11  59    4.2717   686.8    2.605      69.645
2015    4        4    12   5    4.2706   686.7    2.605      69.636
2015    4        4    12  11    4.2696   686.7    2.604      69.627
2015    4        4    12  17    4.2686   686.7    2.604      69.618
2015    4        4    12  23    4.2675   686.7    2.604      69.610
2015    4        4    12  29    4.2664   686.6    2.604      69.601
2015    4        4    12  35    4.2654   686.6    2.603      69.592
2015    4        4    12  41    4.2643   686.6    2.603      69.583
2015    4        4    12  47    4.2633   686.5    2.603      69.574
2015    4        4    12  52    4.2622   686.5    2.603      69.565
2015    4        4    12  58    4.2612   686.5    2.602      69.556
2015    4        4    13   4    4.2601   686.4    2.602      69.547
2015    4        4    13  10    4.2590   686.4    2.602      69.539
2015    4        4    13  16    4.2580   686.3    2.602      69.530
2015    4        4    13  22    4.2569   686.3    2.602      69.521
2015    4        4    13  28    4.2558   686.3    2.601      69.513
2015    4        4    13  34    4.2548   686.2    2.601      69.504
2015    4        4    13  40    4.2537   686.2    2.601      69.496
2015    4        4    13  46    4.2526   686.2    2.601      69.487
2015    4        4    13  51    4.2516   686.1    2.601      69.478
2015    4        4    13  57    4.2505   686.1    2.600      69.470
2015    4        4    14   3    4.2494   686.1    2.600      69.461
2015    4        4    14   9    4.2484   686.0    2.600      69.452
2015    4        4    14  15    4.2473   686.0    2.600      69.444
2015    4        4    14  21    4.2462   685.9    2.600      69.434
2015    4        4    14  27    4.2451   685.9    2.600      69.425
2015    4        4    14  33    4.2440   685.9    2.599      69.416
2015    4        4    14  39    4.2430   685.8    2.599      69.407
2015    4        4    14  45    4.2419   685.8    2.599      69.397
2015    4        4    14  50    4.2408   685.8    2.599      69.387
2015    4        4    14  56    4.2397   685.7    2.599      69.377
2015    4        4    15   2    4.2386   685.7    2.598      69.367
2015    4        4    15   8    4.2375   685.6    2.598      69.356
2015    4        4    15  14    4.2364   685.6    2.598      69.345
2015    4        4    15  20    4.2353   685.6    2.598      69.334
2015    4        4    15  26    4.2342   685.5    2.597      69.323
2015    4        4    15  32    4.2331   685.5    2.597      69.311
2015    4        4    15  38    4.2320   685.4    2.597      69.299
2015    4        4    15  43    4.2309   685.4    2.596      69.287
2015    4        4    15  49    4.2298   685.4    2.596      69.275
2015    4        4    15  55    4.2287   685.3    2.596      69.262
2015    4        4    16   1    4.2276   685.3    2.596      69.250
2015    4        4    16   7    4.2265   685.2    2.595      69.237
2015    4        4    16  13    4.2254   685.2    2.595      69.225
2015    4        4    16  19    4.2243   685.1    2.595      69.212
2015    4        4    16  25    4.2232   685.1    2.595      69.200
2015    4        4    16  31    4.2221   685.1    2.594      69.188
2015    4        4    16  37    4.2210   685.0    2.594      69.175
2015    4        4    16  42    4.2199   685.0    2.594      69.163
2015    4        4    16  48    4.2188   684.9    2.594      69.151
2015    4        4    16  54    4.2176   684.9    2.593      69.139
2015    4        4    17   0    4.2166   684.8    2.593      69.127
2015    4        4    17   6    4.2155   684.8    2.593      69.116
2015    4        4    17  12    4.2144   684.7    2.593      69.104
2015    4        4    17  18    4.2133   684.7    2.593      69.093
2015    4        4    17  24    4.2122   684.7    2.593      69.081
2015    4        4    17  30    4.2111   684.6    2.592      69.070
2015    4        4    17  36    4.2100   684.6    2.592      69.058
2015    4        4    17  41    4.2088   684.5    2.592      69.046
2015    4        4    17  47    4.2077   684.5    2.592      69.035
2015    4        4    17  53    4.2066   684.4    2.592      69.023
2015    4        4    17  59    4.2055   684.4    2.592      69.010
2015    4        4    18   5    4.2043   684.4    2.591      68.998
2015    4        4    18  11    4.2032   684.3    2.591      68.985
2015    4        4    18  17    4.2020   684.3    2.591      68.972
2015    4        4    18  23    4.2009   684.2    2.591      68.958
2015    4        4    18  29    4.1997   684.2    2.590      68.944
2015    4        4    18  34    4.1986   684.1    2.590      68.930
2015    4        4    18  40    4.1974   684.1    2.590      68.915
2015    4        4    18  46    4.1962   684.0    2.589      68.899
2015    4        4    18  52    4.1950   684.0    2.589      68.883
2015    4        4    18  58    4.1938   683.9    2.589      68.867
2015    4        4    19   4    4.1927   683.9    2.588      68.850
2015    4        4    19  10    4.1915   683.8    2.588      68.833
2015    4        4    19  16    4.1903   683.8    2.588      68.816
2015    4        4    19  22    4.1891   683.7    2.587      68.798
2015    4        4    19  28    4.1879   683.7    2.587      68.780
2015    4        4    19  33    4.1867   683.6    2.586      68.762
2015    4        4    19  39    4.1854   683.6    2.586      68.744
2015    4        4    19  45    4.1842   683.5    2.585      68.726
2015    4        4    19  51    4.1830   683.5    2.585      68.707
2015    4        4    19  57    4.1818   683.4    2.585      68.689
2015    4        4    20   3    4.1806   683.4    2.584      68.670
2015    4        4    20   9    4.1794   683.3    2.584      68.652
2015    4        4    20  15    4.1781   683.2    2.583      68.634
2015    4        4    20  21    4.1769   683.2    2.583      68.616
2015    4        4    20  27    4.1757   683.1    2.583      68.598
2015    4        4    20  32    4.1744   683.1    2.582      68.581
2015    4        4    20  38    4.1732   683.0    2.582      68.563
2015    4        4    20  44    4.1720   683.0    2.582      68.546
2015    4        4    20  50    4.1707   682.9    2.581      68.529
2015    4        4    20  56    4.1695   682.9    2.581      68.513
2015    4        4    21   2    4.1682   682.8    2.581      68.497
2015    4        4    21   8    4.1670   682.7    2.581      68.481
2015    4        4    21  14    4.1657   682.7    2.581      68.465
2015    4        4    21  20    4.1645   682.6    2.580      68.449
2015    4        4    21  26    4.1632   682.5    2.580      68.433
2015    4        4    21  31    4.1619   682.5    2.580      68.418
2015    4        4    21  37    4.1606   682.4    2.580      68.402
2015    4        4    21  43    4.1593   682.4    2.580      68.387
2015    4        4    21  49    4.1581   682.3    2.580      68.372
2015    4        4    21  55    4.1568   682.2    2.580      68.356
2015    4        4    22   1    4.1555   682.2    2.580      68.341
2015    4        4    22   7    4.1542   682.1    2.579      68.326
2015    4        4    22  13    4.1528   682.0    2.579      68.310
2015    4        4    22  19    4.1515   682.0    2.579      68.294
2015    4        4    22  24    4.1502   681.9    2.579      68.278
2015    4        4    22  30    4.1489   681.8    2.579      68.262
2015    4        4    22  36    4.1476   681.8    2.579      68.246
2015    4        4    22  42    4.1463   681.7    2.579      68.229
2015    4        4    22  48    4.1449   681.6    2.579      68.213
2015    4        4    22  54    4.1436   681.5    2.579      68.196
2015    4        4    23   0    4.1423   681.5    2.579      68.179
2015    4        4    23   6    4.1410   681.4    2.579      68.161
2015    4        4    23  12    4.1396   681.3    2.579      68.144
2015    4        4    23  18    4.1383   681.3    2.578      68.127
2015    4        4    23  23    4.1370   681.2    2.578      68.109
2015    4        4    23  29    4.1357   681.1    2.578      68.092
2015    4        4    23  35    4.1344   681.0    2.578      68.075
2015    4        4    23  41    4.1331   681.0    2.578      68.058
2015    4        4    23  47    4.1318   680.9    2.578      68.041
2015    4        4    23  53    4.1305   680.8    2.578      68.024
2015    4        4    23  59    4.1292   680.8    2.578      68.008
2015    4        5     0   5    4.1279   680.7    2.578      67.992
2015    4        5     0  11    4.1266   680.6    2.578      67.976
2015    4        5     0  17    4.1254   680.5    2.578      67.960
2015    4        5     0  22    4.1241   680.5    2.578      67.945
2015    4        5     0  28    4.1228   680.4    2.579      67.930
2015    4        5     0  34    4.1215   680.3    2.579      67.915
2015    4        5     0  40    4.1202   680.2    2.579      67.901
2015    4        5     0  46    4.1189   680.2    2.579      67.886
2015    4        5     0  52    4.1176   680.1    2.579      67.872
2015    4        5     0  58    4.1163   680.0    2.579      67.857
2015    4        5     1   4    4.1150   679.9    2.579      67.843
2015    4        5     1  10    4.1137   679.9    2.579      67.827
2015    4        5     1  15    4.1124   679.8    2.579      67.812
2015    4        5     1  21    4.1110   679.7    2.579      67.795
2015    4        5     1  27    4.1097   679.6    2.579      67.778
2015    4        5     1  33    4.1083   679.6    2.578      67.759
2015    4        5     1  39    4.1070   679.5    2.578      67.739
2015    4        5     1  45    4.1056   679.4    2.578      67.717
2015    4        5     1  51    4.1042   679.3    2.577      67.695
2015    4        5     1  57    4.1028   679.2    2.577      67.672
2015    4        5     2   3    4.1014   679.2    2.577      67.648
2015    4        5     2   9    4.1001   679.1    2.576      67.623
2015    4        5     2  14    4.0987   679.0    2.576      67.598
2015    4        5     2  20    4.0972   678.9    2.575      67.571
2015    4        5     2  26    4.0958   678.8    2.574      67.544
2015    4        5     2  32    4.0944   678.8    2.574      67.516
2015    4        5     2  38    4.0930   678.7    2.573      67.488
2015    4        5     2  44    4.0916   678.6    2.573      67.459
2015    4        5     2  50    4.0902   678.5    2.572      67.430
2015    4        5     2  56    4.0887   678.4    2.571      67.400
2015    4        5     3   2    4.0873   678.3    2.571      67.369
2015    4        5     3   8    4.0859   678.3    2.570      67.338
2015    4        5     3  13    4.0844   678.2    2.569      67.308
2015    4        5     3  19    4.0830   678.1    2.569      67.276
2015    4        5     3  25    4.0815   678.0    2.568      67.245
2015    4        5     3  31    4.0800   677.9    2.568      67.213
2015    4        5     3  37    4.0786   677.8    2.567      67.182
2015    4        5     3  43    4.0771   677.7    2.566      67.150
2015    4        5     3  49    4.0756   677.6    2.566      67.119
2015    4        5     3  55    4.0741   677.6    2.565      67.088
2015    4        5     4   1    4.0726   677.5    2.565      67.056
2015    4        5     4   7    4.0711   677.4    2.564      67.026
2015    4        5     4  12    4.0696   677.3    2.563      66.995
2015    4        5     4  18    4.0681   677.2    2.563      66.965
2015    4        5     4  24    4.0665   677.1    2.562      66.935
2015    4        5     4  30    4.0650   677.0    2.562      66.906
2015    4        5     4  36    4.0635   676.9    2.562      66.876
2015    4        5     4  42    4.0619   676.8    2.561      66.848
2015    4        5     4  48    4.0604   676.7    2.561      66.819
2015    4        5     4  54    4.0588   676.6    2.560      66.791
2015    4        5     5   0    4.0572   676.5    2.560      66.763
2015    4        5     5   5    4.0557   676.4    2.560      66.734
2015    4        5     5  11    4.0541   676.3    2.559      66.707
2015    4        5     5  17    4.0526   676.2    2.559      66.679
2015    4        5     5  23    4.0510   676.1    2.559      66.651
2015    4        5     5  29    4.0494   675.9    2.559      66.623
2015    4        5     5  35    4.0478   675.8    2.558      66.595
2015    4        5     5  41    4.0463   675.7    2.558      66.568
2015    4        5     5  47    4.0447   675.6    2.558      66.540
2015    4        5     5  53    4.0431   675.5    2.558      66.512
2015    4        5     5  59    4.0416   675.4    2.557      66.484
2015    4        5     6   4    4.0400   675.2    2.557      66.455
2015    4        5     6  10    4.0385   675.1    2.557      66.427
2015    4        5     6  16    4.0370   675.0    2.557      66.399
2015    4        5     6  22    4.0354   674.9    2.557      66.370
2015    4        5     6  28    4.0339   674.8    2.557      66.342
2015    4        5     6  34    4.0324   674.6    2.557      66.313
2015    4        5     6  40    4.0309   674.5    2.556      66.284
2015    4        5     6  46    4.0294   674.4    2.556      66.256
2015    4        5     6  52    4.0279   674.3    2.556      66.227
2015    4        5     6  58    4.0265   674.1    2.556      66.198
2015    4        5     7   3    4.0250   674.0    2.556      66.169
2015    4        5     7   9    4.0235   673.9    2.556      66.141
2015    4        5     7  15    4.0220   673.8    2.556      66.112
2015    4        5     7  21    4.0205   673.7    2.556      66.084
2015    4        5     7  27    4.0191   673.5    2.556      66.055
2015    4        5     7  33    4.0175   673.4    2.556      66.027
2015    4        5     7  39    4.0160   673.3    2.556      65.999
2015    4        5     7  45    4.0145   673.2    2.556      65.971
2015    4        5     7  51    4.0130   673.0    2.557      65.943
2015    4        5     7  56    4.0115   672.9    2.557      65.916
2015    4        5     8   2    4.0100   672.8    2.557      65.889
2015    4        5     8   8    4.0085   672.7    2.557      65.861
2015    4        5     8  14    4.0069   672.5    2.557      65.835
2015    4        5     8  20    4.0054   672.4    2.557      65.808
2015    4        5     8  26    4.0038   672.3    2.557      65.781
2015    4        5     8  32    4.0022   672.2    2.557      65.754
2015    4        5     8  38    4.0006   672.0    2.557      65.727
2015    4        5     8  44    3.9990   671.9    2.557      65.698
2015    4        5     8  50    3.9974   671.8    2.557      65.668
2015    4        5     8  55    3.9958   671.7    2.557      65.638
2015    4        5     9   1    3.9941   671.5    2.557      65.607
2015    4        5     9   7    3.9925   671.4    2.557      65.576
2015    4        5     9  13    3.9909   671.3    2.557      65.543
2015    4        5     9  19    3.9892   671.1    2.556      65.511
2015    4        5     9  25    3.9875   671.0    2.556      65.478
2015    4        5     9  31    3.9859   670.9    2.556      65.445
2015    4        5     9  37    3.9842   670.7    2.556      65.412
2015    4        5     9  43    3.9826   670.6    2.556      65.379
2015    4        5     9  49    3.9809   670.4    2.556      65.347
2015    4        5     9  54    3.9793   670.3    2.556      65.315
2015    4        5    10   0    3.9777   670.2    2.556      65.283
2015    4        5    10   6    3.9760   670.0    2.556      65.251
2015    4        5    10  12    3.9744   669.9    2.556      65.220
2015    4        5    10  18    3.9728   669.7    2.556      65.189
2015    4        5    10  24    3.9712   669.6    2.557      65.158
2015    4        5    10  30    3.9696   669.5    2.557      65.128
2015    4        5    10  36    3.9681   669.3    2.557      65.097
2015    4        5    10  42    3.9665   669.2    2.557      65.067
2015    4        5    10  47    3.9649   669.1    2.557      65.036
2015    4        5    10  53    3.9632   668.9    2.557      65.004
2015    4        5    10  59    3.9616   668.8    2.557      64.971
2015    4        5    11   5    3.9600   668.7    2.556      64.937
2015    4        5    11  11    3.9583   668.5    2.556      64.902
2015    4        5    11  17    3.9566   668.4    2.556      64.867
2015    4        5    11  23    3.9549   668.3    2.556      64.830
2015    4        5    11  29    3.9532   668.1    2.555      64.793
2015    4        5    11  35    3.9515   668.0    2.555      64.755
2015    4        5    11  41    3.9498   667.8    2.555      64.716
2015    4        5    11  46    3.9481   667.7    2.554      64.677
2015    4        5    11  52    3.9463   667.6    2.554      64.638
2015    4        5    11  58    3.9446   667.4    2.553      64.598
2015    4        5    12   4    3.9428   667.3    2.553      64.558
2015    4        5    12  10    3.9411   667.2    2.552      64.517
2015    4        5    12  16    3.9393   667.0    2.552      64.477
2015    4        5    12  22    3.9376   666.9    2.551      64.436
2015    4        5    12  28    3.9358   666.7    2.551      64.395
2015    4        5    12  34    3.9341   666.6    2.550      64.354
2015    4        5    12  40    3.9324   666.4    2.550      64.313
2015    4        5    12  45    3.9306   666.3    2.549      64.271
2015    4        5    12  51    3.9289   666.1    2.549      64.230
2015    4        5    12  57    3.9272   666.0    2.548      64.188
2015    4        5    13   3    3.9254   665.8    2.548      64.147
2015    4        5    13   9    3.9237   665.7    2.548      64.105
2015    4        5    13  15    3.9220   665.5    2.547      64.063
2015    4        5    13  21    3.9203   665.4    2.547      64.022
2015    4        5    13  27    3.9186   665.2    2.546      63.980
2015    4        5    13  33    3.9169   665.1    2.546      63.938
2015    4        5    13  38    3.9152   664.9    2.546      63.896
2015    4        5    13  44    3.9135   664.7    2.545      63.855
2015    4        5    13  50    3.9118   664.6    2.545      63.813
2015    4        5    13  56    3.9101   664.4    2.545      63.772
2015    4        5    14   2    3.9085   664.2    2.545      63.730
2015    4        5    14   8    3.9068   664.0    2.544      63.689
2015    4        5    14  14    3.9052   663.9    2.544      63.648
2015    4        5    14  20    3.9035   663.7    2.544      63.607
2015    4        5    14  26    3.9019   663.5    2.544      63.567
2015    4        5    14  32    3.9003   663.4    2.544      63.526
2015    4        5    14  37    3.8987   663.2    2.544      63.485
2015    4        5    14  43    3.8971   663.0    2.544      63.444
2015    4        5    14  49    3.8954   662.8    2.544      63.403
2015    4        5    14  55    3.8938   662.7    2.544      63.362
2015    4        5    15   1    3.8922   662.5    2.544      63.321
2015    4        5    15   7    3.8905   662.3    2.544      63.278
2015    4        5    15  13    3.8888   662.1    2.544      63.236
2015    4        5    15  19    3.8872   661.9    2.544      63.192
2015    4        5    15  25    3.8855   661.8    2.544      63.148
2015    4        5    15  31    3.8837   661.6    2.543      63.104
2015    4        5    15  36    3.8820   661.4    2.543      63.059
2015    4        5    15  42    3.8803   661.2    2.543      63.013
2015    4        5    15  48    3.8785   661.0    2.543      62.967
2015    4        5    15  54    3.8767   660.8    2.543      62.920
2015    4        5    16   0    3.8750   660.7    2.542      62.873
2015    4        5    16   6    3.8731   660.5    2.542      62.826
2015    4        5    16  12    3.8713   660.3    2.542      62.779
2015    4        5    16  18    3.8695   660.1    2.542      62.731
2015    4        5    16  24    3.8677   659.9    2.541      62.683
2015    4        5    16  30    3.8659   659.7    2.541      62.635
2015    4        5    16  35    3.8640   659.5    2.541      62.587
2015    4        5    16  41    3.8622   659.3    2.541      62.540
2015    4        5    16  47    3.8603   659.1    2.541      62.492
2015    4        5    16  53    3.8584   658.9    2.540      62.444
2015    4        5    16  59    3.8566   658.7    2.540      62.397
2015    4        5    17   5    3.8548   658.5    2.540      62.351
2015    4        5    17  11    3.8529   658.3    2.540      62.305
2015    4        5    17  17    3.8511   658.1    2.540      62.260
2015    4        5    17  23    3.8493   657.9    2.540      62.215
2015    4        5    17  28    3.8474   657.7    2.541      62.172
2015    4        5    17  34    3.8456   657.5    2.541      62.130
2015    4        5    17  40    3.8438   657.3    2.541      62.088
2015    4        5    17  46    3.8421   657.1    2.541      62.048
2015    4        5    17  52    3.8403   656.9    2.542      62.008
2015    4        5    17  58    3.8386   656.7    2.542      61.970
2015    4        5    18   4    3.8368   656.5    2.543      61.932
2015    4        5    18  10    3.8351   656.3    2.543      61.894
2015    4        5    18  16    3.8334   656.1    2.544      61.857
2015    4        5    18  22    3.8316   655.9    2.544      61.819
2015    4        5    18  27    3.8298   655.7    2.544      61.780
2015    4        5    18  33    3.8281   655.5    2.545      61.741
2015    4        5    18  39    3.8263   655.3    2.545      61.701
2015    4        5    18  45    3.8245   655.1    2.546      61.660
2015    4        5    18  51    3.8228   654.9    2.546      61.620
2015    4        5    18  57    3.8210   654.7    2.547      61.578
2015    4        5    19   3    3.8192   654.5    2.547      61.537
2015    4        5    19   9    3.8174   654.2    2.548      61.495
2015    4        5    19  15    3.8157   654.0    2.548      61.454
2015    4        5    19  21    3.8139   653.8    2.549      61.412
2015    4        5    19  26    3.8122   653.6    2.550      61.371
2015    4        5    19  32    3.8104   653.4    2.550      61.331
2015    4        5    19  38    3.8087   653.2    2.551      61.290
2015    4        5    19  44    3.8070   653.0    2.552      61.250
2015    4        5    19  50    3.8052   652.8    2.552      61.210
2015    4        5    19  56    3.8035   652.6    2.553      61.171
2015    4        5    20   2    3.8018   652.4    2.554      61.133
2015    4        5    20   8    3.8001   652.2    2.554      61.095
2015    4        5    20  14    3.7984   652.0    2.555      61.058
2015    4        5    20  19    3.7966   651.8    2.555      61.020
2015    4        5    20  25    3.7948   651.6    2.555      60.981
2015    4        5    20  31    3.7931   651.4    2.556      60.941
2015    4        5    20  37    3.7913   651.2    2.556      60.900
2015    4        5    20  43    3.7895   651.0    2.556      60.858
2015    4        5    20  49    3.7877   650.8    2.557      60.816
2015    4        5    20  55    3.7859   650.6    2.557      60.773
2015    4        5    21   1    3.7841   650.4    2.557      60.730
2015    4        5    21   7    3.7822   650.2    2.557      60.686
2015    4        5    21  13    3.7804   650.0    2.557      60.642
2015    4        5    21  18    3.7786   649.8    2.558      60.598
2015    4        5    21  24    3.7768   649.6    2.558      60.553
2015    4        5    21  30    3.7750   649.4    2.558      60.508
2015    4        5    21  36    3.7731   649.2    2.558      60.463
2015    4        5    21  42    3.7713   649.0    2.558      60.417
2015    4        5    21  48    3.7695   648.8    2.558      60.372
2015    4        5    21  54    3.7677   648.6    2.558      60.326
2015    4        5    22   0    3.7658   648.4    2.559      60.280
2015    4        5    22   6    3.7640   648.2    2.559      60.234
2015    4        5    22  12    3.7622   648.0    2.559      60.187
2015    4        5    22  17    3.7604   647.8    2.559      60.140
2015    4        5    22  23    3.7586   647.5    2.559      60.093
2015    4        5    22  29    3.7568   647.3    2.559      60.045
2015    4        5    22  35    3.7550   647.1    2.559      59.996
2015    4        5    22  41    3.7532   646.9    2.559      59.947
2015    4        5    22  47    3.7513   646.7    2.559      59.898
2015    4        5    22  53    3.7495   646.5    2.559      59.847
2015    4        5    22  59    3.7477   646.2    2.559      59.796
2015    4        5    23   5    3.7459   646.0    2.559      59.745
2015    4        5    23  10    3.7440   645.8    2.559      59.693
2015    4        5    23  16    3.7422   645.6    2.559      59.640
2015    4        5    23  22    3.7404   645.3    2.559      59.587
2015    4        5    23  28    3.7385   645.1    2.559      59.533
2015    4        5    23  34    3.7367   644.9    2.559      59.480
2015    4        5    23  40    3.7348   644.7    2.559      59.426
2015    4        5    23  46    3.7330   644.4    2.559      59.371
2015    4        5    23  52    3.7312   644.2    2.559      59.317
2015    4        5    23  58    3.7293   644.0    2.559      59.262
2015    4        6     0   4    3.7275   643.7    2.559      59.206
2015    4        6     0   9    3.7256   643.5    2.558      59.151
2015    4        6     0  15    3.7237   643.3    2.558      59.095
2015    4        6     0  21    3.7219   643.0    2.558      59.039
2015    4        6     0  27    3.7200   642.8    2.558      58.983
2015    4        6     0  33    3.7181   642.5    2.558      58.926
2015    4        6     0  39    3.7162   642.3    2.557      58.869
2015    4        6     0  45    3.7144   642.0    2.557      58.813
2015    4        6     0  51    3.7125   641.8    2.557      58.756
2015    4        6     0  57    3.7106   641.5    2.557      58.699
2015    4        6     1   3    3.7087   641.3    2.557      58.642
2015    4        6     1   8    3.7069   641.0    2.557      58.586
2015    4        6     1  14    3.7050   640.8    2.556      58.529
2015    4        6     1  20    3.7031   640.5    2.556      58.473
2015    4        6     1  26    3.7013   640.3    2.556      58.416
2015    4        6     1  32    3.6994   640.0    2.556      58.360
2015    4        6     1  38    3.6975   639.8    2.556      58.304
2015    4        6     1  44    3.6957   639.5    2.556      58.248
2015    4        6     1  50    3.6938   639.3    2.556      58.192
2015    4        6     1  56    3.6920   639.0    2.557      58.135
2015    4        6     2   2    3.6901   638.7    2.557      58.079
2015    4        6     2   7    3.6883   638.5    2.557      58.023
2015    4        6     2  13    3.6864   638.2    2.557      57.967
2015    4        6     2  19    3.6846   637.9    2.558      57.911
2015    4        6     2  25    3.6828   637.6    2.558      57.856
2015    4        6     2  31    3.6810   637.3    2.559      57.801
2015    4        6     2  37    3.6792   637.1    2.559      57.747
2015    4        6     2  43    3.6775   636.8    2.560      57.694
2015    4        6     2  49    3.6758   636.5    2.561      57.643
2015    4        6     2  55    3.6741   636.2    2.562      57.593
2015    4        6     3   0    3.6724   635.9    2.563      57.544
2015    4        6     3   6    3.6708   635.6    2.564      57.496
2015    4        6     3  12    3.6692   635.4    2.565      57.451
2015    4        6     3  18    3.6676   635.1    2.566      57.407
2015    4        6     3  24    3.6660   634.8    2.568      57.365
2015    4        6     3  30    3.6644   634.5    2.569      57.325
2015    4        6     3  36    3.6629   634.3    2.571      57.286
2015    4        6     3  42    3.6613   634.0    2.572      57.247
2015    4        6     3  48    3.6598   633.7    2.574      57.208
2015    4        6     3  54    3.6582   633.5    2.575      57.168
2015    4        6     3  59    3.6566   633.2    2.577      57.129
2015    4        6     4   5    3.6550   633.0    2.578      57.089
2015    4        6     4  11    3.6534   632.7    2.580      57.049
2015    4        6     4  17    3.6518   632.4    2.581      57.009
2015    4        6     4  23    3.6502   632.2    2.583      56.968
2015    4        6     4  29    3.6486   631.9    2.584      56.927
2015    4        6     4  35    3.6470   631.6    2.585      56.886
2015    4        6     4  41    3.6453   631.4    2.587      56.844
2015    4        6     4  47    3.6437   631.1    2.588      56.803
2015    4        6     4  53    3.6420   630.8    2.589      56.761
2015    4        6     4  58    3.6403   630.6    2.590      56.718
2015    4        6     5   4    3.6386   630.3    2.591      56.675
2015    4        6     5  10    3.6370   630.1    2.592      56.631
2015    4        6     5  16    3.6353   629.8    2.593      56.587
2015    4        6     5  22    3.6336   629.6    2.594      56.542
2015    4        6     5  28    3.6318   629.3    2.595      56.497
2015    4        6     5  34    3.6301   629.0    2.596      56.452
2015    4        6     5  40    3.6284   628.8    2.597      56.405
2015    4        6     5  46    3.6267   628.5    2.598      56.359
2015    4        6     5  51    3.6250   628.3    2.599      56.312
2015    4        6     5  57    3.6233   628.0    2.600      56.265
2015    4        6     6   3    3.6216   627.8    2.600      56.217
2015    4        6     6   9    3.6199   627.5    2.601      56.169
2015    4        6     6  15    3.6181   627.3    2.602      56.121
2015    4        6     6  21    3.6164   627.0    2.603      56.073
2015    4        6     6  27    3.6147   626.8    2.603      56.024
2015    4        6     6  33    3.6130   626.5    2.604      55.975
2015    4        6     6  39    3.6113   626.3    2.605      55.925
2015    4        6     6  45    3.6095   626.0    2.605      55.876
2015    4        6     6  50    3.6078   625.8    2.606      55.826
2015    4        6     6  56    3.6061   625.5    2.606      55.776
2015    4        6     7   2    3.6043   625.2    2.607      55.725
2015    4        6     7   8    3.6026   625.0    2.608      55.674
2015    4        6     7  14    3.6008   624.7    2.608      55.623
2015    4        6     7  20    3.5991   624.5    2.609      55.572
2015    4        6     7  26    3.5974   624.2    2.609      55.521
2015    4        6     7  32    3.5956   623.9    2.610      55.469
2015    4        6     7  38    3.5939   623.7    2.610      55.417
2015    4        6     7  44    3.5921   623.4    2.610      55.365
2015    4        6     7  49    3.5903   623.1    2.611      55.312
2015    4        6     7  55    3.5886   622.9    2.611      55.260
2015    4        6     8   1    3.5868   622.6    2.612      55.207
2015    4        6     8   7    3.5851   622.3    2.612      55.154
2015    4        6     8  13    3.5833   622.1    2.613      55.102
2015    4        6     8  19    3.5816   621.8    2.613      55.049
2015    4        6     8  25    3.5798   621.5    2.613      54.995
2015    4        6     8  31    3.5781   621.3    2.614      54.942
2015    4        6     8  37    3.5764   621.0    2.614      54.889
2015    4        6     8  43    3.5746   620.7    2.614      54.835
2015    4        6     8  48    3.5729   620.4    2.615      54.782
2015    4        6     8  54    3.5712   620.1    2.615      54.727
2015    4        6     9   0    3.5694   619.9    2.615      54.673
2015    4        6     9   6    3.5677   619.6    2.616      54.618
2015    4        6     9  12    3.5660   619.3    2.616      54.563
2015    4        6     9  18    3.5642   619.0    2.616      54.507
2015    4        6     9  24    3.5625   618.7    2.617      54.451
2015    4        6     9  30    3.5608   618.4    2.617      54.395
2015    4        6     9  36    3.5590   618.1    2.617      54.338
2015    4        6     9  41    3.5573   617.8    2.618      54.281
2015    4        6     9  47    3.5556   617.5    2.618      54.224
2015    4        6     9  53    3.5539   617.2    2.618      54.167
2015    4        6     9  59    3.5522   616.9    2.619      54.110
2015    4        6    10   5    3.5506   616.6    2.619      54.054
2015    4        6    10  11    3.5490   616.3    2.620      53.998
2015    4        6    10  17    3.5473   616.0    2.620      53.942
2015    4        6    10  23    3.5458   615.7    2.621      53.887
2015    4        6    10  29    3.5442   615.4    2.622      53.832
2015    4        6    10  35    3.5426   615.1    2.622      53.778
2015    4        6    10  40    3.5411   614.8    2.623      53.725
2015    4        6    10  46    3.5396   614.5    2.624      53.672
2015    4        6    10  52    3.5381   614.2    2.625      53.619
2015    4        6    10  58    3.5366   613.8    2.626      53.567
2015    4        6    11   4    3.5351   613.5    2.627      53.515
2015    4        6    11  10    3.5336   613.2    2.629      53.463
2015    4        6    11  16    3.5322   612.9    2.630      53.411
2015    4        6    11  22    3.5307   612.6    2.631      53.360
2015    4        6    11  28    3.5292   612.3    2.632      53.308
2015    4        6    11  34    3.5278   612.0    2.634      53.257
2015    4        6    11  39    3.5263   611.6    2.635      53.206
2015    4        6    11  45    3.5248   611.3    2.636      53.156
2015    4        6    11  51    3.5234   611.0    2.638      53.105
2015    4        6    11  57    3.5219   610.7    2.639      53.056
2015    4        6    12   3    3.5205   610.3    2.641      53.007
2015    4        6    12   9    3.5191   610.0    2.642      52.958
2015    4        6    12  15    3.5177   609.7    2.644      52.910
2015    4        6    12  21    3.5163   609.4    2.645      52.862
2015    4        6    12  27    3.5149   609.1    2.647      52.815
2015    4        6    12  32    3.5136   608.7    2.648      52.769
2015    4        6    12  38    3.5123   608.4    2.650      52.724
2015    4        6    12  44    3.5110   608.1    2.652      52.679
2015    4        6    12  50    3.5097   607.8    2.654      52.635
2015    4        6    12  56    3.5084   607.5    2.655      52.591
2015    4        6    13   2    3.5071   607.2    2.657      52.548
2015    4        6    13   8    3.5059   606.9    2.659      52.506
2015    4        6    13  14    3.5046   606.6    2.661      52.464
2015    4        6    13  20    3.5033   606.3    2.663      52.422
2015    4        6    13  26    3.5020   606.0    2.665      52.380
2015    4        6    13  31    3.5007   605.7    2.667      52.338
2015    4        6    13  37    3.4994   605.4    2.669      52.296
2015    4        6    13  43    3.4980   605.1    2.670      52.254
2015    4        6    13  49    3.4967   604.8    2.672      52.213
2015    4        6    13  55    3.4953   604.6    2.674      52.171
2015    4        6    14   1    3.4939   604.3    2.675      52.129
2015    4        6    14   7    3.4925   604.0    2.677      52.087
2015    4        6    14  13    3.4911   603.7    2.679      52.044
2015    4        6    14  19    3.4897   603.4    2.680      52.001
2015    4        6    14  25    3.4883   603.1    2.682      51.958
2015    4        6    14  30    3.4869   602.8    2.683      51.915
2015    4        6    14  36    3.4855   602.5    2.685      51.871
2015    4        6    14  42    3.4841   602.2    2.686      51.828
2015    4        6    14  48    3.4826   601.9    2.687      51.784
2015    4        6    14  54    3.4812   601.7    2.689      51.739
2015    4        6    15   0    3.4798   601.4    2.690      51.695
2015    4        6    15   6    3.4783   601.1    2.692      51.651
2015    4        6    15  12    3.4769   600.8    2.693      51.607
2015    4        6    15  18    3.4755   600.5    2.694      51.562
2015    4        6    15  24    3.4741   600.2    2.696      51.518
2015    4        6    15  29    3.4726   599.9    2.697      51.474
2015    4        6    15  35    3.4712   599.6    2.698      51.429
2015    4        6    15  41    3.4698   599.4    2.699      51.385
2015    4        6    15  47    3.4683   599.1    2.701      51.341
2015    4        6    15  53    3.4669   598.8    2.702      51.297
2015    4        6    15  59    3.4655   598.5    2.703      51.253
2015    4        6    16   5    3.4640   598.2    2.705      51.209
2015    4        6    16  11    3.4626   597.9    2.706      51.165
2015    4        6    16  17    3.4612   597.6    2.707      51.121
2015    4        6    16  22    3.4598   597.3    2.708      51.076
2015    4        6    16  28    3.4583   597.0    2.710      51.032
2015    4        6    16  34    3.4569   596.8    2.711      50.987
2015    4        6    16  40    3.4555   596.5    2.712      50.943
2015    4        6    16  46    3.4540   596.2    2.713      50.898
2015    4        6    16  52    3.4526   595.9    2.715      50.852
2015    4        6    16  58    3.4512   595.6    2.716      50.807
2015    4        6    17   4    3.4497   595.3    2.717      50.761
2015    4        6    17  10    3.4483   595.0    2.718      50.715
2015    4        6    17  16    3.4469   594.7    2.720      50.669
2015    4        6    17  21    3.4455   594.4    2.721      50.623
2015    4        6    17  27    3.4441   594.0    2.722      50.577
2015    4        6    17  33    3.4427   593.7    2.723      50.531
2015    4        6    17  39    3.4413   593.4    2.724      50.484
2015    4        6    17  45    3.4399   593.1    2.726      50.438
2015    4        6    17  51    3.4385   592.8    2.727      50.391
2015    4        6    17  57    3.4372   592.5    2.728      50.344
2015    4        6    18   3    3.4358   592.2    2.729      50.298
2015    4        6    18   9    3.4344   591.9    2.730      50.251
2015    4        6    18  15    3.4331   591.6    2.731      50.203
2015    4        6    18  20    3.4317   591.3    2.732      50.156
2015    4        6    18  26    3.4303   591.0    2.733      50.108
2015    4        6    18  32    3.4289   590.7    2.734      50.059
2015    4        6    18  38    3.4276   590.3    2.735      50.011
2015    4        6    18  44    3.4262   590.0    2.737      49.962
2015    4        6    18  50    3.4249   589.7    2.738      49.914
2015    4        6    18  56    3.4235   589.4    2.739      49.865
2015    4        6    19   2    3.4222   589.0    2.740      49.816
2015    4        6    19   8    3.4209   588.7    2.741      49.767
2015    4        6    19  13    3.4195   588.4    2.742      49.718
2015    4        6    19  19    3.4183   588.1    2.743      49.670
2015    4        6    19  25    3.4170   587.8    2.744      49.622
2015    4        6    19  31    3.4158   587.4    2.745      49.574
2015    4        6    19  37    3.4145   587.1    2.746      49.526
2015    4        6    19  43    3.4133   586.8    2.748      49.479
2015    4        6    19  49    3.4122   586.5    2.749      49.433
2015    4        6    19  55    3.4110   586.1    2.751      49.387
2015    4        6    20   1    3.4099   585.8    2.752      49.342
2015    4        6    20   7    3.4088   585.5    2.754      49.298
2015    4        6    20  12    3.4077   585.2    2.755      49.254
2015    4        6    20  18    3.4067   584.9    2.757      49.210
2015    4        6    20  24    3.4056   584.6    2.759      49.167
2015    4        6    20  30    3.4045   584.3    2.761      49.124
2015    4        6    20  36    3.4034   584.0    2.762      49.082
2015    4        6    20  42    3.4024   583.7    2.764      49.039
2015    4        6    20  48    3.4013   583.4    2.766      48.996
2015    4        6    20  54    3.4001   583.0    2.768      48.954
2015    4        6    21   0    3.3990   582.7    2.770      48.911
2015    4        6    21   6    3.3979   582.4    2.772      48.868
2015    4        6    21  11    3.3967   582.1    2.773      48.826
2015    4        6    21  17    3.3956   581.8    2.775      48.783
2015    4        6    21  23    3.3944   581.5    2.777      48.741
2015    4        6    21  29    3.3933   581.2    2.779      48.699
2015    4        6    21  35    3.3921   580.8    2.781      48.657
2015    4        6    21  41    3.3910   580.5    2.783      48.616
2015    4        6    21  47    3.3899   580.2    2.785      48.574
2015    4        6    21  53    3.3888   579.9    2.787      48.533
2015    4        6    21  59    3.3877   579.6    2.789      48.492
2015    4        6    22   5    3.3866   579.3    2.791      48.452
2015    4        6    22  10    3.3855   579.0    2.793      48.412
2015    4        6    22  16    3.3845   578.7    2.795      48.372
2015    4        6    22  22    3.3834   578.3    2.797      48.333
2015    4        6    22  28    3.3824   578.0    2.799      48.294
2015    4        6    22  34    3.3814   577.7    2.801      48.255
2015    4        6    22  40    3.3803   577.4    2.803      48.217
2015    4        6    22  46    3.3793   577.1    2.805      48.179
2015    4        6    22  52    3.3783   576.8    2.807      48.141
2015    4        6    22  58    3.3773   576.5    2.810      48.103
2015    4        6    23   3    3.3762   576.2    2.812      48.065
2015    4        6    23   9    3.3752   575.9    2.814      48.027
2015    4        6    23  15    3.3741   575.6    2.816      47.989
2015    4        6    23  21    3.3730   575.3    2.818      47.951
2015    4        6    23  27    3.3720   575.0    2.820      47.913
2015    4        6    23  33    3.3709   574.7    2.822      47.875
2015    4        6    23  39    3.3698   574.4    2.824      47.836
2015    4        6    23  45    3.3687   574.1    2.826      47.797
2015    4        6    23  51    3.3676   573.8    2.828      47.758
2015    4        6    23  57    3.3665   573.5    2.830      47.720
2015    4        7     0   3    3.3654   573.2    2.832      47.681
