year    month   day   hour  minute  B_enl V_enl   n_enl       T_enl
[year] [month] [day] [hour][minute] [nT]  [km/s]  [cm-3]      [kK]
2014   12       24     0   3    8.0909   386.1    9.471      49.992
2014   12       24     0   8    8.0960   386.2    9.476      50.048
2014   12       24     0  13    8.1011   386.2    9.482      50.105
2014   12       24     0  18    8.1062   386.3    9.488      50.163
2014   12       24     0  23    8.1113   386.4    9.494      50.221
2014   12       24     0  28    8.1162   386.5    9.501      50.283
2014   12       24     0  33    8.1211   386.5    9.507      50.347
2014   12       24     0  38    8.1260   386.6    9.514      50.414
2014   12       24     0  43    8.1308   386.7    9.521      50.483
2014   12       24     0  48    8.1355   386.8    9.527      50.555
2014   12       24     0  53    8.1401   386.9    9.534      50.630
2014   12       24     0  58    8.1447   387.0    9.540      50.706
2014   12       24     1   3    8.1492   387.1    9.546      50.784
2014   12       24     1   8    8.1536   387.1    9.552      50.864
2014   12       24     1  13    8.1580   387.2    9.557      50.946
2014   12       24     1  18    8.1623   387.3    9.562      51.027
2014   12       24     1  23    8.1665   387.4    9.567      51.108
2014   12       24     1  28    8.1707   387.5    9.572      51.187
2014   12       24     1  33    8.1747   387.6    9.576      51.265
2014   12       24     1  38    8.1788   387.7    9.579      51.343
2014   12       24     1  43    8.1827   387.8    9.583      51.420
2014   12       24     1  48    8.1866   387.9    9.586      51.496
2014   12       24     1  53    8.1904   388.0    9.588      51.571
2014   12       24     1  58    8.1942   388.1    9.590      51.645
2014   12       24     2   3    8.1979   388.2    9.592      51.719
2014   12       24     2   8    8.2015   388.3    9.594      51.791
2014   12       24     2  13    8.2052   388.4    9.595      51.862
2014   12       24     2  18    8.2088   388.5    9.596      51.933
2014   12       24     2  23    8.2123   388.6    9.597      52.002
2014   12       24     2  27    8.2159   388.7    9.597      52.071
2014   12       24     2  32    8.2194   388.8    9.598      52.139
2014   12       24     2  37    8.2229   388.9    9.598      52.206
2014   12       24     2  42    8.2263   389.0    9.597      52.272
2014   12       24     2  47    8.2298   389.0    9.597      52.337
2014   12       24     2  52    8.2332   389.1    9.596      52.402
2014   12       24     2  57    8.2366   389.2    9.595      52.466
2014   12       24     3   2    8.2400   389.3    9.594      52.529
2014   12       24     3   7    8.2434   389.4    9.593      52.592
2014   12       24     3  12    8.2468   389.5    9.592      52.654
2014   12       24     3  17    8.2501   389.6    9.590      52.716
2014   12       24     3  22    8.2535   389.7    9.589      52.777
2014   12       24     3  27    8.2568   389.9    9.587      52.837
2014   12       24     3  32    8.2601   390.0    9.585      52.897
2014   12       24     3  37    8.2635   390.1    9.583      52.956
2014   12       24     3  42    8.2668   390.2    9.581      53.015
2014   12       24     3  47    8.2700   390.3    9.578      53.073
2014   12       24     3  52    8.2733   390.4    9.576      53.131
2014   12       24     3  57    8.2766   390.5    9.574      53.189
2014   12       24     4   2    8.2799   390.6    9.571      53.246
2014   12       24     4   7    8.2831   390.7    9.568      53.303
2014   12       24     4  12    8.2864   390.8    9.566      53.359
2014   12       24     4  17    8.2896   390.9    9.563      53.415
2014   12       24     4  22    8.2929   391.0    9.560      53.471
2014   12       24     4  27    8.2961   391.1    9.557      53.526
2014   12       24     4  32    8.2993   391.2    9.555      53.581
2014   12       24     4  37    8.3026   391.3    9.552      53.636
2014   12       24     4  42    8.3058   391.4    9.549      53.690
2014   12       24     4  47    8.3090   391.5    9.546      53.745
2014   12       24     4  52    8.3122   391.6    9.543      53.799
2014   12       24     4  57    8.3155   391.7    9.540      53.852
2014   12       24     5   2    8.3187   391.9    9.537      53.906
2014   12       24     5   7    8.3219   392.0    9.534      53.959
2014   12       24     5  12    8.3252   392.1    9.531      54.012
2014   12       24     5  17    8.3284   392.2    9.528      54.065
2014   12       24     5  21    8.3317   392.3    9.525      54.118
2014   12       24     5  26    8.3350   392.4    9.523      54.171
2014   12       24     5  31    8.3383   392.5    9.520      54.224
2014   12       24     5  36    8.3416   392.6    9.517      54.276
2014   12       24     5  41    8.3450   392.7    9.514      54.329
2014   12       24     5  46    8.3483   392.8    9.512      54.382
2014   12       24     5  51    8.3517   392.9    9.509      54.434
2014   12       24     5  56    8.3552   393.0    9.507      54.487
2014   12       24     6   1    8.3587   393.2    9.505      54.541
2014   12       24     6   6    8.3622   393.3    9.503      54.594
2014   12       24     6  11    8.3658   393.4    9.501      54.648
2014   12       24     6  16    8.3694   393.5    9.499      54.702
2014   12       24     6  21    8.3731   393.6    9.498      54.756
2014   12       24     6  26    8.3769   393.7    9.496      54.811
2014   12       24     6  31    8.3807   393.8    9.495      54.866
2014   12       24     6  36    8.3845   394.0    9.494      54.922
2014   12       24     6  41    8.3884   394.1    9.494      54.978
2014   12       24     6  46    8.3924   394.2    9.494      55.035
2014   12       24     6  51    8.3963   394.3    9.494      55.092
2014   12       24     6  56    8.4003   394.4    9.494      55.150
2014   12       24     7   1    8.4043   394.6    9.495      55.209
2014   12       24     7   6    8.4083   394.7    9.496      55.268
2014   12       24     7  11    8.4123   394.8    9.497      55.328
2014   12       24     7  16    8.4164   394.9    9.499      55.389
2014   12       24     7  21    8.4204   395.1    9.501      55.453
2014   12       24     7  26    8.4244   395.2    9.503      55.519
2014   12       24     7  31    8.4284   395.3    9.506      55.587
2014   12       24     7  36    8.4324   395.5    9.508      55.657
2014   12       24     7  41    8.4364   395.6    9.511      55.729
2014   12       24     7  46    8.4403   395.8    9.513      55.803
2014   12       24     7  51    8.4442   395.9    9.516      55.877
2014   12       24     7  56    8.4480   396.0    9.519      55.953
2014   12       24     8   1    8.4518   396.2    9.523      56.029
2014   12       24     8   5    8.4555   396.3    9.526      56.108
2014   12       24     8  10    8.4591   396.5    9.529      56.187
2014   12       24     8  15    8.4626   396.6    9.532      56.268
2014   12       24     8  20    8.4661   396.7    9.535      56.349
2014   12       24     8  25    8.4695   396.9    9.538      56.432
2014   12       24     8  30    8.4728   397.0    9.541      56.515
2014   12       24     8  35    8.4760   397.2    9.543      56.599
2014   12       24     8  40    8.4792   397.3    9.545      56.685
2014   12       24     8  45    8.4823   397.5    9.547      56.771
2014   12       24     8  50    8.4854   397.6    9.549      56.858
2014   12       24     8  55    8.4884   397.8    9.550      56.943
2014   12       24     9   0    8.4914   398.0    9.551      57.028
2014   12       24     9   5    8.4943   398.1    9.552      57.112
2014   12       24     9  10    8.4972   398.3    9.553      57.196
2014   12       24     9  15    8.5001   398.4    9.553      57.278
2014   12       24     9  20    8.5029   398.6    9.553      57.360
2014   12       24     9  25    8.5057   398.7    9.552      57.442
2014   12       24     9  30    8.5084   398.9    9.552      57.522
2014   12       24     9  35    8.5111   399.0    9.551      57.603
2014   12       24     9  40    8.5138   399.2    9.550      57.682
2014   12       24     9  45    8.5164   399.3    9.549      57.761
2014   12       24     9  50    8.5190   399.5    9.547      57.839
2014   12       24     9  55    8.5216   399.6    9.545      57.917
2014   12       24    10   0    8.5241   399.8    9.543      57.993
2014   12       24    10   5    8.5267   400.0    9.541      58.070
2014   12       24    10  10    8.5291   400.1    9.538      58.145
2014   12       24    10  15    8.5316   400.3    9.536      58.220
2014   12       24    10  20    8.5340   400.4    9.533      58.295
2014   12       24    10  25    8.5364   400.6    9.530      58.369
2014   12       24    10  30    8.5387   400.8    9.527      58.442
2014   12       24    10  35    8.5411   400.9    9.523      58.515
2014   12       24    10  40    8.5433   401.1    9.520      58.587
2014   12       24    10  45    8.5455   401.3    9.516      58.659
2014   12       24    10  50    8.5477   401.4    9.512      58.730
2014   12       24    10  54    8.5499   401.6    9.508      58.801
2014   12       24    10  59    8.5520   401.8    9.504      58.871
2014   12       24    11   4    8.5541   401.9    9.500      58.941
2014   12       24    11   9    8.5561   402.1    9.495      59.009
2014   12       24    11  14    8.5580   402.3    9.490      59.078
2014   12       24    11  19    8.5600   402.4    9.486      59.145
2014   12       24    11  24    8.5618   402.6    9.481      59.213
2014   12       24    11  29    8.5637   402.8    9.476      59.279
2014   12       24    11  34    8.5655   403.0    9.471      59.345
2014   12       24    11  39    8.5672   403.1    9.465      59.411
2014   12       24    11  44    8.5689   403.3    9.460      59.475
2014   12       24    11  49    8.5706   403.5    9.455      59.539
2014   12       24    11  54    8.5722   403.7    9.449      59.603
2014   12       24    11  59    8.5737   403.8    9.444      59.666
2014   12       24    12   4    8.5752   404.0    9.438      59.728
2014   12       24    12   9    8.5767   404.2    9.432      59.790
2014   12       24    12  14    8.5781   404.4    9.426      59.851
2014   12       24    12  19    8.5795   404.6    9.420      59.911
2014   12       24    12  24    8.5808   404.7    9.415      59.971
2014   12       24    12  29    8.5821   404.9    9.409      60.030
2014   12       24    12  34    8.5834   405.1    9.403      60.088
2014   12       24    12  39    8.5846   405.3    9.397      60.146
2014   12       24    12  44    8.5858   405.4    9.391      60.203
2014   12       24    12  49    8.5869   405.6    9.384      60.259
2014   12       24    12  54    8.5880   405.8    9.378      60.315
2014   12       24    12  59    8.5891   406.0    9.372      60.369
2014   12       24    13   4    8.5901   406.1    9.366      60.424
2014   12       24    13   9    8.5911   406.3    9.360      60.477
2014   12       24    13  14    8.5921   406.5    9.354      60.530
2014   12       24    13  19    8.5931   406.7    9.347      60.583
2014   12       24    13  24    8.5940   406.8    9.341      60.634
2014   12       24    13  29    8.5949   407.0    9.335      60.686
2014   12       24    13  34    8.5959   407.2    9.329      60.737
2014   12       24    13  39    8.5968   407.4    9.323      60.787
2014   12       24    13  43    8.5976   407.6    9.317      60.837
2014   12       24    13  48    8.5985   407.7    9.312      60.887
2014   12       24    13  53    8.5994   407.9    9.306      60.936
2014   12       24    13  58    8.6003   408.1    9.300      60.985
2014   12       24    14   3    8.6012   408.3    9.295      61.033
2014   12       24    14   8    8.6021   408.4    9.289      61.081
2014   12       24    14  13    8.6029   408.6    9.284      61.130
2014   12       24    14  18    8.6038   408.8    9.279      61.178
2014   12       24    14  23    8.6046   409.0    9.274      61.226
2014   12       24    14  28    8.6055   409.2    9.269      61.274
2014   12       24    14  33    8.6062   409.3    9.264      61.321
2014   12       24    14  38    8.6069   409.5    9.260      61.368
2014   12       24    14  43    8.6076   409.7    9.256      61.415
2014   12       24    14  48    8.6082   409.9    9.251      61.462
2014   12       24    14  53    8.6088   410.1    9.247      61.510
2014   12       24    14  58    8.6093   410.3    9.243      61.559
2014   12       24    15   3    8.6097   410.4    9.240      61.610
2014   12       24    15   8    8.6100   410.6    9.236      61.661
2014   12       24    15  13    8.6103   410.8    9.232      61.714
2014   12       24    15  18    8.6106   411.0    9.228      61.768
2014   12       24    15  23    8.6107   411.2    9.224      61.823
2014   12       24    15  28    8.6108   411.4    9.219      61.880
2014   12       24    15  33    8.6108   411.6    9.215      61.937
2014   12       24    15  38    8.6108   411.8    9.210      61.995
2014   12       24    15  43    8.6107   412.0    9.206      62.052
2014   12       24    15  48    8.6105   412.2    9.201      62.109
2014   12       24    15  53    8.6102   412.4    9.196      62.165
2014   12       24    15  58    8.6099   412.6    9.190      62.221
2014   12       24    16   3    8.6095   412.8    9.185      62.276
2014   12       24    16   8    8.6090   413.1    9.179      62.330
2014   12       24    16  13    8.6085   413.3    9.173      62.384
2014   12       24    16  18    8.6079   413.5    9.167      62.438
2014   12       24    16  23    8.6073   413.7    9.161      62.491
2014   12       24    16  27    8.6066   413.9    9.155      62.543
2014   12       24    16  32    8.6059   414.1    9.149      62.595
2014   12       24    16  37    8.6051   414.3    9.142      62.646
2014   12       24    16  42    8.6043   414.5    9.136      62.697
2014   12       24    16  47    8.6036   414.7    9.129      62.747
2014   12       24    16  52    8.6027   414.9    9.122      62.797
2014   12       24    16  57    8.6018   415.1    9.115      62.847
2014   12       24    17   2    8.6009   415.3    9.108      62.896
2014   12       24    17   7    8.6000   415.5    9.101      62.944
2014   12       24    17  12    8.5990   415.6    9.094      62.992
2014   12       24    17  17    8.5981   415.8    9.087      63.040
2014   12       24    17  22    8.5970   416.0    9.079      63.088
2014   12       24    17  27    8.5960   416.2    9.072      63.135
2014   12       24    17  32    8.5949   416.4    9.064      63.182
2014   12       24    17  37    8.5938   416.6    9.057      63.228
2014   12       24    17  42    8.5926   416.8    9.049      63.275
2014   12       24    17  47    8.5914   417.0    9.042      63.321
2014   12       24    17  52    8.5901   417.2    9.034      63.367
2014   12       24    17  57    8.5888   417.4    9.026      63.412
2014   12       24    18   2    8.5875   417.6    9.018      63.458
2014   12       24    18   7    8.5861   417.8    9.010      63.503
2014   12       24    18  12    8.5846   418.0    9.002      63.548
2014   12       24    18  17    8.5832   418.2    8.994      63.592
2014   12       24    18  22    8.5816   418.4    8.986      63.637
2014   12       24    18  27    8.5800   418.6    8.978      63.681
2014   12       24    18  32    8.5783   418.8    8.970      63.725
2014   12       24    18  37    8.5766   419.0    8.962      63.769
2014   12       24    18  42    8.5748   419.2    8.953      63.813
2014   12       24    18  47    8.5730   419.4    8.945      63.856
2014   12       24    18  52    8.5711   419.6    8.937      63.899
2014   12       24    18  57    8.5692   419.8    8.928      63.942
2014   12       24    19   2    8.5672   420.0    8.920      63.984
2014   12       24    19   7    8.5651   420.2    8.911      64.026
2014   12       24    19  12    8.5630   420.4    8.902      64.067
2014   12       24    19  17    8.5608   420.6    8.893      64.108
2014   12       24    19  21    8.5586   420.8    8.885      64.147
2014   12       24    19  26    8.5563   421.0    8.876      64.187
2014   12       24    19  31    8.5540   421.2    8.867      64.226
2014   12       24    19  36    8.5516   421.4    8.858      64.264
2014   12       24    19  41    8.5491   421.6    8.849      64.301
2014   12       24    19  46    8.5466   421.8    8.839      64.338
2014   12       24    19  51    8.5440   422.0    8.830      64.374
2014   12       24    19  56    8.5413   422.2    8.821      64.409
2014   12       24    20   1    8.5386   422.4    8.812      64.443
2014   12       24    20   6    8.5359   422.6    8.802      64.477
2014   12       24    20  11    8.5330   422.8    8.793      64.510
2014   12       24    20  16    8.5302   423.0    8.783      64.543
2014   12       24    20  21    8.5272   423.2    8.774      64.574
2014   12       24    20  26    8.5242   423.4    8.764      64.605
2014   12       24    20  31    8.5212   423.6    8.755      64.635
2014   12       24    20  36    8.5180   423.8    8.745      64.664
2014   12       24    20  41    8.5148   424.0    8.735      64.692
2014   12       24    20  46    8.5116   424.2    8.726      64.720
2014   12       24    20  51    8.5083   424.4    8.716      64.747
2014   12       24    20  56    8.5050   424.5    8.706      64.773
2014   12       24    21   1    8.5016   424.7    8.697      64.798
2014   12       24    21   6    8.4982   424.9    8.687      64.823
2014   12       24    21  11    8.4947   425.1    8.677      64.846
2014   12       24    21  16    8.4911   425.3    8.668      64.869
2014   12       24    21  21    8.4875   425.5    8.658      64.891
2014   12       24    21  26    8.4839   425.7    8.648      64.913
2014   12       24    21  31    8.4802   425.9    8.638      64.933
2014   12       24    21  36    8.4764   426.0    8.628      64.953
2014   12       24    21  41    8.4726   426.2    8.619      64.973
2014   12       24    21  46    8.4688   426.4    8.609      64.991
2014   12       24    21  51    8.4649   426.6    8.599      65.009
2014   12       24    21  56    8.4609   426.8    8.589      65.027
2014   12       24    22   1    8.4569   427.0    8.580      65.043
2014   12       24    22   5    8.4529   427.1    8.570      65.059
2014   12       24    22  10    8.4488   427.3    8.560      65.075
2014   12       24    22  15    8.4447   427.5    8.550      65.089
2014   12       24    22  20    8.4404   427.7    8.540      65.103
2014   12       24    22  25    8.4362   427.9    8.531      65.117
2014   12       24    22  30    8.4319   428.0    8.521      65.130
2014   12       24    22  35    8.4276   428.2    8.511      65.142
2014   12       24    22  40    8.4233   428.4    8.501      65.153
2014   12       24    22  45    8.4190   428.6    8.492      65.164
2014   12       24    22  50    8.4146   428.8    8.482      65.175
2014   12       24    22  55    8.4102   428.9    8.472      65.184
2014   12       24    23   0    8.4058   429.1    8.462      65.194
2014   12       24    23   5    8.4014   429.3    8.452      65.203
2014   12       24    23  10    8.3969   429.5    8.442      65.211
2014   12       24    23  15    8.3925   429.6    8.433      65.218
2014   12       24    23  20    8.3880   429.8    8.423      65.225
2014   12       24    23  25    8.3836   430.0    8.413      65.232
2014   12       24    23  30    8.3791   430.1    8.403      65.238
2014   12       24    23  35    8.3746   430.3    8.393      65.243
2014   12       24    23  40    8.3701   430.5    8.383      65.248
2014   12       24    23  45    8.3657   430.7    8.373      65.252
2014   12       24    23  50    8.3612   430.8    8.364      65.255
2014   12       24    23  55    8.3567   431.0    8.354      65.258
2014   12       25     0   0    8.3522   431.2    8.344      65.261
2014   12       25     0   5    8.3477   431.3    8.334      65.263
2014   12       25     0  10    8.3432   431.5    8.324      65.264
2014   12       25     0  15    8.3387   431.6    8.315      65.265
2014   12       25     0  20    8.3342   431.8    8.305      65.265
2014   12       25     0  25    8.3297   432.0    8.295      65.264
2014   12       25     0  30    8.3252   432.1    8.286      65.263
2014   12       25     0  35    8.3207   432.3    8.276      65.261
2014   12       25     0  40    8.3162   432.4    8.266      65.259
2014   12       25     0  45    8.3117   432.6    8.257      65.256
2014   12       25     0  49    8.3072   432.8    8.248      65.252
2014   12       25     0  54    8.3027   432.9    8.238      65.248
2014   12       25     0  59    8.2982   433.1    8.229      65.244
2014   12       25     1   4    8.2937   433.2    8.220      65.239
2014   12       25     1   9    8.2892   433.4    8.211      65.234
2014   12       25     1  14    8.2847   433.5    8.202      65.228
2014   12       25     1  19    8.2802   433.7    8.193      65.222
2014   12       25     1  24    8.2757   433.8    8.184      65.216
2014   12       25     1  29    8.2711   434.0    8.175      65.209
2014   12       25     1  34    8.2666   434.1    8.167      65.203
2014   12       25     1  39    8.2620   434.2    8.158      65.196
2014   12       25     1  44    8.2575   434.4    8.150      65.189
2014   12       25     1  49    8.2529   434.5    8.141      65.181
2014   12       25     1  54    8.2484   434.7    8.133      65.174
2014   12       25     1  59    8.2438   434.8    8.125      65.167
2014   12       25     2   4    8.2392   435.0    8.117      65.160
2014   12       25     2   9    8.2346   435.1    8.109      65.153
2014   12       25     2  14    8.2301   435.2    8.101      65.145
2014   12       25     2  19    8.2255   435.4    8.094      65.139
2014   12       25     2  24    8.2209   435.5    8.086      65.132
2014   12       25     2  29    8.2163   435.7    8.078      65.125
2014   12       25     2  34    8.2117   435.8    8.071      65.118
2014   12       25     2  39    8.2072   435.9    8.063      65.112
2014   12       25     2  44    8.2026   436.1    8.056      65.105
2014   12       25     2  49    8.1980   436.2    8.049      65.099
2014   12       25     2  54    8.1934   436.3    8.042      65.092
2014   12       25     2  59    8.1889   436.5    8.035      65.085
2014   12       25     3   4    8.1843   436.6    8.028      65.079
2014   12       25     3   9    8.1797   436.7    8.021      65.072
2014   12       25     3  14    8.1752   436.9    8.014      65.065
2014   12       25     3  19    8.1706   437.0    8.008      65.058
2014   12       25     3  24    8.1660   437.1    8.001      65.051
2014   12       25     3  29    8.1614   437.3    7.994      65.043
2014   12       25     3  34    8.1568   437.4    7.988      65.036
2014   12       25     3  39    8.1522   437.5    7.981      65.028
2014   12       25     3  43    8.1476   437.6    7.975      65.021
2014   12       25     3  48    8.1430   437.8    7.969      65.013
2014   12       25     3  53    8.1384   437.9    7.963      65.006
2014   12       25     3  58    8.1338   438.0    7.957      64.999
2014   12       25     4   3    8.1293   438.1    7.951      64.992
2014   12       25     4   8    8.1247   438.2    7.945      64.984
2014   12       25     4  13    8.1202   438.4    7.939      64.978
2014   12       25     4  18    8.1156   438.5    7.934      64.971
2014   12       25     4  23    8.1111   438.6    7.928      64.963
2014   12       25     4  28    8.1066   438.7    7.923      64.956
2014   12       25     4  33    8.1022   438.8    7.917      64.950
2014   12       25     4  38    8.0978   438.9    7.912      64.944
2014   12       25     4  43    8.0934   439.1    7.907      64.938
2014   12       25     4  48    8.0891   439.2    7.902      64.933
2014   12       25     4  53    8.0847   439.3    7.897      64.928
2014   12       25     4  58    8.0804   439.4    7.892      64.923
2014   12       25     5   3    8.0761   439.5    7.887      64.918
2014   12       25     5   8    8.0718   439.7    7.881      64.914
2014   12       25     5  13    8.0675   439.8    7.876      64.910
2014   12       25     5  18    8.0632   439.9    7.871      64.905
2014   12       25     5  23    8.0589   440.0    7.866      64.900
2014   12       25     5  28    8.0546   440.1    7.860      64.894
2014   12       25     5  33    8.0503   440.3    7.855      64.887
2014   12       25     5  38    8.0459   440.4    7.849      64.881
2014   12       25     5  43    8.0415   440.5    7.843      64.873
2014   12       25     5  48    8.0371   440.6    7.838      64.866
2014   12       25     5  53    8.0326   440.7    7.832      64.857
2014   12       25     5  58    8.0281   440.8    7.826      64.849
2014   12       25     6   3    8.0236   440.9    7.820      64.839
2014   12       25     6   8    8.0191   441.1    7.814      64.830
2014   12       25     6  13    8.0146   441.2    7.808      64.819
2014   12       25     6  18    8.0101   441.3    7.802      64.809
2014   12       25     6  22    8.0056   441.4    7.795      64.798
2014   12       25     6  27    8.0011   441.5    7.789      64.786
2014   12       25     6  32    7.9967   441.6    7.783      64.774
2014   12       25     6  37    7.9923   441.7    7.776      64.762
2014   12       25     6  42    7.9878   441.8    7.770      64.749
2014   12       25     6  47    7.9835   441.9    7.764      64.737
2014   12       25     6  52    7.9791   442.1    7.757      64.724
2014   12       25     6  57    7.9748   442.2    7.751      64.710
2014   12       25     7   2    7.9705   442.3    7.744      64.696
2014   12       25     7   7    7.9662   442.4    7.738      64.682
2014   12       25     7  12    7.9619   442.5    7.731      64.668
2014   12       25     7  17    7.9577   442.6    7.725      64.653
2014   12       25     7  22    7.9536   442.7    7.718      64.638
2014   12       25     7  27    7.9494   442.8    7.712      64.623
2014   12       25     7  32    7.9453   442.9    7.705      64.608
2014   12       25     7  37    7.9413   443.0    7.698      64.592
2014   12       25     7  42    7.9372   443.1    7.692      64.576
2014   12       25     7  47    7.9332   443.2    7.685      64.560
2014   12       25     7  52    7.9293   443.3    7.679      64.544
2014   12       25     7  57    7.9253   443.4    7.672      64.527
2014   12       25     8   2    7.9215   443.5    7.665      64.510
2014   12       25     8   7    7.9176   443.6    7.659      64.493
2014   12       25     8  12    7.9138   443.7    7.652      64.475
2014   12       25     8  17    7.9100   443.8    7.646      64.457
2014   12       25     8  22    7.9063   443.8    7.640      64.439
2014   12       25     8  27    7.9025   443.9    7.633      64.420
2014   12       25     8  32    7.8989   444.0    7.627      64.401
2014   12       25     8  37    7.8952   444.1    7.621      64.382
2014   12       25     8  42    7.8916   444.2    7.614      64.363
2014   12       25     8  47    7.8880   444.3    7.608      64.344
2014   12       25     8  52    7.8845   444.4    7.602      64.325
2014   12       25     8  57    7.8809   444.5    7.596      64.305
2014   12       25     9   2    7.8774   444.6    7.591      64.286
2014   12       25     9   7    7.8740   444.6    7.585      64.267
2014   12       25     9  12    7.8705   444.7    7.579      64.248
2014   12       25     9  16    7.8671   444.8    7.574      64.228
2014   12       25     9  21    7.8637   444.9    7.568      64.209
2014   12       25     9  26    7.8604   445.0    7.563      64.190
2014   12       25     9  31    7.8570   445.1    7.558      64.172
2014   12       25     9  36    7.8537   445.2    7.552      64.153
2014   12       25     9  41    7.8504   445.2    7.547      64.135
2014   12       25     9  46    7.8472   445.3    7.542      64.117
2014   12       25     9  51    7.8440   445.4    7.537      64.099
2014   12       25     9  56    7.8407   445.5    7.533      64.081
2014   12       25    10   1    7.8376   445.6    7.528      64.064
2014   12       25    10   6    7.8344   445.6    7.523      64.047
2014   12       25    10  11    7.8313   445.7    7.519      64.031
2014   12       25    10  16    7.8282   445.8    7.515      64.014
2014   12       25    10  21    7.8251   445.9    7.510      63.999
2014   12       25    10  26    7.8221   445.9    7.506      63.983
2014   12       25    10  31    7.8190   446.0    7.502      63.968
2014   12       25    10  36    7.8160   446.1    7.498      63.953
2014   12       25    10  41    7.8130   446.2    7.494      63.938
2014   12       25    10  46    7.8101   446.2    7.491      63.925
2014   12       25    10  51    7.8072   446.3    7.487      63.911
2014   12       25    10  56    7.8043   446.4    7.484      63.898
2014   12       25    11   1    7.8014   446.5    7.480      63.885
2014   12       25    11   6    7.7985   446.5    7.477      63.872
2014   12       25    11  11    7.7957   446.6    7.474      63.860
2014   12       25    11  16    7.7928   446.7    7.471      63.849
2014   12       25    11  21    7.7900   446.7    7.468      63.837
2014   12       25    11  26    7.7873   446.8    7.465      63.827
2014   12       25    11  31    7.7846   446.9    7.463      63.817
2014   12       25    11  36    7.7819   447.0    7.460      63.808
2014   12       25    11  41    7.7792   447.0    7.458      63.799
2014   12       25    11  46    7.7767   447.1    7.456      63.791
2014   12       25    11  51    7.7741   447.2    7.454      63.784
2014   12       25    11  56    7.7716   447.2    7.452      63.777
2014   12       25    12   1    7.7691   447.3    7.450      63.770
2014   12       25    12   5    7.7667   447.4    7.449      63.764
2014   12       25    12  10    7.7643   447.4    7.448      63.760
2014   12       25    12  15    7.7620   447.5    7.446      63.756
2014   12       25    12  20    7.7597   447.6    7.445      63.753
2014   12       25    12  25    7.7575   447.7    7.444      63.750
2014   12       25    12  30    7.7553   447.7    7.443      63.749
2014   12       25    12  35    7.7531   447.8    7.442      63.747
2014   12       25    12  40    7.7510   447.9    7.441      63.747
2014   12       25    12  45    7.7489   448.0    7.439      63.747
2014   12       25    12  50    7.7467   448.1    7.438      63.747
2014   12       25    12  55    7.7446   448.1    7.437      63.747
2014   12       25    13   0    7.7425   448.2    7.436      63.747
2014   12       25    13   5    7.7403   448.3    7.435      63.746
2014   12       25    13  10    7.7382   448.4    7.433      63.745
2014   12       25    13  15    7.7360   448.5    7.432      63.743
2014   12       25    13  20    7.7337   448.5    7.431      63.742
2014   12       25    13  25    7.7315   448.6    7.429      63.740
2014   12       25    13  30    7.7292   448.7    7.428      63.738
2014   12       25    13  35    7.7269   448.8    7.426      63.735
2014   12       25    13  40    7.7245   448.9    7.425      63.732
2014   12       25    13  45    7.7222   449.0    7.423      63.729
2014   12       25    13  50    7.7198   449.0    7.421      63.725
2014   12       25    13  55    7.7174   449.1    7.420      63.721
2014   12       25    14   0    7.7150   449.2    7.418      63.717
2014   12       25    14   5    7.7127   449.3    7.416      63.713
2014   12       25    14  10    7.7103   449.4    7.415      63.709
2014   12       25    14  15    7.7078   449.4    7.413      63.704
2014   12       25    14  20    7.7054   449.5    7.411      63.699
2014   12       25    14  25    7.7030   449.6    7.409      63.694
2014   12       25    14  30    7.7006   449.7    7.407      63.689
2014   12       25    14  35    7.6981   449.8    7.405      63.684
2014   12       25    14  40    7.6957   449.8    7.403      63.679
2014   12       25    14  44    7.6933   449.9    7.401      63.675
2014   12       25    14  49    7.6909   450.0    7.399      63.671
2014   12       25    14  54    7.6884   450.1    7.397      63.667
2014   12       25    14  59    7.6860   450.2    7.395      63.663
2014   12       25    15   4    7.6836   450.3    7.392      63.659
2014   12       25    15   9    7.6812   450.3    7.390      63.655
2014   12       25    15  14    7.6787   450.4    7.387      63.652
2014   12       25    15  19    7.6763   450.5    7.385      63.649
2014   12       25    15  24    7.6739   450.6    7.382      63.645
2014   12       25    15  29    7.6715   450.7    7.379      63.642
2014   12       25    15  34    7.6691   450.7    7.376      63.639
2014   12       25    15  39    7.6667   450.8    7.373      63.635
2014   12       25    15  44    7.6643   450.9    7.370      63.632
2014   12       25    15  49    7.6620   451.0    7.367      63.629
2014   12       25    15  54    7.6596   451.1    7.364      63.625
2014   12       25    15  59    7.6572   451.1    7.361      63.622
2014   12       25    16   4    7.6549   451.2    7.357      63.619
2014   12       25    16   9    7.6525   451.3    7.354      63.615
2014   12       25    16  14    7.6502   451.4    7.351      63.612
2014   12       25    16  19    7.6479   451.5    7.347      63.608
2014   12       25    16  24    7.6456   451.6    7.344      63.604
2014   12       25    16  29    7.6433   451.6    7.340      63.600
2014   12       25    16  34    7.6410   451.7    7.337      63.597
2014   12       25    16  39    7.6388   451.8    7.333      63.593
2014   12       25    16  44    7.6365   451.9    7.329      63.589
2014   12       25    16  49    7.6343   452.0    7.326      63.585
2014   12       25    16  54    7.6321   452.0    7.322      63.581
2014   12       25    16  59    7.6299   452.1    7.318      63.577
2014   12       25    17   4    7.6277   452.2    7.314      63.573
2014   12       25    17   9    7.6255   452.3    7.311      63.568
2014   12       25    17  14    7.6233   452.4    7.307      63.564
2014   12       25    17  19    7.6212   452.4    7.303      63.560
2014   12       25    17  24    7.6190   452.5    7.299      63.555
2014   12       25    17  29    7.6169   452.6    7.295      63.551
2014   12       25    17  34    7.6147   452.7    7.291      63.547
2014   12       25    17  38    7.6126   452.8    7.288      63.542
2014   12       25    17  43    7.6105   452.8    7.284      63.538
2014   12       25    17  48    7.6085   452.9    7.280      63.535
2014   12       25    17  53    7.6064   453.0    7.276      63.531
2014   12       25    17  58    7.6043   453.1    7.272      63.528
2014   12       25    18   3    7.6023   453.2    7.268      63.525
2014   12       25    18   8    7.6002   453.2    7.264      63.522
2014   12       25    18  13    7.5982   453.3    7.260      63.520
2014   12       25    18  18    7.5962   453.4    7.256      63.517
2014   12       25    18  23    7.5942   453.5    7.253      63.516
2014   12       25    18  28    7.5923   453.6    7.249      63.514
2014   12       25    18  33    7.5903   453.7    7.245      63.514
2014   12       25    18  38    7.5884   453.7    7.241      63.513
2014   12       25    18  43    7.5864   453.8    7.238      63.513
2014   12       25    18  48    7.5845   453.9    7.234      63.514
2014   12       25    18  53    7.5826   454.0    7.231      63.515
2014   12       25    18  58    7.5808   454.1    7.227      63.516
2014   12       25    19   3    7.5789   454.2    7.224      63.518
2014   12       25    19   8    7.5771   454.3    7.220      63.521
2014   12       25    19  13    7.5753   454.4    7.217      63.524
2014   12       25    19  18    7.5735   454.4    7.214      63.528
2014   12       25    19  23    7.5717   454.5    7.211      63.532
2014   12       25    19  28    7.5700   454.6    7.208      63.537
2014   12       25    19  33    7.5682   454.7    7.205      63.542
2014   12       25    19  38    7.5665   454.8    7.202      63.548
2014   12       25    19  43    7.5648   454.9    7.199      63.554
2014   12       25    19  48    7.5631   455.0    7.196      63.561
2014   12       25    19  53    7.5614   455.1    7.193      63.568
2014   12       25    19  58    7.5598   455.2    7.191      63.575
2014   12       25    20   3    7.5581   455.3    7.188      63.583
2014   12       25    20   8    7.5564   455.4    7.186      63.591
2014   12       25    20  13    7.5548   455.5    7.184      63.599
2014   12       25    20  18    7.5531   455.6    7.181      63.608
2014   12       25    20  23    7.5515   455.7    7.179      63.617
2014   12       25    20  27    7.5498   455.8    7.177      63.625
2014   12       25    20  32    7.5481   455.9    7.175      63.634
2014   12       25    20  37    7.5465   456.0    7.173      63.643
2014   12       25    20  42    7.5448   456.1    7.172      63.652
2014   12       25    20  47    7.5430   456.2    7.170      63.661
2014   12       25    20  52    7.5413   456.3    7.168      63.670
2014   12       25    20  57    7.5396   456.4    7.167      63.679
2014   12       25    21   2    7.5378   456.5    7.165      63.687
2014   12       25    21   7    7.5360   456.6    7.164      63.696
2014   12       25    21  12    7.5342   456.7    7.162      63.704
2014   12       25    21  17    7.5324   456.8    7.161      63.713
2014   12       25    21  22    7.5306   456.9    7.160      63.721
2014   12       25    21  27    7.5287   456.9    7.159      63.730
2014   12       25    21  32    7.5269   457.0    7.158      63.738
2014   12       25    21  37    7.5250   457.1    7.157      63.746
2014   12       25    21  42    7.5232   457.2    7.156      63.753
2014   12       25    21  47    7.5213   457.3    7.155      63.760
2014   12       25    21  52    7.5194   457.4    7.155      63.768
2014   12       25    21  57    7.5174   457.5    7.154      63.777
2014   12       25    22   2    7.5155   457.6    7.153      63.786
2014   12       25    22   7    7.5136   457.7    7.153      63.795
2014   12       25    22  12    7.5116   457.8    7.152      63.805
2014   12       25    22  17    7.5096   458.0    7.151      63.816
2014   12       25    22  22    7.5077   458.1    7.150      63.827
2014   12       25    22  27    7.5057   458.2    7.149      63.837
2014   12       25    22  32    7.5037   458.3    7.147      63.847
2014   12       25    22  37    7.5017   458.4    7.146      63.857
2014   12       25    22  42    7.4997   458.5    7.145      63.867
2014   12       25    22  47    7.4977   458.6    7.143      63.876
2014   12       25    22  52    7.4956   458.7    7.141      63.885
2014   12       25    22  57    7.4936   458.8    7.139      63.894
2014   12       25    23   2    7.4915   458.9    7.137      63.903
2014   12       25    23   7    7.4894   459.0    7.135      63.911
2014   12       25    23  12    7.4874   459.1    7.132      63.919
2014   12       25    23  17    7.4853   459.2    7.130      63.927
2014   12       25    23  21    7.4832   459.3    7.127      63.934
2014   12       25    23  26    7.4811   459.4    7.124      63.941
2014   12       25    23  31    7.4790   459.5    7.122      63.948
2014   12       25    23  36    7.4770   459.6    7.119      63.955
2014   12       25    23  41    7.4749   459.7    7.115      63.962
2014   12       25    23  46    7.4728   459.8    7.112      63.968
2014   12       25    23  51    7.4707   459.9    7.109      63.974
2014   12       25    23  56    7.4687   460.0    7.106      63.980
2014   12       26     0   1    7.4666   460.2    7.102      63.985
2014   12       26     0   6    7.4646   460.3    7.099      63.990
2014   12       26     0  11    7.4625   460.4    7.095      63.996
2014   12       26     0  16    7.4604   460.5    7.091      64.001
2014   12       26     0  21    7.4584   460.6    7.088      64.005
2014   12       26     0  26    7.4563   460.7    7.084      64.010
2014   12       26     0  31    7.4543   460.8    7.080      64.014
2014   12       26     0  36    7.4522   460.9    7.076      64.018
2014   12       26     0  41    7.4501   461.0    7.072      64.022
2014   12       26     0  46    7.4481   461.1    7.068      64.025
2014   12       26     0  51    7.4460   461.2    7.064      64.029
2014   12       26     0  56    7.4439   461.3    7.059      64.032
2014   12       26     1   1    7.4418   461.4    7.055      64.035
2014   12       26     1   6    7.4398   461.5    7.051      64.039
2014   12       26     1  11    7.4377   461.6    7.046      64.042
2014   12       26     1  16    7.4356   461.8    7.042      64.045
2014   12       26     1  21    7.4335   461.9    7.038      64.049
2014   12       26     1  26    7.4314   462.0    7.033      64.052
2014   12       26     1  31    7.4294   462.1    7.029      64.055
2014   12       26     1  36    7.4273   462.2    7.024      64.059
2014   12       26     1  41    7.4252   462.3    7.020      64.062
2014   12       26     1  46    7.4231   462.4    7.015      64.066
2014   12       26     1  51    7.4210   462.5    7.011      64.070
2014   12       26     1  56    7.4189   462.6    7.006      64.074
2014   12       26     2   1    7.4167   462.7    7.001      64.078
2014   12       26     2   6    7.4146   462.8    6.997      64.083
2014   12       26     2  10    7.4125   462.9    6.992      64.087
2014   12       26     2  15    7.4104   463.1    6.988      64.092
2014   12       26     2  20    7.4082   463.2    6.983      64.097
2014   12       26     2  25    7.4061   463.3    6.979      64.103
2014   12       26     2  30    7.4040   463.4    6.974      64.108
2014   12       26     2  35    7.4018   463.5    6.970      64.114
2014   12       26     2  40    7.3996   463.6    6.966      64.120
2014   12       26     2  45    7.3975   463.7    6.961      64.126
2014   12       26     2  50    7.3953   463.8    6.957      64.133
2014   12       26     2  55    7.3931   463.9    6.953      64.140
2014   12       26     3   0    7.3909   464.0    6.948      64.147
2014   12       26     3   5    7.3887   464.2    6.944      64.154
2014   12       26     3  10    7.3865   464.3    6.940      64.162
2014   12       26     3  15    7.3843   464.4    6.936      64.169
2014   12       26     3  20    7.3821   464.5    6.932      64.177
2014   12       26     3  25    7.3799   464.6    6.928      64.186
2014   12       26     3  30    7.3776   464.7    6.924      64.194
2014   12       26     3  35    7.3753   464.8    6.920      64.202
2014   12       26     3  40    7.3731   464.9    6.916      64.211
2014   12       26     3  45    7.3708   465.0    6.913      64.220
2014   12       26     3  50    7.3685   465.2    6.909      64.229
2014   12       26     3  55    7.3662   465.3    6.906      64.238
2014   12       26     4   0    7.3639   465.4    6.902      64.247
2014   12       26     4   5    7.3615   465.5    6.899      64.257
2014   12       26     4  10    7.3592   465.6    6.895      64.266
2014   12       26     4  15    7.3568   465.7    6.892      64.276
2014   12       26     4  20    7.3544   465.8    6.889      64.286
2014   12       26     4  25    7.3521   465.9    6.886      64.296
2014   12       26     4  30    7.3496   466.1    6.883      64.306
2014   12       26     4  35    7.3472   466.2    6.880      64.317
2014   12       26     4  40    7.3448   466.3    6.878      64.327
2014   12       26     4  45    7.3423   466.4    6.875      64.338
2014   12       26     4  50    7.3399   466.5    6.873      64.349
2014   12       26     4  54    7.3374   466.6    6.871      64.361
2014   12       26     4  59    7.3349   466.7    6.868      64.373
2014   12       26     5   4    7.3323   466.8    6.866      64.385
2014   12       26     5   9    7.3297   467.0    6.864      64.397
2014   12       26     5  14    7.3271   467.1    6.863      64.409
2014   12       26     5  19    7.3244   467.2    6.861      64.422
2014   12       26     5  24    7.3217   467.3    6.860      64.436
2014   12       26     5  29    7.3190   467.4    6.858      64.450
2014   12       26     5  34    7.3163   467.5    6.857      64.465
2014   12       26     5  39    7.3135   467.7    6.855      64.480
2014   12       26     5  44    7.3106   467.8    6.854      64.496
2014   12       26     5  49    7.3078   467.9    6.852      64.512
2014   12       26     5  54    7.3049   468.0    6.851      64.527
2014   12       26     5  59    7.3020   468.1    6.849      64.542
2014   12       26     6   4    7.2991   468.3    6.847      64.556
2014   12       26     6   9    7.2961   468.4    6.845      64.570
2014   12       26     6  14    7.2931   468.5    6.843      64.583
2014   12       26     6  19    7.2901   468.6    6.840      64.595
2014   12       26     6  24    7.2871   468.7    6.838      64.607
2014   12       26     6  29    7.2840   468.8    6.835      64.618
2014   12       26     6  34    7.2809   469.0    6.832      64.629
2014   12       26     6  39    7.2778   469.1    6.829      64.638
2014   12       26     6  44    7.2747   469.2    6.826      64.648
2014   12       26     6  49    7.2716   469.3    6.823      64.656
2014   12       26     6  54    7.2684   469.4    6.820      64.664
2014   12       26     6  59    7.2653   469.5    6.816      64.672
2014   12       26     7   4    7.2621   469.6    6.812      64.679
2014   12       26     7   9    7.2589   469.8    6.809      64.686
2014   12       26     7  14    7.2558   469.9    6.805      64.692
2014   12       26     7  19    7.2526   470.0    6.801      64.698
2014   12       26     7  24    7.2494   470.1    6.797      64.703
2014   12       26     7  29    7.2462   470.2    6.793      64.708
2014   12       26     7  34    7.2429   470.3    6.788      64.713
2014   12       26     7  39    7.2397   470.4    6.784      64.717
2014   12       26     7  44    7.2364   470.5    6.780      64.721
2014   12       26     7  48    7.2332   470.7    6.775      64.724
2014   12       26     7  53    7.2299   470.8    6.770      64.727
2014   12       26     7  58    7.2267   470.9    6.766      64.729
2014   12       26     8   3    7.2234   471.0    6.761      64.732
2014   12       26     8   8    7.2201   471.1    6.756      64.734
2014   12       26     8  13    7.2168   471.2    6.751      64.735
2014   12       26     8  18    7.2135   471.3    6.746      64.736
2014   12       26     8  23    7.2102   471.4    6.741      64.737
2014   12       26     8  28    7.2068   471.5    6.736      64.738
2014   12       26     8  33    7.2035   471.7    6.731      64.738
2014   12       26     8  38    7.2001   471.8    6.725      64.738
2014   12       26     8  43    7.1968   471.9    6.720      64.737
2014   12       26     8  48    7.1934   472.0    6.715      64.736
2014   12       26     8  53    7.1901   472.1    6.709      64.735
2014   12       26     8  58    7.1867   472.2    6.704      64.733
2014   12       26     9   3    7.1833   472.3    6.698      64.731
2014   12       26     9   8    7.1799   472.4    6.693      64.729
2014   12       26     9  13    7.1764   472.5    6.687      64.727
2014   12       26     9  18    7.1730   472.6    6.682      64.723
2014   12       26     9  23    7.1696   472.7    6.676      64.720
2014   12       26     9  28    7.1662   472.8    6.671      64.716
2014   12       26     9  33    7.1627   472.9    6.665      64.712
2014   12       26     9  38    7.1593   473.1    6.659      64.708
2014   12       26     9  43    7.1558   473.2    6.654      64.703
2014   12       26     9  48    7.1523   473.3    6.648      64.698
2014   12       26     9  53    7.1489   473.4    6.642      64.693
2014   12       26     9  58    7.1453   473.5    6.636      64.687
2014   12       26    10   3    7.1418   473.6    6.631      64.681
2014   12       26    10   8    7.1383   473.7    6.625      64.675
2014   12       26    10  13    7.1348   473.8    6.619      64.668
2014   12       26    10  18    7.1312   473.9    6.614      64.662
2014   12       26    10  23    7.1276   474.0    6.608      64.654
2014   12       26    10  28    7.1240   474.1    6.602      64.647
2014   12       26    10  33    7.1204   474.2    6.596      64.640
2014   12       26    10  37    7.1167   474.3    6.591      64.632
2014   12       26    10  42    7.1131   474.4    6.585      64.624
2014   12       26    10  47    7.1094   474.5    6.579      64.616
2014   12       26    10  52    7.1057   474.6    6.573      64.608
2014   12       26    10  57    7.1019   474.7    6.568      64.599
2014   12       26    11   2    7.0982   474.8    6.562      64.590
2014   12       26    11   7    7.0944   474.9    6.556      64.581
2014   12       26    11  12    7.0906   475.0    6.551      64.572
2014   12       26    11  17    7.0868   475.1    6.545      64.563
2014   12       26    11  22    7.0829   475.2    6.540      64.554
2014   12       26    11  27    7.0791   475.3    6.534      64.545
2014   12       26    11  32    7.0752   475.4    6.529      64.535
2014   12       26    11  37    7.0713   475.5    6.524      64.526
2014   12       26    11  42    7.0674   475.6    6.518      64.516
2014   12       26    11  47    7.0635   475.7    6.513      64.507
2014   12       26    11  52    7.0596   475.8    6.508      64.498
2014   12       26    11  57    7.0556   475.9    6.503      64.488
2014   12       26    12   2    7.0517   476.0    6.498      64.479
2014   12       26    12   7    7.0477   476.0    6.493      64.470
2014   12       26    12  12    7.0437   476.1    6.488      64.461
2014   12       26    12  17    7.0397   476.2    6.483      64.452
2014   12       26    12  22    7.0358   476.3    6.479      64.443
2014   12       26    12  27    7.0317   476.4    6.474      64.434
2014   12       26    12  32    7.0277   476.5    6.469      64.426
2014   12       26    12  37    7.0236   476.6    6.465      64.418
2014   12       26    12  42    7.0195   476.7    6.461      64.409
2014   12       26    12  47    7.0154   476.8    6.457      64.402
2014   12       26    12  52    7.0113   476.9    6.453      64.394
2014   12       26    12  57    7.0071   477.0    6.449      64.386
2014   12       26    13   2    7.0029   477.1    6.445      64.379
2014   12       26    13   7    6.9987   477.2    6.441      64.372
2014   12       26    13  12    6.9945   477.3    6.437      64.366
2014   12       26    13  17    6.9902   477.4    6.434      64.359
2014   12       26    13  21    6.9859   477.4    6.430      64.353
2014   12       26    13  26    6.9816   477.5    6.426      64.347
2014   12       26    13  31    6.9773   477.6    6.423      64.341
2014   12       26    13  36    6.9730   477.7    6.419      64.334
2014   12       26    13  41    6.9687   477.8    6.415      64.327
2014   12       26    13  46    6.9643   477.9    6.412      64.320
2014   12       26    13  51    6.9599   478.0    6.408      64.313
2014   12       26    13  56    6.9555   478.1    6.404      64.305
2014   12       26    14   1    6.9512   478.1    6.400      64.297
2014   12       26    14   6    6.9468   478.2    6.396      64.289
2014   12       26    14  11    6.9424   478.3    6.393      64.280
2014   12       26    14  16    6.9379   478.4    6.389      64.271
2014   12       26    14  21    6.9335   478.5    6.385      64.261
2014   12       26    14  26    6.9291   478.5    6.381      64.252
2014   12       26    14  31    6.9247   478.6    6.377      64.242
2014   12       26    14  36    6.9203   478.7    6.373      64.232
2014   12       26    14  41    6.9158   478.8    6.369      64.221
2014   12       26    14  46    6.9114   478.8    6.365      64.211
2014   12       26    14  51    6.9070   478.9    6.361      64.200
2014   12       26    14  56    6.9026   479.0    6.357      64.189
2014   12       26    15   1    6.8982   479.1    6.354      64.178
2014   12       26    15   6    6.8938   479.1    6.350      64.167
2014   12       26    15  11    6.8894   479.2    6.346      64.156
2014   12       26    15  16    6.8849   479.3    6.342      64.144
2014   12       26    15  21    6.8806   479.3    6.338      64.132
2014   12       26    15  26    6.8762   479.4    6.334      64.121
2014   12       26    15  31    6.8718   479.5    6.330      64.109
2014   12       26    15  36    6.8674   479.5    6.326      64.097
2014   12       26    15  41    6.8630   479.6    6.322      64.085
2014   12       26    15  46    6.8587   479.6    6.318      64.073
2014   12       26    15  51    6.8543   479.7    6.314      64.061
2014   12       26    15  56    6.8500   479.8    6.310      64.049
2014   12       26    16   1    6.8457   479.8    6.307      64.037
2014   12       26    16   6    6.8413   479.9    6.303      64.024
2014   12       26    16  11    6.8370   479.9    6.299      64.011
2014   12       26    16  16    6.8327   480.0    6.295      63.999
2014   12       26    16  20    6.8284   480.0    6.291      63.986
2014   12       26    16  25    6.8241   480.1    6.287      63.973
2014   12       26    16  30    6.8199   480.2    6.283      63.959
2014   12       26    16  35    6.8156   480.2    6.279      63.946
2014   12       26    16  40    6.8114   480.3    6.275      63.932
2014   12       26    16  45    6.8071   480.3    6.271      63.917
2014   12       26    16  50    6.8029   480.4    6.267      63.903
2014   12       26    16  55    6.7987   480.4    6.263      63.888
2014   12       26    17   0    6.7945   480.5    6.259      63.873
2014   12       26    17   5    6.7904   480.5    6.255      63.857
2014   12       26    17  10    6.7862   480.5    6.251      63.842
2014   12       26    17  15    6.7821   480.6    6.247      63.825
2014   12       26    17  20    6.7779   480.6    6.243      63.809
2014   12       26    17  25    6.7739   480.7    6.239      63.792
2014   12       26    17  30    6.7698   480.7    6.235      63.775
2014   12       26    17  35    6.7657   480.8    6.230      63.757
2014   12       26    17  40    6.7616   480.8    6.226      63.739
2014   12       26    17  45    6.7576   480.9    6.222      63.721
2014   12       26    17  50    6.7535   480.9    6.218      63.702
2014   12       26    17  55    6.7495   480.9    6.214      63.683
2014   12       26    18   0    6.7454   481.0    6.210      63.663
2014   12       26    18   5    6.7414   481.0    6.206      63.644
2014   12       26    18  10    6.7374   481.0    6.202      63.623
2014   12       26    18  15    6.7334   481.1    6.198      63.603
2014   12       26    18  20    6.7293   481.1    6.194      63.582
2014   12       26    18  25    6.7253   481.2    6.190      63.561
2014   12       26    18  30    6.7213   481.2    6.185      63.539
2014   12       26    18  35    6.7172   481.2    6.181      63.517
2014   12       26    18  40    6.7132   481.3    6.177      63.495
2014   12       26    18  45    6.7091   481.3    6.173      63.473
2014   12       26    18  50    6.7051   481.3    6.169      63.450
2014   12       26    18  55    6.7010   481.4    6.165      63.427
2014   12       26    18  59    6.6970   481.4    6.161      63.404
2014   12       26    19   4    6.6929   481.4    6.157      63.381
2014   12       26    19   9    6.6888   481.5    6.153      63.357
2014   12       26    19  14    6.6848   481.5    6.149      63.334
2014   12       26    19  19    6.6807   481.5    6.145      63.310
2014   12       26    19  24    6.6766   481.6    6.141      63.285
2014   12       26    19  29    6.6726   481.6    6.137      63.261
2014   12       26    19  34    6.6685   481.6    6.133      63.236
2014   12       26    19  39    6.6644   481.7    6.130      63.212
2014   12       26    19  44    6.6603   481.7    6.126      63.187
2014   12       26    19  49    6.6563   481.7    6.122      63.162
2014   12       26    19  54    6.6522   481.8    6.118      63.136
2014   12       26    19  59    6.6481   481.8    6.115      63.111
2014   12       26    20   4    6.6440   481.8    6.111      63.086
2014   12       26    20   9    6.6400   481.8    6.107      63.060
2014   12       26    20  14    6.6359   481.9    6.104      63.035
2014   12       26    20  19    6.6319   481.9    6.100      63.009
2014   12       26    20  24    6.6278   481.9    6.097      62.983
2014   12       26    20  29    6.6238   481.9    6.093      62.957
2014   12       26    20  34    6.6197   482.0    6.090      62.931
2014   12       26    20  39    6.6157   482.0    6.087      62.906
2014   12       26    20  44    6.6117   482.0    6.084      62.880
2014   12       26    20  49    6.6076   482.0    6.081      62.854
2014   12       26    20  54    6.6037   482.0    6.078      62.829
2014   12       26    20  59    6.5997   482.1    6.075      62.803
2014   12       26    21   4    6.5957   482.1    6.072      62.778
2014   12       26    21   9    6.5918   482.1    6.069      62.753
2014   12       26    21  14    6.5878   482.1    6.066      62.728
2014   12       26    21  19    6.5839   482.1    6.063      62.703
2014   12       26    21  24    6.5800   482.1    6.061      62.679
2014   12       26    21  29    6.5761   482.2    6.058      62.654
2014   12       26    21  34    6.5723   482.2    6.056      62.630
2014   12       26    21  39    6.5685   482.2    6.054      62.606
2014   12       26    21  44    6.5647   482.2    6.051      62.583
2014   12       26    21  49    6.5609   482.2    6.049      62.559
2014   12       26    21  53    6.5571   482.2    6.047      62.536
2014   12       26    21  58    6.5534   482.2    6.045      62.513
2014   12       26    22   3    6.5497   482.2    6.043      62.491
2014   12       26    22   8    6.5460   482.3    6.041      62.469
2014   12       26    22  13    6.5423   482.3    6.040      62.447
2014   12       26    22  18    6.5387   482.3    6.038      62.425
2014   12       26    22  23    6.5351   482.3    6.036      62.404
2014   12       26    22  28    6.5315   482.3    6.035      62.382
2014   12       26    22  33    6.5279   482.3    6.033      62.362
2014   12       26    22  38    6.5243   482.3    6.032      62.341
2014   12       26    22  43    6.5208   482.3    6.030      62.321
2014   12       26    22  48    6.5173   482.3    6.029      62.302
2014   12       26    22  53    6.5138   482.3    6.027      62.282
2014   12       26    22  58    6.5103   482.3    6.026      62.263
2014   12       26    23   3    6.5069   482.3    6.024      62.244
2014   12       26    23   8    6.5034   482.3    6.023      62.224
2014   12       26    23  13    6.5000   482.3    6.022      62.205
2014   12       26    23  18    6.4966   482.3    6.020      62.186
2014   12       26    23  23    6.4933   482.3    6.019      62.166
2014   12       26    23  28    6.4900   482.3    6.017      62.147
2014   12       26    23  33    6.4866   482.3    6.016      62.127
2014   12       26    23  38    6.4833   482.3    6.014      62.108
2014   12       26    23  43    6.4801   482.3    6.013      62.088
2014   12       26    23  48    6.4768   482.3    6.011      62.069
2014   12       26    23  53    6.4736   482.3    6.010      62.049
2014   12       26    23  58    6.4704   482.3    6.009      62.029
2014   12       27     0   3    6.4672   482.3    6.007      62.009
2014   12       27     0   8    6.4640   482.3    6.006      61.989
2014   12       27     0  13    6.4608   482.3    6.004      61.969
2014   12       27     0  18    6.4577   482.3    6.003      61.949
2014   12       27     0  23    6.4546   482.3    6.001      61.928
2014   12       27     0  28    6.4514   482.2    6.000      61.907
2014   12       27     0  33    6.4483   482.2    5.998      61.886
2014   12       27     0  38    6.4452   482.2    5.997      61.865
2014   12       27     0  42    6.4421   482.2    5.995      61.844
2014   12       27     0  47    6.4390   482.2    5.993      61.822
2014   12       27     0  52    6.4360   482.2    5.992      61.800
2014   12       27     0  57    6.4329   482.2    5.990      61.779
2014   12       27     1   2    6.4298   482.2    5.989      61.756
2014   12       27     1   7    6.4268   482.1    5.987      61.734
2014   12       27     1  12    6.4238   482.1    5.985      61.711
2014   12       27     1  17    6.4207   482.1    5.984      61.688
2014   12       27     1  22    6.4177   482.1    5.982      61.665
2014   12       27     1  27    6.4147   482.1    5.980      61.641
2014   12       27     1  32    6.4117   482.1    5.978      61.617
2014   12       27     1  37    6.4088   482.1    5.977      61.592
2014   12       27     1  42    6.4058   482.0    5.975      61.568
2014   12       27     1  47    6.4028   482.0    5.973      61.542
2014   12       27     1  52    6.3998   482.0    5.971      61.517
2014   12       27     1  57    6.3968   482.0    5.970      61.491
2014   12       27     2   2    6.3938   482.0    5.968      61.465
2014   12       27     2   7    6.3909   482.0    5.966      61.439
2014   12       27     2  12    6.3879   481.9    5.964      61.412
2014   12       27     2  17    6.3849   481.9    5.962      61.386
2014   12       27     2  22    6.3819   481.9    5.961      61.359
2014   12       27     2  27    6.3790   481.9    5.959      61.332
2014   12       27     2  32    6.3760   481.9    5.957      61.305
2014   12       27     2  37    6.3730   481.9    5.955      61.277
2014   12       27     2  42    6.3700   481.8    5.953      61.249
2014   12       27     2  47    6.3671   481.8    5.951      61.222
2014   12       27     2  52    6.3641   481.8    5.950      61.194
2014   12       27     2  57    6.3612   481.8    5.948      61.166
2014   12       27     3   2    6.3582   481.8    5.946      61.138
2014   12       27     3   7    6.3553   481.7    5.944      61.109
2014   12       27     3  12    6.3524   481.7    5.942      61.081
2014   12       27     3  17    6.3494   481.7    5.941      61.052
2014   12       27     3  22    6.3465   481.7    5.939      61.023
2014   12       27     3  26    6.3436   481.6    5.937      60.995
2014   12       27     3  31    6.3407   481.6    5.935      60.966
2014   12       27     3  36    6.3378   481.6    5.934      60.937
2014   12       27     3  41    6.3350   481.6    5.932      60.908
2014   12       27     3  46    6.3321   481.5    5.931      60.879
2014   12       27     3  51    6.3293   481.5    5.929      60.850
2014   12       27     3  56    6.3265   481.5    5.927      60.821
2014   12       27     4   1    6.3237   481.4    5.926      60.791
2014   12       27     4   6    6.3209   481.4    5.925      60.762
2014   12       27     4  11    6.3182   481.4    5.923      60.733
2014   12       27     4  16    6.3154   481.4    5.922      60.704
2014   12       27     4  21    6.3127   481.3    5.921      60.676
2014   12       27     4  26    6.3100   481.3    5.920      60.647
2014   12       27     4  31    6.3074   481.3    5.919      60.619
2014   12       27     4  36    6.3048   481.2    5.918      60.591
2014   12       27     4  41    6.3022   481.2    5.917      60.564
2014   12       27     4  46    6.2996   481.2    5.916      60.536
2014   12       27     4  51    6.2971   481.1    5.916      60.510
2014   12       27     4  56    6.2946   481.1    5.915      60.484
2014   12       27     5   1    6.2922   481.0    5.915      60.458
2014   12       27     5   6    6.2898   481.0    5.915      60.433
2014   12       27     5  11    6.2874   481.0    5.915      60.409
2014   12       27     5  16    6.2851   480.9    5.915      60.385
2014   12       27     5  21    6.2829   480.9    5.915      60.362
2014   12       27     5  26    6.2806   480.9    5.916      60.341
2014   12       27     5  31    6.2785   480.8    5.916      60.319
2014   12       27     5  36    6.2763   480.8    5.917      60.297
2014   12       27     5  41    6.2742   480.8    5.918      60.277
2014   12       27     5  46    6.2722   480.7    5.919      60.258
2014   12       27     5  51    6.2702   480.7    5.920      60.240
2014   12       27     5  56    6.2682   480.6    5.921      60.224
2014   12       27     6   1    6.2663   480.6    5.922      60.208
2014   12       27     6   6    6.2644   480.6    5.923      60.193
2014   12       27     6  11    6.2626   480.5    5.924      60.179
2014   12       27     6  16    6.2607   480.5    5.925      60.166
2014   12       27     6  20    6.2589   480.5    5.925      60.151
2014   12       27     6  25    6.2572   480.4    5.926      60.137
2014   12       27     6  30    6.2554   480.4    5.927      60.123
2014   12       27     6  35    6.2536   480.4    5.927      60.109
2014   12       27     6  40    6.2519   480.3    5.928      60.094
2014   12       27     6  45    6.2502   480.3    5.929      60.080
2014   12       27     6  50    6.2485   480.3    5.929      60.065
2014   12       27     6  55    6.2467   480.2    5.929      60.050
2014   12       27     7   0    6.2450   480.2    5.930      60.035
2014   12       27     7   5    6.2434   480.2    5.930      60.019
2014   12       27     7  10    6.2417   480.1    5.930      60.004
2014   12       27     7  15    6.2400   480.1    5.930      59.987
2014   12       27     7  20    6.2384   480.0    5.930      59.971
2014   12       27     7  25    6.2367   480.0    5.930      59.953
2014   12       27     7  30    6.2351   480.0    5.929      59.936
2014   12       27     7  35    6.2335   479.9    5.929      59.917
2014   12       27     7  40    6.2319   479.9    5.929      59.899
2014   12       27     7  45    6.2303   479.9    5.928      59.880
2014   12       27     7  50    6.2287   479.8    5.928      59.860
2014   12       27     7  55    6.2272   479.8    5.927      59.840
2014   12       27     8   0    6.2256   479.7    5.926      59.819
2014   12       27     8   5    6.2240   479.7    5.926      59.798
2014   12       27     8  10    6.2225   479.7    5.925      59.777
2014   12       27     8  15    6.2209   479.6    5.924      59.755
2014   12       27     8  20    6.2194   479.6    5.923      59.733
2014   12       27     8  25    6.2178   479.5    5.922      59.710
2014   12       27     8  30    6.2162   479.5    5.922      59.687
2014   12       27     8  35    6.2146   479.5    5.921      59.664
2014   12       27     8  40    6.2130   479.4    5.920      59.640
2014   12       27     8  45    6.2114   479.4    5.918      59.616
2014   12       27     8  50    6.2099   479.3    5.917      59.592
2014   12       27     8  55    6.2082   479.3    5.916      59.567
2014   12       27     9   0    6.2067   479.2    5.915      59.542
2014   12       27     9   4    6.2051   479.2    5.914      59.517
2014   12       27     9   9    6.2035   479.2    5.913      59.492
2014   12       27     9  14    6.2019   479.1    5.912      59.466
2014   12       27     9  19    6.2003   479.1    5.910      59.440
2014   12       27     9  24    6.1987   479.0    5.909      59.414
2014   12       27     9  29    6.1971   479.0    5.908      59.388
2014   12       27     9  34    6.1955   478.9    5.907      59.362
2014   12       27     9  39    6.1939   478.9    5.905      59.335
2014   12       27     9  44    6.1923   478.9    5.904      59.309
2014   12       27     9  49    6.1907   478.8    5.903      59.282
2014   12       27     9  54    6.1891   478.8    5.902      59.255
2014   12       27     9  59    6.1876   478.7    5.900      59.228
2014   12       27    10   4    6.1860   478.7    5.899      59.201
2014   12       27    10   9    6.1844   478.6    5.898      59.173
2014   12       27    10  14    6.1829   478.6    5.897      59.146
2014   12       27    10  19    6.1813   478.5    5.895      59.118
2014   12       27    10  24    6.1798   478.5    5.894      59.091
2014   12       27    10  29    6.1782   478.4    5.893      59.063
2014   12       27    10  34    6.1767   478.4    5.892      59.035
2014   12       27    10  39    6.1751   478.3    5.890      59.008
2014   12       27    10  44    6.1736   478.3    5.889      58.980
2014   12       27    10  49    6.1721   478.2    5.888      58.952
2014   12       27    10  54    6.1706   478.2    5.887      58.923
2014   12       27    10  59    6.1690   478.1    5.886      58.895
2014   12       27    11   4    6.1675   478.1    5.885      58.866
2014   12       27    11   9    6.1660   478.0    5.884      58.838
2014   12       27    11  14    6.1646   478.0    5.883      58.809
2014   12       27    11  19    6.1631   477.9    5.882      58.780
2014   12       27    11  24    6.1616   477.9    5.881      58.751
2014   12       27    11  29    6.1601   477.8    5.880      58.722
2014   12       27    11  34    6.1587   477.8    5.879      58.694
2014   12       27    11  39    6.1573   477.7    5.878      58.665
2014   12       27    11  44    6.1558   477.6    5.878      58.636
2014   12       27    11  48    6.1544   477.6    5.877      58.607
2014   12       27    11  53    6.1531   477.5    5.876      58.579
2014   12       27    11  58    6.1517   477.5    5.876      58.550
2014   12       27    12   3    6.1504   477.4    5.876      58.522
2014   12       27    12   8    6.1491   477.3    5.875      58.494
2014   12       27    12  13    6.1478   477.3    5.875      58.467
2014   12       27    12  18    6.1466   477.2    5.875      58.439
2014   12       27    12  23    6.1454   477.1    5.875      58.413
2014   12       27    12  28    6.1442   477.1    5.875      58.386
2014   12       27    12  33    6.1431   477.0    5.876      58.361
2014   12       27    12  38    6.1421   476.9    5.876      58.336
2014   12       27    12  43    6.1410   476.8    5.877      58.312
2014   12       27    12  48    6.1401   476.8    5.878      58.288
2014   12       27    12  53    6.1392   476.7    5.879      58.265
2014   12       27    12  58    6.1383   476.6    5.881      58.244
2014   12       27    13   3    6.1376   476.6    5.882      58.223
2014   12       27    13   8    6.1368   476.5    5.884      58.203
2014   12       27    13  13    6.1361   476.4    5.886      58.184
2014   12       27    13  18    6.1355   476.4    5.888      58.165
2014   12       27    13  23    6.1350   476.3    5.890      58.148
2014   12       27    13  28    6.1345   476.2    5.893      58.132
2014   12       27    13  33    6.1340   476.2    5.896      58.117
2014   12       27    13  38    6.1337   476.1    5.898      58.103
2014   12       27    13  43    6.1333   476.0    5.901      58.091
2014   12       27    13  48    6.1330   476.0    5.904      58.081
2014   12       27    13  53    6.1327   475.9    5.907      58.071
2014   12       27    13  58    6.1325   475.8    5.910      58.060
2014   12       27    14   3    6.1323   475.8    5.913      58.050
2014   12       27    14   8    6.1321   475.7    5.916      58.041
2014   12       27    14  13    6.1319   475.7    5.919      58.032
2014   12       27    14  18    6.1317   475.6    5.922      58.024
2014   12       27    14  23    6.1314   475.5    5.925      58.016
2014   12       27    14  28    6.1312   475.5    5.927      58.009
2014   12       27    14  33    6.1310   475.4    5.930      58.002
2014   12       27    14  38    6.1307   475.3    5.932      57.996
2014   12       27    14  42    6.1305   475.3    5.935      57.990
2014   12       27    14  47    6.1302   475.2    5.937      57.984
2014   12       27    14  52    6.1299   475.1    5.939      57.977
2014   12       27    14  57    6.1296   475.1    5.941      57.969
2014   12       27    15   2    6.1294   475.0    5.942      57.961
2014   12       27    15   7    6.1291   475.0    5.944      57.952
2014   12       27    15  12    6.1288   474.9    5.946      57.943
2014   12       27    15  17    6.1285   474.8    5.947      57.933
2014   12       27    15  22    6.1282   474.8    5.948      57.923
2014   12       27    15  27    6.1279   474.7    5.950      57.913
2014   12       27    15  32    6.1276   474.6    5.951      57.901
2014   12       27    15  37    6.1273   474.6    5.952      57.890
2014   12       27    15  42    6.1270   474.5    5.953      57.877
2014   12       27    15  47    6.1267   474.4    5.954      57.865
2014   12       27    15  52    6.1264   474.3    5.955      57.852
2014   12       27    15  57    6.1262   474.3    5.956      57.838
2014   12       27    16   2    6.1259   474.2    5.957      57.824
2014   12       27    16   7    6.1256   474.1    5.958      57.810
2014   12       27    16  12    6.1253   474.1    5.958      57.795
2014   12       27    16  17    6.1251   474.0    5.959      57.780
2014   12       27    16  22    6.1248   473.9    5.960      57.765
2014   12       27    16  27    6.1246   473.8    5.960      57.749
2014   12       27    16  32    6.1243   473.8    5.961      57.733
2014   12       27    16  37    6.1241   473.7    5.961      57.717
2014   12       27    16  42    6.1239   473.6    5.962      57.700
2014   12       27    16  47    6.1237   473.6    5.962      57.683
2014   12       27    16  52    6.1236   473.5    5.963      57.666
2014   12       27    16  57    6.1234   473.4    5.963      57.648
2014   12       27    17   2    6.1233   473.3    5.964      57.631
2014   12       27    17   7    6.1232   473.3    5.964      57.613
2014   12       27    17  12    6.1231   473.2    5.965      57.594
2014   12       27    17  17    6.1230   473.1    5.965      57.576
2014   12       27    17  21    6.1229   473.0    5.966      57.557
2014   12       27    17  26    6.1228   473.0    5.966      57.538
2014   12       27    17  31    6.1228   472.9    5.967      57.519
2014   12       27    17  36    6.1228   472.8    5.967      57.500
2014   12       27    17  41    6.1228   472.7    5.968      57.480
2014   12       27    17  46    6.1228   472.6    5.968      57.460
2014   12       27    17  51    6.1229   472.6    5.969      57.440
2014   12       27    17  56    6.1229   472.5    5.969      57.420
2014   12       27    18   1    6.1230   472.4    5.970      57.400
2014   12       27    18   6    6.1231   472.3    5.970      57.379
2014   12       27    18  11    6.1232   472.3    5.971      57.359
2014   12       27    18  16    6.1234   472.2    5.972      57.338
2014   12       27    18  21    6.1235   472.1    5.972      57.317
2014   12       27    18  26    6.1238   472.0    5.973      57.295
2014   12       27    18  31    6.1240   471.9    5.974      57.274
2014   12       27    18  36    6.1242   471.9    5.974      57.252
2014   12       27    18  41    6.1245   471.8    5.975      57.230
2014   12       27    18  46    6.1248   471.7    5.976      57.208
2014   12       27    18  51    6.1251   471.6    5.977      57.185
2014   12       27    18  56    6.1255   471.5    5.978      57.162
2014   12       27    19   1    6.1259   471.4    5.979      57.139
2014   12       27    19   6    6.1263   471.3    5.980      57.116
2014   12       27    19  11    6.1268   471.2    5.982      57.093
2014   12       27    19  16    6.1273   471.2    5.983      57.070
2014   12       27    19  21    6.1279   471.1    5.985      57.047
2014   12       27    19  26    6.1285   471.0    5.986      57.024
2014   12       27    19  31    6.1292   470.9    5.988      57.002
2014   12       27    19  36    6.1299   470.8    5.990      56.980
2014   12       27    19  41    6.1307   470.7    5.992      56.958
2014   12       27    19  46    6.1315   470.6    5.994      56.936
2014   12       27    19  51    6.1324   470.5    5.996      56.915
2014   12       27    19  56    6.1334   470.4    5.998      56.895
2014   12       27    20   1    6.1345   470.3    6.001      56.875
2014   12       27    20   6    6.1357   470.2    6.004      56.856
2014   12       27    20  11    6.1369   470.1    6.007      56.837
2014   12       27    20  15    6.1382   470.0    6.010      56.819
2014   12       27    20  20    6.1396   469.9    6.013      56.802
2014   12       27    20  25    6.1411   469.8    6.017      56.785
2014   12       27    20  30    6.1426   469.7    6.021      56.770
2014   12       27    20  35    6.1443   469.6    6.025      56.755
2014   12       27    20  40    6.1460   469.5    6.029      56.741
2014   12       27    20  45    6.1479   469.4    6.034      56.728
2014   12       27    20  50    6.1498   469.3    6.038      56.716
2014   12       27    20  55    6.1517   469.3    6.043      56.705
2014   12       27    21   0    6.1538   469.2    6.049      56.694
2014   12       27    21   5    6.1558   469.1    6.054      56.685
2014   12       27    21  10    6.1579   469.0    6.059      56.676
2014   12       27    21  15    6.1601   468.9    6.065      56.669
2014   12       27    21  20    6.1623   468.8    6.070      56.663
2014   12       27    21  25    6.1645   468.8    6.076      56.659
2014   12       27    21  30    6.1667   468.7    6.082      56.656
2014   12       27    21  35    6.1690   468.6    6.088      56.654
2014   12       27    21  40    6.1712   468.5    6.093      56.653
2014   12       27    21  45    6.1735   468.4    6.099      56.654
2014   12       27    21  50    6.1758   468.4    6.105      56.656
2014   12       27    21  55    6.1781   468.3    6.111      56.658
2014   12       27    22   0    6.1804   468.2    6.116      56.662
2014   12       27    22   5    6.1827   468.1    6.122      56.667
2014   12       27    22  10    6.1850   468.1    6.127      56.673
2014   12       27    22  15    6.1873   468.0    6.133      56.680
2014   12       27    22  20    6.1896   467.9    6.138      56.688
2014   12       27    22  25    6.1919   467.8    6.143      56.696
2014   12       27    22  30    6.1942   467.7    6.148      56.704
2014   12       27    22  35    6.1965   467.7    6.153      56.712
2014   12       27    22  40    6.1988   467.6    6.158      56.720
2014   12       27    22  45    6.2012   467.5    6.163      56.727
2014   12       27    22  50    6.2035   467.4    6.167      56.734
2014   12       27    22  55    6.2058   467.4    6.172      56.740
2014   12       27    22  59    6.2082   467.3    6.176      56.746
2014   12       27    23   4    6.2105   467.2    6.181      56.752
2014   12       27    23   9    6.2129   467.1    6.185      56.757
2014   12       27    23  14    6.2153   467.0    6.190      56.762
2014   12       27    23  19    6.2177   467.0    6.194      56.767
2014   12       27    23  24    6.2201   466.9    6.198      56.771
2014   12       27    23  29    6.2226   466.8    6.203      56.774
2014   12       27    23  34    6.2250   466.7    6.207      56.778
2014   12       27    23  39    6.2275   466.7    6.211      56.781
2014   12       27    23  44    6.2300   466.6    6.215      56.783
2014   12       27    23  49    6.2325   466.5    6.219      56.786
2014   12       27    23  54    6.2351   466.4    6.223      56.788
2014   12       27    23  59    6.2377   466.4    6.227      56.790
2014   12       28     0   4    6.2403   466.3    6.231      56.792
2014   12       28     0   9    6.2430   466.2    6.235      56.793
2014   12       28     0  14    6.2457   466.1    6.239      56.794
2014   12       28     0  19    6.2484   466.1    6.243      56.795
2014   12       28     0  24    6.2511   466.0    6.247      56.796
2014   12       28     0  29    6.2539   465.9    6.251      56.796
2014   12       28     0  34    6.2567   465.9    6.255      56.797
2014   12       28     0  39    6.2596   465.8    6.259      56.797
2014   12       28     0  44    6.2625   465.7    6.263      56.797
2014   12       28     0  49    6.2654   465.6    6.267      56.797
2014   12       28     0  54    6.2683   465.6    6.271      56.797
2014   12       28     0  59    6.2713   465.5    6.275      56.796
2014   12       28     1   4    6.2743   465.4    6.279      56.796
2014   12       28     1   9    6.2773   465.4    6.283      56.795
2014   12       28     1  14    6.2803   465.3    6.287      56.795
2014   12       28     1  19    6.2834   465.3    6.290      56.794
2014   12       28     1  24    6.2866   465.2    6.294      56.793
2014   12       28     1  29    6.2897   465.1    6.298      56.793
2014   12       28     1  34    6.2929   465.1    6.302      56.792
2014   12       28     1  39    6.2961   465.0    6.307      56.791
2014   12       28     1  43    6.2993   464.9    6.311      56.790
2014   12       28     1  48    6.3026   464.9    6.315      56.790
2014   12       28     1  53    6.3060   464.8    6.319      56.789
2014   12       28     1  58    6.3093   464.7    6.323      56.788
2014   12       28     2   3    6.3127   464.7    6.327      56.788
2014   12       28     2   8    6.3161   464.6    6.332      56.787
2014   12       28     2  13    6.3196   464.6    6.336      56.787
2014   12       28     2  18    6.3232   464.5    6.340      56.786
2014   12       28     2  23    6.3267   464.4    6.345      56.786
2014   12       28     2  28    6.3304   464.4    6.350      56.787
2014   12       28     2  33    6.3341   464.3    6.354      56.787
2014   12       28     2  38    6.3378   464.2    6.359      56.788
2014   12       28     2  43    6.3416   464.2    6.364      56.789
2014   12       28     2  48    6.3455   464.1    6.369      56.791
2014   12       28     2  53    6.3494   464.0    6.375      56.793
2014   12       28     2  58    6.3534   464.0    6.380      56.796
2014   12       28     3   3    6.3575   463.9    6.386      56.799
2014   12       28     3   8    6.3616   463.9    6.391      56.804
2014   12       28     3  13    6.3658   463.8    6.397      56.809
2014   12       28     3  18    6.3701   463.7    6.403      56.815
2014   12       28     3  23    6.3744   463.7    6.409      56.822
2014   12       28     3  28    6.3788   463.6    6.416      56.830
2014   12       28     3  33    6.3834   463.6    6.422      56.839
2014   12       28     3  38    6.3880   463.5    6.429      56.849
2014   12       28     3  43    6.3926   463.5    6.436      56.859
2014   12       28     3  48    6.3974   463.4    6.443      56.871
2014   12       28     3  53    6.4022   463.4    6.450      56.884
2014   12       28     3  58    6.4071   463.3    6.458      56.898
2014   12       28     4   3    6.4121   463.3    6.465      56.912
2014   12       28     4   8    6.4171   463.2    6.473      56.928
2014   12       28     4  13    6.4223   463.2    6.481      56.944
2014   12       28     4  18    6.4274   463.1    6.489      56.961
2014   12       28     4  23    6.4326   463.1    6.498      56.979
2014   12       28     4  28    6.4379   463.1    6.506      56.997
2014   12       28     4  33    6.4432   463.0    6.515      57.016
2014   12       28     4  37    6.4484   463.0    6.524      57.035
2014   12       28     4  42    6.4537   463.0    6.533      57.054
2014   12       28     4  47    6.4590   463.0    6.542      57.075
2014   12       28     4  52    6.4643   462.9    6.551      57.097
2014   12       28     4  57    6.4696   462.9    6.560      57.119
2014   12       28     5   2    6.4749   462.9    6.569      57.144
2014   12       28     5   7    6.4801   462.9    6.578      57.169
2014   12       28     5  12    6.4854   462.9    6.587      57.197
2014   12       28     5  17    6.4907   462.8    6.595      57.226
2014   12       28     5  22    6.4960   462.8    6.604      57.258
2014   12       28     5  27    6.5012   462.8    6.612      57.290
2014   12       28     5  32    6.5065   462.8    6.620      57.324
2014   12       28     5  37    6.5118   462.8    6.629      57.359
2014   12       28     5  42    6.5170   462.8    6.637      57.394
2014   12       28     5  47    6.5223   462.8    6.644      57.430
2014   12       28     5  52    6.5276   462.7    6.652      57.466
2014   12       28     5  57    6.5328   462.7    6.660      57.502
2014   12       28     6   2    6.5381   462.7    6.667      57.537
2014   12       28     6   7    6.5434   462.7    6.674      57.573
2014   12       28     6  12    6.5487   462.7    6.682      57.609
2014   12       28     6  17    6.5540   462.7    6.689      57.645
2014   12       28     6  22    6.5594   462.7    6.696      57.681
2014   12       28     6  27    6.5647   462.7    6.703      57.716
2014   12       28     6  32    6.5701   462.7    6.709      57.752
2014   12       28     6  37    6.5755   462.7    6.716      57.787
2014   12       28     6  42    6.5809   462.7    6.723      57.822
2014   12       28     6  47    6.5863   462.7    6.729      57.857
2014   12       28     6  52    6.5918   462.6    6.735      57.892
2014   12       28     6  57    6.5972   462.6    6.742      57.927
2014   12       28     7   2    6.6028   462.6    6.748      57.961
2014   12       28     7   7    6.6083   462.6    6.754      57.996
2014   12       28     7  12    6.6138   462.6    6.760      58.030
2014   12       28     7  17    6.6194   462.6    6.766      58.064
2014   12       28     7  21    6.6250   462.7    6.772      58.098
2014   12       28     7  26    6.6306   462.7    6.778      58.132
2014   12       28     7  31    6.6363   462.7    6.783      58.166
2014   12       28     7  36    6.6419   462.7    6.789      58.199
2014   12       28     7  41    6.6476   462.7    6.795      58.232
2014   12       28     7  46    6.6533   462.7    6.800      58.265
2014   12       28     7  51    6.6590   462.7    6.805      58.297
2014   12       28     7  56    6.6647   462.7    6.811      58.330
2014   12       28     8   1    6.6705   462.7    6.816      58.362
2014   12       28     8   6    6.6763   462.7    6.821      58.393
2014   12       28     8  11    6.6821   462.8    6.826      58.425
2014   12       28     8  16    6.6878   462.8    6.831      58.456
2014   12       28     8  21    6.6936   462.8    6.836      58.487
2014   12       28     8  26    6.6994   462.8    6.841      58.518
2014   12       28     8  31    6.7052   462.8    6.846      58.549
2014   12       28     8  36    6.7110   462.9    6.851      58.579
2014   12       28     8  41    6.7168   462.9    6.855      58.609
2014   12       28     8  46    6.7226   462.9    6.860      58.639
2014   12       28     8  51    6.7284   462.9    6.865      58.669
2014   12       28     8  56    6.7342   462.9    6.869      58.699
2014   12       28     9   1    6.7400   463.0    6.873      58.729
2014   12       28     9   6    6.7458   463.0    6.878      58.758
2014   12       28     9  11    6.7516   463.0    6.882      58.787
2014   12       28     9  16    6.7574   463.0    6.887      58.817
2014   12       28     9  21    6.7631   463.1    6.891      58.846
2014   12       28     9  26    6.7689   463.1    6.895      58.875
2014   12       28     9  31    6.7747   463.1    6.899      58.904
2014   12       28     9  36    6.7804   463.1    6.903      58.933
2014   12       28     9  41    6.7861   463.2    6.908      58.962
2014   12       28     9  46    6.7919   463.2    6.912      58.990
2014   12       28     9  51    6.7976   463.2    6.916      59.019
2014   12       28     9  56    6.8033   463.3    6.920      59.047
2014   12       28    10   1    6.8090   463.3    6.924      59.076
2014   12       28    10   6    6.8147   463.3    6.928      59.104
2014   12       28    10  10    6.8204   463.3    6.932      59.133
2014   12       28    10  15    6.8261   463.4    6.936      59.161
2014   12       28    10  20    6.8318   463.4    6.940      59.190
2014   12       28    10  25    6.8375   463.4    6.945      59.219
2014   12       28    10  30    6.8432   463.5    6.949      59.247
2014   12       28    10  35    6.8488   463.5    6.953      59.276
2014   12       28    10  40    6.8545   463.5    6.957      59.306
2014   12       28    10  45    6.8602   463.6    6.962      59.335
2014   12       28    10  50    6.8659   463.6    6.966      59.364
2014   12       28    10  55    6.8715   463.6    6.971      59.394
2014   12       28    11   0    6.8772   463.7    6.975      59.424
2014   12       28    11   5    6.8828   463.7    6.980      59.454
2014   12       28    11  10    6.8885   463.7    6.985      59.485
2014   12       28    11  15    6.8941   463.8    6.989      59.516
2014   12       28    11  20    6.8998   463.8    6.995      59.547
2014   12       28    11  25    6.9054   463.8    7.000      59.578
2014   12       28    11  30    6.9111   463.9    7.005      59.611
2014   12       28    11  35    6.9167   463.9    7.011      59.643
2014   12       28    11  40    6.9224   463.9    7.016      59.677
2014   12       28    11  45    6.9280   464.0    7.022      59.711
2014   12       28    11  50    6.9337   464.0    7.028      59.746
2014   12       28    11  55    6.9393   464.1    7.034      59.783
2014   12       28    12   0    6.9450   464.1    7.041      59.820
2014   12       28    12   5    6.9506   464.2    7.048      59.858
2014   12       28    12  10    6.9563   464.2    7.054      59.898
2014   12       28    12  15    6.9619   464.2    7.062      59.938
2014   12       28    12  20    6.9676   464.3    7.069      59.979
2014   12       28    12  25    6.9733   464.3    7.077      60.021
2014   12       28    12  30    6.9789   464.4    7.085      60.064
2014   12       28    12  35    6.9846   464.4    7.093      60.108
2014   12       28    12  40    6.9902   464.5    7.101      60.153
2014   12       28    12  45    6.9959   464.5    7.110      60.199
2014   12       28    12  50    7.0015   464.6    7.120      60.247
2014   12       28    12  55    7.0072   464.7    7.129      60.295
2014   12       28    12  59    7.0129   464.7    7.139      60.345
2014   12       28    13   4    7.0186   464.8    7.150      60.395
2014   12       28    13   9    7.0243   464.8    7.161      60.446
2014   12       28    13  14    7.0301   464.9    7.172      60.500
2014   12       28    13  19    7.0357   465.0    7.183      60.560
2014   12       28    13  24    7.0414   465.1    7.194      60.626
2014   12       28    13  29    7.0470   465.1    7.205      60.695
2014   12       28    13  34    7.0527   465.2    7.216      60.769
2014   12       28    13  39    7.0582   465.3    7.226      60.847
2014   12       28    13  44    7.0637   465.4    7.236      60.928
2014   12       28    13  49    7.0691   465.5    7.246      61.013
2014   12       28    13  54    7.0745   465.6    7.256      61.098
2014   12       28    13  59    7.0797   465.8    7.265      61.182
2014   12       28    14   4    7.0849   465.9    7.273      61.265
2014   12       28    14   9    7.0900   466.0    7.281      61.346
2014   12       28    14  14    7.0950   466.1    7.289      61.425
2014   12       28    14  19    7.1000   466.2    7.296      61.504
2014   12       28    14  24    7.1048   466.3    7.303      61.581
2014   12       28    14  29    7.1096   466.4    7.309      61.657
2014   12       28    14  34    7.1144   466.5    7.315      61.732
2014   12       28    14  39    7.1191   466.6    7.321      61.805
2014   12       28    14  44    7.1237   466.7    7.326      61.876
2014   12       28    14  49    7.1283   466.8    7.331      61.946
2014   12       28    14  54    7.1329   466.9    7.336      62.014
2014   12       28    14  59    7.1374   467.0    7.340      62.081
2014   12       28    15   4    7.1418   467.1    7.344      62.146
2014   12       28    15   9    7.1463   467.2    7.348      62.210
2014   12       28    15  14    7.1507   467.3    7.352      62.273
2014   12       28    15  19    7.1550   467.5    7.355      62.334
2014   12       28    15  24    7.1594   467.6    7.358      62.394
2014   12       28    15  29    7.1637   467.7    7.361      62.453
2014   12       28    15  34    7.1680   467.8    7.364      62.510
2014   12       28    15  38    7.1722   467.9    7.366      62.566
2014   12       28    15  43    7.1764   468.0    7.368      62.620
2014   12       28    15  48    7.1806   468.1    7.370      62.673
2014   12       28    15  53    7.1848   468.2    7.372      62.725
2014   12       28    15  58    7.1890   468.3    7.374      62.776
2014   12       28    16   3    7.1931   468.4    7.375      62.825
2014   12       28    16   8    7.1972   468.5    7.376      62.873
2014   12       28    16  13    7.2013   468.6    7.378      62.920
2014   12       28    16  18    7.2054   468.8    7.379      62.967
2014   12       28    16  23    7.2095   468.9    7.380      63.011
2014   12       28    16  28    7.2135   469.0    7.381      63.055
2014   12       28    16  33    7.2176   469.1    7.381      63.098
2014   12       28    16  38    7.2216   469.2    7.382      63.140
2014   12       28    16  43    7.2257   469.3    7.383      63.180
2014   12       28    16  48    7.2297   469.4    7.383      63.220
2014   12       28    16  53    7.2337   469.5    7.384      63.260
2014   12       28    16  58    7.2378   469.6    7.384      63.298
2014   12       28    17   3    7.2418   469.7    7.384      63.336
2014   12       28    17   8    7.2458   469.8    7.385      63.373
2014   12       28    17  13    7.2498   469.9    7.385      63.410
2014   12       28    17  18    7.2539   470.0    7.385      63.446
2014   12       28    17  23    7.2579   470.1    7.385      63.481
2014   12       28    17  28    7.2620   470.2    7.386      63.517
2014   12       28    17  33    7.2660   470.3    7.386      63.552
2014   12       28    17  38    7.2701   470.4    7.386      63.587
2014   12       28    17  43    7.2741   470.5    7.386      63.623
2014   12       28    17  48    7.2782   470.6    7.386      63.658
2014   12       28    17  53    7.2823   470.7    7.387      63.693
2014   12       28    17  58    7.2863   470.8    7.387      63.728
2014   12       28    18   3    7.2904   470.9    7.387      63.763
2014   12       28    18   8    7.2944   471.0    7.387      63.797
2014   12       28    18  13    7.2985   471.1    7.387      63.832
2014   12       28    18  18    7.3025   471.2    7.387      63.867
2014   12       28    18  23    7.3065   471.3    7.387      63.901
2014   12       28    18  28    7.3106   471.4    7.388      63.935
2014   12       28    18  32    7.3146   471.5    7.388      63.969
2014   12       28    18  37    7.3186   471.6    7.388      64.003
2014   12       28    18  42    7.3227   471.7    7.389      64.037
2014   12       28    18  47    7.3267   471.8    7.389      64.072
2014   12       28    18  52    7.3307   471.9    7.390      64.106
2014   12       28    18  57    7.3347   472.0    7.390      64.141
2014   12       28    19   2    7.3387   472.1    7.391      64.175
2014   12       28    19   7    7.3427   472.2    7.392      64.210
2014   12       28    19  12    7.3467   472.2    7.393      64.244
2014   12       28    19  17    7.3507   472.3    7.394      64.279
2014   12       28    19  22    7.3547   472.4    7.396      64.314
2014   12       28    19  27    7.3587   472.5    7.397      64.349
2014   12       28    19  32    7.3628   472.6    7.399      64.384
2014   12       28    19  37    7.3668   472.7    7.402      64.419
2014   12       28    19  42    7.3708   472.8    7.404      64.454
2014   12       28    19  47    7.3749   472.9    7.407      64.490
2014   12       28    19  52    7.3790   473.0    7.410      64.529
2014   12       28    19  57    7.3831   473.1    7.413      64.570
2014   12       28    20   2    7.3872   473.2    7.416      64.613
2014   12       28    20   7    7.3913   473.3    7.419      64.659
2014   12       28    20  12    7.3955   473.4    7.423      64.707
2014   12       28    20  17    7.3996   473.5    7.426      64.757
2014   12       28    20  22    7.4038   473.6    7.429      64.810
2014   12       28    20  27    7.4079   473.7    7.433      64.864
2014   12       28    20  32    7.4120   473.8    7.436      64.918
2014   12       28    20  37    7.4162   473.9    7.440      64.972
2014   12       28    20  42    7.4203   474.0    7.443      65.026
2014   12       28    20  47    7.4245   474.2    7.447      65.082
2014   12       28    20  52    7.4287   474.3    7.450      65.141
2014   12       28    20  57    7.4329   474.4    7.453      65.201
2014   12       28    21   2    7.4370   474.5    7.456      65.262
2014   12       28    21   7    7.4412   474.6    7.459      65.325
2014   12       28    21  12    7.4454   474.8    7.461      65.389
2014   12       28    21  16    7.4495   474.9    7.463      65.454
2014   12       28    21  21    7.4535   475.0    7.465      65.520
2014   12       28    21  26    7.4576   475.2    7.467      65.585
2014   12       28    21  31    7.4615   475.3    7.468      65.648
2014   12       28    21  36    7.4654   475.4    7.469      65.710
2014   12       28    21  41    7.4692   475.6    7.469      65.771
2014   12       28    21  46    7.4729   475.7    7.470      65.830
2014   12       28    21  51    7.4766   475.9    7.470      65.888
2014   12       28    21  56    7.4802   476.0    7.470      65.945
2014   12       28    22   1    7.4837   476.1    7.470      66.001
2014   12       28    22   6    7.4872   476.3    7.469      66.056
2014   12       28    22  11    7.4906   476.4    7.469      66.109
2014   12       28    22  16    7.4940   476.5    7.468      66.162
2014   12       28    22  21    7.4973   476.7    7.467      66.213
2014   12       28    22  26    7.5006   476.8    7.466      66.263
2014   12       28    22  31    7.5039   477.0    7.465      66.313
2014   12       28    22  36    7.5070   477.1    7.464      66.361
2014   12       28    22  41    7.5102   477.2    7.462      66.409
2014   12       28    22  46    7.5133   477.4    7.461      66.456
2014   12       28    22  51    7.5164   477.5    7.459      66.502
2014   12       28    22  56    7.5195   477.6    7.458      66.548
2014   12       28    23   1    7.5225   477.8    7.456      66.593
2014   12       28    23   6    7.5255   477.9    7.455      66.637
2014   12       28    23  11    7.5285   478.1    7.453      66.681
2014   12       28    23  16    7.5315   478.2    7.451      66.725
2014   12       28    23  21    7.5344   478.4    7.450      66.768
2014   12       28    23  26    7.5374   478.5    7.448      66.811
2014   12       28    23  31    7.5403   478.6    7.447      66.853
2014   12       28    23  36    7.5432   478.8    7.445      66.896
2014   12       28    23  41    7.5462   478.9    7.444      66.938
2014   12       28    23  46    7.5491   479.1    7.442      66.980
2014   12       28    23  51    7.5521   479.2    7.441      67.022
2014   12       28    23  56    7.5550   479.3    7.440      67.064
2014   12       29     0   0    7.5580   479.5    7.439      67.108
2014   12       29     0   5    7.5609   479.6    7.438      67.152
2014   12       29     0  10    7.5639   479.8    7.436      67.197
2014   12       29     0  15    7.5668   479.9    7.435      67.242
2014   12       29     0  20    7.5698   480.1    7.434      67.288
2014   12       29     0  25    7.5727   480.2    7.433      67.335
2014   12       29     0  30    7.5756   480.4    7.432      67.382
2014   12       29     0  35    7.5785   480.5    7.431      67.429
2014   12       29     0  40    7.5814   480.7    7.429      67.476
2014   12       29     0  45    7.5843   480.8    7.428      67.522
2014   12       29     0  50    7.5871   481.0    7.427      67.569
2014   12       29     0  55    7.5899   481.1    7.426      67.615
2014   12       29     1   0    7.5926   481.3    7.424      67.661
2014   12       29     1   5    7.5953   481.5    7.423      67.707
2014   12       29     1  10    7.5980   481.6    7.422      67.753
2014   12       29     1  15    7.6006   481.8    7.421      67.799
2014   12       29     1  20    7.6032   481.9    7.419      67.844
2014   12       29     1  25    7.6057   482.1    7.418      67.890
2014   12       29     1  30    7.6082   482.2    7.417      67.936
2014   12       29     1  35    7.6107   482.4    7.415      67.981
2014   12       29     1  40    7.6132   482.6    7.414      68.027
2014   12       29     1  45    7.6156   482.7    7.413      68.072
2014   12       29     1  50    7.6180   482.9    7.412      68.118
2014   12       29     1  55    7.6204   483.0    7.411      68.164
2014   12       29     2   0    7.6227   483.2    7.410      68.210
2014   12       29     2   5    7.6251   483.4    7.409      68.256
2014   12       29     2  10    7.6274   483.5    7.408      68.303
2014   12       29     2  15    7.6297   483.7    7.407      68.349
2014   12       29     2  20    7.6319   483.9    7.405      68.396
2014   12       29     2  25    7.6342   484.1    7.405      68.443
2014   12       29     2  30    7.6365   484.2    7.404      68.490
2014   12       29     2  35    7.6387   484.4    7.403      68.537
2014   12       29     2  40    7.6410   484.6    7.402      68.584
2014   12       29     2  45    7.6432   484.8    7.401      68.631
2014   12       29     2  50    7.6454   484.9    7.400      68.677
2014   12       29     2  54    7.6476   485.1    7.399      68.724
2014   12       29     2  59    7.6498   485.3    7.398      68.770
2014   12       29     3   4    7.6520   485.5    7.397      68.816
2014   12       29     3   9    7.6541   485.7    7.397      68.862
2014   12       29     3  14    7.6563   485.8    7.396      68.908
2014   12       29     3  19    7.6585   486.0    7.395      68.954
2014   12       29     3  24    7.6607   486.2    7.394      68.999
2014   12       29     3  29    7.6629   486.4    7.394      69.045
2014   12       29     3  34    7.6651   486.6    7.393      69.091
2014   12       29     3  39    7.6673   486.8    7.392      69.138
2014   12       29     3  44    7.6695   487.0    7.391      69.187
2014   12       29     3  49    7.6716   487.1    7.390      69.237
2014   12       29     3  54    7.6738   487.3    7.388      69.288
2014   12       29     3  59    7.6759   487.5    7.386      69.340
2014   12       29     4   4    7.6779   487.7    7.385      69.393
2014   12       29     4   9    7.6799   487.9    7.382      69.447
2014   12       29     4  14    7.6819   488.1    7.380      69.500
2014   12       29     4  19    7.6838   488.3    7.378      69.553
2014   12       29     4  24    7.6856   488.5    7.375      69.605
2014   12       29     4  29    7.6874   488.7    7.372      69.657
2014   12       29     4  34    7.6892   488.9    7.368      69.708
2014   12       29     4  39    7.6909   489.1    7.365      69.758
2014   12       29     4  44    7.6925   489.3    7.361      69.808
2014   12       29     4  49    7.6941   489.5    7.357      69.856
2014   12       29     4  54    7.6957   489.6    7.353      69.904
2014   12       29     4  59    7.6972   489.8    7.349      69.952
2014   12       29     5   4    7.6987   490.0    7.345      69.998
2014   12       29     5   9    7.7001   490.2    7.340      70.044
2014   12       29     5  14    7.7015   490.4    7.336      70.088
2014   12       29     5  19    7.7029   490.6    7.331      70.132
2014   12       29     5  24    7.7042   490.8    7.326      70.175
2014   12       29     5  29    7.7055   491.0    7.322      70.218
2014   12       29     5  33    7.7068   491.2    7.317      70.259
2014   12       29     5  38    7.7080   491.4    7.312      70.300
2014   12       29     5  43    7.7092   491.6    7.307      70.340
2014   12       29     5  48    7.7103   491.7    7.301      70.379
2014   12       29     5  53    7.7114   491.9    7.296      70.418
2014   12       29     5  58    7.7125   492.1    7.291      70.456
2014   12       29     6   3    7.7135   492.3    7.286      70.493
2014   12       29     6   8    7.7145   492.5    7.281      70.529
2014   12       29     6  13    7.7155   492.7    7.275      70.565
2014   12       29     6  18    7.7164   492.9    7.270      70.600
2014   12       29     6  23    7.7173   493.1    7.265      70.635
2014   12       29     6  28    7.7182   493.3    7.260      70.669
2014   12       29     6  33    7.7190   493.4    7.254      70.702
2014   12       29     6  38    7.7198   493.6    7.249      70.735
2014   12       29     6  43    7.7206   493.8    7.244      70.768
2014   12       29     6  48    7.7213   494.0    7.239      70.799
2014   12       29     6  53    7.7220   494.2    7.234      70.831
2014   12       29     6  58    7.7226   494.4    7.229      70.862
2014   12       29     7   3    7.7233   494.6    7.224      70.892
2014   12       29     7   8    7.7239   494.8    7.219      70.922
2014   12       29     7  13    7.7244   494.9    7.215      70.952
2014   12       29     7  18    7.7250   495.1    7.210      70.982
2014   12       29     7  23    7.7255   495.3    7.206      71.011
2014   12       29     7  28    7.7260   495.5    7.201      71.040
2014   12       29     7  33    7.7265   495.7    7.197      71.069
2014   12       29     7  38    7.7270   495.9    7.193      71.097
2014   12       29     7  43    7.7274   496.0    7.189      71.127
2014   12       29     7  48    7.7278   496.2    7.186      71.157
2014   12       29     7  53    7.7282   496.4    7.182      71.188
2014   12       29     7  58    7.7286   496.6    7.179      71.219
2014   12       29     8   3    7.7289   496.8    7.175      71.251
2014   12       29     8   8    7.7291   497.0    7.172      71.283
2014   12       29     8  13    7.7294   497.2    7.169      71.317
2014   12       29     8  18    7.7296   497.3    7.166      71.350
2014   12       29     8  23    7.7297   497.5    7.163      71.383
2014   12       29     8  27    7.7298   497.7    7.160      71.416
2014   12       29     8  32    7.7299   497.9    7.157      71.449
2014   12       29     8  37    7.7300   498.1    7.155      71.482
2014   12       29     8  42    7.7300   498.3    7.152      71.515
2014   12       29     8  47    7.7300   498.4    7.150      71.550
2014   12       29     8  52    7.7300   498.6    7.148      71.583
2014   12       29     8  57    7.7300   498.8    7.147      71.616
2014   12       29     9   2    7.7300   499.0    7.145      71.650
2014   12       29     9   7    7.7299   499.2    7.144      71.686
2014   12       29     9  12    7.7298   499.3    7.143      71.726
2014   12       29     9  17    7.7297   499.5    7.142      71.767
2014   12       29     9  22    7.7295   499.7    7.141      71.809
2014   12       29     9  27    7.7292   499.9    7.139      71.854
2014   12       29     9  32    7.7288   500.1    7.138      71.901
2014   12       29     9  37    7.7283   500.3    7.137      71.950
2014   12       29     9  42    7.7278   500.6    7.135      71.997
2014   12       29     9  47    7.7271   500.8    7.133      72.044
2014   12       29     9  52    7.7263   501.0    7.131      72.089
2014   12       29     9  57    7.7255   501.2    7.128      72.132
2014   12       29    10   2    7.7245   501.4    7.126      72.175
2014   12       29    10   7    7.7234   501.6    7.123      72.216
2014   12       29    10  12    7.7222   501.8    7.120      72.255
2014   12       29    10  17    7.7210   502.0    7.116      72.294
2014   12       29    10  22    7.7196   502.2    7.112      72.331
2014   12       29    10  27    7.7182   502.4    7.108      72.366
2014   12       29    10  32    7.7167   502.6    7.104      72.401
2014   12       29    10  37    7.7152   502.8    7.099      72.434
2014   12       29    10  42    7.7136   503.0    7.095      72.466
2014   12       29    10  47    7.7120   503.2    7.090      72.498
2014   12       29    10  52    7.7104   503.4    7.085      72.528
2014   12       29    10  57    7.7087   503.6    7.079      72.558
2014   12       29    11   2    7.7070   503.9    7.074      72.587
2014   12       29    11   7    7.7052   504.1    7.068      72.615
2014   12       29    11  11    7.7035   504.3    7.062      72.643
2014   12       29    11  16    7.7016   504.5    7.056      72.669
2014   12       29    11  21    7.6998   504.7    7.050      72.695
2014   12       29    11  26    7.6979   504.9    7.043      72.720
2014   12       29    11  31    7.6960   505.1    7.037      72.745
2014   12       29    11  36    7.6940   505.3    7.030      72.768
2014   12       29    11  41    7.6920   505.5    7.023      72.791
2014   12       29    11  46    7.6900   505.7    7.016      72.813
2014   12       29    11  51    7.6879   505.9    7.009      72.835
2014   12       29    11  56    7.6858   506.1    7.002      72.856
2014   12       29    12   1    7.6836   506.3    6.995      72.876
2014   12       29    12   6    7.6814   506.5    6.987      72.895
2014   12       29    12  11    7.6791   506.7    6.979      72.913
2014   12       29    12  16    7.6768   506.9    6.972      72.931
2014   12       29    12  21    7.6743   507.2    6.964      72.947
2014   12       29    12  26    7.6719   507.4    6.956      72.963
2014   12       29    12  31    7.6694   507.6    6.948      72.979
2014   12       29    12  36    7.6669   507.8    6.940      72.993
2014   12       29    12  41    7.6643   508.0    6.932      73.007
2014   12       29    12  46    7.6617   508.2    6.924      73.020
2014   12       29    12  51    7.6590   508.4    6.916      73.032
2014   12       29    12  56    7.6563   508.6    6.907      73.043
2014   12       29    13   1    7.6536   508.8    6.899      73.054
2014   12       29    13   6    7.6508   509.0    6.890      73.064
2014   12       29    13  11    7.6479   509.2    6.882      73.074
2014   12       29    13  16    7.6451   509.4    6.873      73.083
2014   12       29    13  21    7.6421   509.6    6.865      73.091
2014   12       29    13  26    7.6392   509.8    6.856      73.098
2014   12       29    13  31    7.6362   510.0    6.848      73.105
2014   12       29    13  36    7.6331   510.2    6.839      73.112
2014   12       29    13  41    7.6300   510.4    6.830      73.117
2014   12       29    13  46    7.6269   510.6    6.822      73.122
2014   12       29    13  51    7.6238   510.8    6.813      73.127
2014   12       29    13  55    7.6205   511.0    6.804      73.130
2014   12       29    14   0    7.6173   511.2    6.796      73.133
2014   12       29    14   5    7.6140   511.4    6.787      73.136
2014   12       29    14  10    7.6106   511.6    6.778      73.137
2014   12       29    14  15    7.6072   511.7    6.769      73.138
2014   12       29    14  20    7.6038   511.9    6.761      73.137
2014   12       29    14  25    7.6003   512.1    6.752      73.135
2014   12       29    14  30    7.5967   512.3    6.743      73.132
2014   12       29    14  35    7.5931   512.5    6.734      73.128
2014   12       29    14  40    7.5895   512.7    6.726      73.123
2014   12       29    14  45    7.5858   512.9    6.717      73.117
2014   12       29    14  50    7.5820   513.1    6.708      73.110
2014   12       29    14  55    7.5782   513.3    6.700      73.101
2014   12       29    15   0    7.5743   513.5    6.691      73.092
2014   12       29    15   5    7.5704   513.7    6.682      73.081
2014   12       29    15  10    7.5664   513.8    6.673      73.070
2014   12       29    15  15    7.5624   514.0    6.664      73.057
2014   12       29    15  20    7.5583   514.2    6.655      73.043
2014   12       29    15  25    7.5542   514.4    6.647      73.028
2014   12       29    15  30    7.5499   514.6    6.638      73.013
2014   12       29    15  35    7.5457   514.8    6.629      72.996
2014   12       29    15  40    7.5414   514.9    6.620      72.978
2014   12       29    15  45    7.5371   515.1    6.611      72.959
2014   12       29    15  50    7.5327   515.3    6.602      72.939
2014   12       29    15  55    7.5282   515.5    6.593      72.918
2014   12       29    16   0    7.5237   515.6    6.584      72.897
2014   12       29    16   5    7.5193   515.8    6.575      72.875
2014   12       29    16  10    7.5147   516.0    6.566      72.852
2014   12       29    16  15    7.5101   516.1    6.558      72.828
2014   12       29    16  20    7.5054   516.3    6.549      72.803
2014   12       29    16  25    7.5008   516.5    6.540      72.778
2014   12       29    16  30    7.4961   516.6    6.531      72.752
2014   12       29    16  35    7.4913   516.8    6.522      72.725
2014   12       29    16  40    7.4866   516.9    6.513      72.698
2014   12       29    16  44    7.4818   517.1    6.505      72.670
2014   12       29    16  49    7.4770   517.2    6.496      72.641
2014   12       29    16  54    7.4722   517.4    6.487      72.612
2014   12       29    16  59    7.4673   517.5    6.479      72.582
2014   12       29    17   4    7.4625   517.7    6.470      72.552
2014   12       29    17   9    7.4576   517.8    6.462      72.521
2014   12       29    17  14    7.4528   517.9    6.453      72.490
2014   12       29    17  19    7.4479   518.1    6.445      72.458
2014   12       29    17  24    7.4430   518.2    6.436      72.427
2014   12       29    17  29    7.4381   518.3    6.428      72.394
2014   12       29    17  34    7.4332   518.5    6.420      72.362
2014   12       29    17  39    7.4283   518.6    6.412      72.330
2014   12       29    17  44    7.4235   518.7    6.404      72.297
2014   12       29    17  49    7.4186   518.8    6.396      72.264
2014   12       29    17  54    7.4137   519.0    6.388      72.231
2014   12       29    17  59    7.4089   519.1    6.380      72.197
2014   12       29    18   4    7.4040   519.2    6.372      72.163
2014   12       29    18   9    7.3992   519.3    6.364      72.128
2014   12       29    18  14    7.3944   519.4    6.356      72.094
2014   12       29    18  19    7.3895   519.5    6.348      72.059
2014   12       29    18  24    7.3848   519.6    6.340      72.023
2014   12       29    18  29    7.3799   519.8    6.332      71.988
2014   12       29    18  34    7.3751   519.9    6.325      71.952
2014   12       29    18  39    7.3703   520.0    6.317      71.916
2014   12       29    18  44    7.3655   520.1    6.309      71.880
2014   12       29    18  49    7.3607   520.2    6.302      71.843
2014   12       29    18  54    7.3559   520.3    6.294      71.806
2014   12       29    18  59    7.3510   520.4    6.286      71.769
2014   12       29    19   4    7.3462   520.5    6.279      71.732
2014   12       29    19   9    7.3414   520.6    6.271      71.695
2014   12       29    19  14    7.3365   520.7    6.264      71.657
2014   12       29    19  19    7.3316   520.8    6.256      71.619
2014   12       29    19  23    7.3267   520.9    6.249      71.581
2014   12       29    19  28    7.3218   521.0    6.241      71.543
2014   12       29    19  33    7.3169   521.1    6.234      71.504
2014   12       29    19  38    7.3119   521.2    6.227      71.465
2014   12       29    19  43    7.3070   521.2    6.219      71.426
2014   12       29    19  48    7.3020   521.3    6.212      71.387
2014   12       29    19  53    7.2970   521.4    6.205      71.348
2014   12       29    19  58    7.2919   521.5    6.197      71.308
2014   12       29    20   3    7.2869   521.6    6.190      71.268
2014   12       29    20   8    7.2819   521.7    6.183      71.228
2014   12       29    20  13    7.2768   521.8    6.175      71.188
2014   12       29    20  18    7.2717   521.9    6.168      71.147
2014   12       29    20  23    7.2667   521.9    6.161      71.107
2014   12       29    20  28    7.2615   522.0    6.153      71.066
2014   12       29    20  33    7.2565   522.1    6.146      71.024
2014   12       29    20  38    7.2513   522.2    6.139      70.983
2014   12       29    20  43    7.2462   522.3    6.131      70.941
2014   12       29    20  48    7.2411   522.3    6.124      70.899
2014   12       29    20  53    7.2359   522.4    6.117      70.856
2014   12       29    20  58    7.2308   522.5    6.109      70.814
2014   12       29    21   3    7.2256   522.6    6.102      70.771
2014   12       29    21   8    7.2205   522.6    6.094      70.727
2014   12       29    21  13    7.2153   522.7    6.087      70.683
2014   12       29    21  18    7.2102   522.8    6.080      70.639
2014   12       29    21  23    7.2050   522.8    6.072      70.595
2014   12       29    21  28    7.1999   522.9    6.065      70.549
2014   12       29    21  33    7.1947   523.0    6.058      70.504
2014   12       29    21  38    7.1896   523.0    6.050      70.458
2014   12       29    21  43    7.1844   523.1    6.043      70.412
2014   12       29    21  48    7.1793   523.2    6.036      70.365
2014   12       29    21  53    7.1742   523.2    6.029      70.317
2014   12       29    21  58    7.1691   523.3    6.022      70.270
2014   12       29    22   3    7.1640   523.3    6.015      70.222
2014   12       29    22   8    7.1589   523.4    6.008      70.173
2014   12       29    22  12    7.1539   523.5    6.001      70.123
2014   12       29    22  17    7.1488   523.5    5.994      70.074
2014   12       29    22  22    7.1438   523.6    5.987      70.024
2014   12       29    22  27    7.1389   523.6    5.980      69.973
2014   12       29    22  32    7.1339   523.7    5.973      69.922
2014   12       29    22  37    7.1290   523.7    5.967      69.871
2014   12       29    22  42    7.1241   523.8    5.960      69.819
2014   12       29    22  47    7.1192   523.8    5.954      69.766
2014   12       29    22  52    7.1144   523.9    5.947      69.713
2014   12       29    22  57    7.1096   523.9    5.941      69.660
2014   12       29    23   2    7.1049   523.9    5.935      69.606
2014   12       29    23   7    7.1002   524.0    5.929      69.552
2014   12       29    23  12    7.0956   524.0    5.922      69.498
2014   12       29    23  17    7.0910   524.1    5.916      69.443
2014   12       29    23  22    7.0864   524.1    5.911      69.388
2014   12       29    23  27    7.0819   524.1    5.905      69.333
2014   12       29    23  32    7.0775   524.2    5.899      69.278
2014   12       29    23  37    7.0731   524.2    5.893      69.222
2014   12       29    23  42    7.0686   524.3    5.887      69.167
2014   12       29    23  47    7.0643   524.3    5.881      69.112
2014   12       29    23  52    7.0599   524.3    5.876      69.056
2014   12       29    23  57    7.0556   524.4    5.870      69.000
2014   12       30     0   2    7.0512   524.4    5.864      68.943
2014   12       30     0   7    7.0469   524.5    5.858      68.885
2014   12       30     0  12    7.0426   524.5    5.852      68.827
2014   12       30     0  17    7.0383   524.5    5.845      68.768
2014   12       30     0  22    7.0340   524.6    5.839      68.709
2014   12       30     0  27    7.0297   524.6    5.833      68.650
2014   12       30     0  32    7.0254   524.6    5.827      68.590
2014   12       30     0  37    7.0212   524.7    5.821      68.530
2014   12       30     0  42    7.0169   524.7    5.815      68.469
2014   12       30     0  47    7.0127   524.7    5.808      68.409
2014   12       30     0  52    7.0085   524.8    5.802      68.348
2014   12       30     0  57    7.0043   524.8    5.796      68.287
2014   12       30     1   1    7.0001   524.8    5.790      68.225
2014   12       30     1   6    6.9959   524.8    5.784      68.164
2014   12       30     1  11    6.9917   524.8    5.778      68.102
2014   12       30     1  16    6.9876   524.9    5.772      68.040
2014   12       30     1  21    6.9835   524.9    5.766      67.979
2014   12       30     1  26    6.9794   524.9    5.760      67.917
2014   12       30     1  31    6.9753   524.9    5.754      67.855
2014   12       30     1  36    6.9712   524.9    5.748      67.793
2014   12       30     1  41    6.9672   524.9    5.742      67.731
2014   12       30     1  46    6.9631   524.9    5.737      67.669
2014   12       30     1  51    6.9591   525.0    5.731      67.607
2014   12       30     1  56    6.9551   525.0    5.726      67.545
2014   12       30     2   1    6.9511   525.0    5.720      67.484
2014   12       30     2   6    6.9471   525.0    5.715      67.422
2014   12       30     2  11    6.9431   525.0    5.710      67.361
2014   12       30     2  16    6.9392   525.0    5.705      67.300
2014   12       30     2  21    6.9352   525.0    5.700      67.240
2014   12       30     2  26    6.9313   525.0    5.695      67.180
2014   12       30     2  31    6.9274   525.0    5.690      67.120
2014   12       30     2  36    6.9235   525.0    5.686      67.061
2014   12       30     2  41    6.9197   525.0    5.681      67.002
2014   12       30     2  46    6.9158   524.9    5.676      66.943
2014   12       30     2  51    6.9120   524.9    5.672      66.885
2014   12       30     2  56    6.9082   524.9    5.668      66.828
2014   12       30     3   1    6.9044   524.9    5.663      66.771
2014   12       30     3   6    6.9006   524.9    5.659      66.715
2014   12       30     3  11    6.8969   524.9    5.655      66.659
2014   12       30     3  16    6.8932   524.9    5.651      66.604
2014   12       30     3  21    6.8895   524.9    5.647      66.549
2014   12       30     3  26    6.8859   524.9    5.643      66.495
2014   12       30     3  31    6.8822   524.8    5.639      66.442
2014   12       30     3  36    6.8786   524.8    5.635      66.389
2014   12       30     3  40    6.8750   524.8    5.632      66.336
2014   12       30     3  45    6.8715   524.8    5.628      66.284
2014   12       30     3  50    6.8679   524.8    5.625      66.233
2014   12       30     3  55    6.8644   524.7    5.621      66.183
2014   12       30     4   0    6.8610   524.7    5.618      66.133
2014   12       30     4   5    6.8575   524.7    5.614      66.083
2014   12       30     4  10    6.8541   524.7    5.611      66.034
2014   12       30     4  15    6.8508   524.7    5.607      65.986
2014   12       30     4  20    6.8474   524.6    5.604      65.937
2014   12       30     4  25    6.8441   524.6    5.601      65.890
2014   12       30     4  30    6.8409   524.6    5.598      65.843
2014   12       30     4  35    6.8377   524.5    5.595      65.796
2014   12       30     4  40    6.8345   524.5    5.592      65.749
2014   12       30     4  45    6.8313   524.5    5.589      65.703
2014   12       30     4  50    6.8283   524.5    5.586      65.657
2014   12       30     4  55    6.8252   524.4    5.583      65.612
2014   12       30     5   0    6.8222   524.4    5.580      65.567
2014   12       30     5   5    6.8193   524.4    5.577      65.522
2014   12       30     5  10    6.8164   524.3    5.575      65.477
2014   12       30     5  15    6.8136   524.3    5.572      65.433
2014   12       30     5  20    6.8108   524.3    5.570      65.389
2014   12       30     5  25    6.8081   524.2    5.567      65.345
2014   12       30     5  30    6.8054   524.2    5.565      65.302
2014   12       30     5  35    6.8028   524.1    5.563      65.258
2014   12       30     5  40    6.8002   524.1    5.561      65.215
2014   12       30     5  45    6.7977   524.1    5.559      65.172
2014   12       30     5  50    6.7952   524.0    5.557      65.129
2014   12       30     5  55    6.7927   524.0    5.555      65.086
2014   12       30     6   0    6.7904   524.0    5.553      65.043
2014   12       30     6   5    6.7881   523.9    5.551      65.001
2014   12       30     6  10    6.7858   523.9    5.549      64.959
2014   12       30     6  15    6.7836   523.9    5.548      64.916
2014   12       30     6  20    6.7814   523.8    5.546      64.875
2014   12       30     6  25    6.7793   523.8    5.545      64.834
2014   12       30     6  30    6.7773   523.8    5.543      64.792
2014   12       30     6  34    6.7753   523.7    5.542      64.751
2014   12       30     6  39    6.7733   523.7    5.541      64.710
2014   12       30     6  44    6.7714   523.7    5.539      64.669
2014   12       30     6  49    6.7695   523.6    5.538      64.628
2014   12       30     6  54    6.7676   523.6    5.536      64.586
2014   12       30     6  59    6.7657   523.6    5.535      64.544
2014   12       30     7   4    6.7639   523.6    5.533      64.502
2014   12       30     7   9    6.7620   523.5    5.531      64.459
2014   12       30     7  14    6.7602   523.5    5.530      64.417
2014   12       30     7  19    6.7583   523.5    5.528      64.374
2014   12       30     7  24    6.7564   523.5    5.526      64.331
2014   12       30     7  29    6.7546   523.4    5.524      64.288
2014   12       30     7  34    6.7527   523.4    5.523      64.245
2014   12       30     7  39    6.7508   523.4    5.521      64.202
2014   12       30     7  44    6.7489   523.3    5.519      64.159
2014   12       30     7  49    6.7470   523.3    5.517      64.116
2014   12       30     7  54    6.7451   523.3    5.515      64.073
2014   12       30     7  59    6.7432   523.3    5.513      64.029
2014   12       30     8   4    6.7413   523.2    5.511      63.986
2014   12       30     8   9    6.7394   523.2    5.509      63.943
2014   12       30     8  14    6.7375   523.2    5.507      63.900
2014   12       30     8  19    6.7355   523.2    5.505      63.857
2014   12       30     8  24    6.7336   523.1    5.503      63.814
2014   12       30     8  29    6.7317   523.1    5.501      63.771
2014   12       30     8  34    6.7297   523.1    5.499      63.728
2014   12       30     8  39    6.7278   523.1    5.497      63.686
2014   12       30     8  44    6.7258   523.0    5.495      63.643
2014   12       30     8  49    6.7239   523.0    5.493      63.601
2014   12       30     8  54    6.7219   523.0    5.491      63.559
2014   12       30     8  59    6.7200   523.0    5.489      63.517
2014   12       30     9   4    6.7180   522.9    5.486      63.475
2014   12       30     9   9    6.7161   522.9    5.484      63.433
2014   12       30     9  14    6.7141   522.9    5.482      63.392
2014   12       30     9  18    6.7121   522.8    5.480      63.350
2014   12       30     9  23    6.7102   522.8    5.477      63.309
2014   12       30     9  28    6.7082   522.8    5.475      63.268
2014   12       30     9  33    6.7063   522.8    5.473      63.227
2014   12       30     9  38    6.7044   522.7    5.470      63.187
2014   12       30     9  43    6.7024   522.7    5.468      63.146
2014   12       30     9  48    6.7005   522.7    5.466      63.106
2014   12       30     9  53    6.6986   522.6    5.463      63.066
2014   12       30     9  58    6.6967   522.6    5.461      63.027
2014   12       30    10   3    6.6948   522.6    5.458      62.988
2014   12       30    10   8    6.6929   522.5    5.456      62.949
2014   12       30    10  13    6.6911   522.5    5.453      62.910
2014   12       30    10  18    6.6893   522.5    5.451      62.872
2014   12       30    10  23    6.6874   522.4    5.449      62.834
2014   12       30    10  28    6.6856   522.4    5.446      62.797
2014   12       30    10  33    6.6838   522.4    5.444      62.760
2014   12       30    10  38    6.6820   522.4    5.441      62.723
2014   12       30    10  43    6.6803   522.3    5.439      62.687
2014   12       30    10  48    6.6786   522.3    5.437      62.651
2014   12       30    10  53    6.6768   522.3    5.434      62.615
2014   12       30    10  58    6.6752   522.2    5.432      62.580
2014   12       30    11   3    6.6735   522.2    5.430      62.545
2014   12       30    11   8    6.6719   522.2    5.427      62.510
2014   12       30    11  13    6.6703   522.1    5.425      62.475
2014   12       30    11  18    6.6687   522.1    5.423      62.441
2014   12       30    11  23    6.6671   522.1    5.421      62.407
2014   12       30    11  28    6.6656   522.0    5.419      62.373
2014   12       30    11  33    6.6641   522.0    5.416      62.340
2014   12       30    11  38    6.6627   522.0    5.414      62.307
2014   12       30    11  43    6.6612   521.9    5.412      62.274
2014   12       30    11  48    6.6598   521.9    5.411      62.241
2014   12       30    11  53    6.6585   521.9    5.409      62.208
2014   12       30    11  58    6.6571   521.8    5.407      62.176
2014   12       30    12   2    6.6558   521.8    5.405      62.143
2014   12       30    12   7    6.6545   521.8    5.403      62.111
2014   12       30    12  12    6.6533   521.8    5.402      62.079
2014   12       30    12  17    6.6520   521.7    5.400      62.047
2014   12       30    12  22    6.6508   521.7    5.398      62.015
2014   12       30    12  27    6.6496   521.7    5.396      61.982
2014   12       30    12  32    6.6484   521.6    5.395      61.950
2014   12       30    12  37    6.6473   521.6    5.393      61.917
2014   12       30    12  42    6.6461   521.6    5.392      61.885
2014   12       30    12  47    6.6450   521.6    5.390      61.852
2014   12       30    12  52    6.6439   521.5    5.388      61.819
2014   12       30    12  57    6.6429   521.5    5.387      61.787
2014   12       30    13   2    6.6418   521.5    5.385      61.754
2014   12       30    13   7    6.6408   521.4    5.384      61.721
2014   12       30    13  12    6.6398   521.4    5.382      61.688
2014   12       30    13  17    6.6388   521.4    5.380      61.655
2014   12       30    13  22    6.6379   521.4    5.379      61.621
2014   12       30    13  27    6.6369   521.3    5.377      61.588
2014   12       30    13  32    6.6360   521.3    5.376      61.555
2014   12       30    13  37    6.6352   521.3    5.374      61.522
2014   12       30    13  42    6.6343   521.2    5.373      61.489
2014   12       30    13  47    6.6335   521.2    5.371      61.455
2014   12       30    13  52    6.6327   521.2    5.370      61.422
2014   12       30    13  57    6.6319   521.2    5.369      61.389
2014   12       30    14   2    6.6312   521.1    5.367      61.356
2014   12       30    14   7    6.6304   521.1    5.366      61.323
2014   12       30    14  12    6.6298   521.1    5.365      61.290
2014   12       30    14  17    6.6291   521.1    5.363      61.257
2014   12       30    14  22    6.6284   521.0    5.362      61.224
2014   12       30    14  27    6.6278   521.0    5.361      61.191
2014   12       30    14  32    6.6272   521.0    5.360      61.159
2014   12       30    14  37    6.6266   521.0    5.358      61.126
2014   12       30    14  42    6.6260   520.9    5.357      61.094
2014   12       30    14  47    6.6255   520.9    5.356      61.061
2014   12       30    14  51    6.6250   520.9    5.355      61.029
2014   12       30    14  56    6.6244   520.9    5.354      60.997
2014   12       30    15   1    6.6239   520.8    5.353      60.965
2014   12       30    15   6    6.6234   520.8    5.352      60.933
2014   12       30    15  11    6.6229   520.8    5.351      60.901
2014   12       30    15  16    6.6223   520.8    5.350      60.870
2014   12       30    15  21    6.6218   520.7    5.349      60.839
2014   12       30    15  26    6.6212   520.7    5.349      60.808
2014   12       30    15  31    6.6207   520.7    5.348      60.777
2014   12       30    15  36    6.6201   520.7    5.347      60.746
2014   12       30    15  41    6.6194   520.7    5.346      60.716
2014   12       30    15  46    6.6188   520.7    5.346      60.685
2014   12       30    15  51    6.6182   520.6    5.345      60.655
2014   12       30    15  56    6.6175   520.6    5.344      60.626
2014   12       30    16   1    6.6168   520.6    5.344      60.596
2014   12       30    16   6    6.6161   520.6    5.343      60.566
2014   12       30    16  11    6.6155   520.6    5.342      60.537
2014   12       30    16  16    6.6147   520.6    5.342      60.508
2014   12       30    16  21    6.6140   520.5    5.341      60.479
2014   12       30    16  26    6.6133   520.5    5.340      60.451
2014   12       30    16  31    6.6125   520.5    5.340      60.422
2014   12       30    16  36    6.6118   520.5    5.339      60.394
2014   12       30    16  41    6.6111   520.5    5.338      60.367
2014   12       30    16  46    6.6103   520.5    5.337      60.339
2014   12       30    16  51    6.6096   520.4    5.337      60.312
2014   12       30    16  56    6.6089   520.4    5.336      60.285
2014   12       30    17   1    6.6081   520.4    5.335      60.258
2014   12       30    17   6    6.6074   520.4    5.334      60.232
2014   12       30    17  11    6.6067   520.4    5.333      60.206
2014   12       30    17  16    6.6060   520.4    5.332      60.181
2014   12       30    17  21    6.6053   520.3    5.331      60.155
2014   12       30    17  26    6.6046   520.3    5.330      60.130
2014   12       30    17  30    6.6040   520.3    5.329      60.106
2014   12       30    17  35    6.6033   520.3    5.328      60.082
2014   12       30    17  40    6.6027   520.3    5.327      60.058
2014   12       30    17  45    6.6020   520.3    5.326      60.034
2014   12       30    17  50    6.6014   520.2    5.325      60.011
2014   12       30    17  55    6.6008   520.2    5.324      59.989
2014   12       30    18   0    6.6002   520.2    5.323      59.966
2014   12       30    18   5    6.5997   520.2    5.322      59.944
2014   12       30    18  10    6.5991   520.2    5.321      59.923
2014   12       30    18  15    6.5986   520.1    5.320      59.901
2014   12       30    18  20    6.5981   520.1    5.319      59.880
2014   12       30    18  25    6.5976   520.1    5.319      59.860
2014   12       30    18  30    6.5972   520.1    5.318      59.840
2014   12       30    18  35    6.5967   520.1    5.317      59.820
2014   12       30    18  40    6.5963   520.1    5.316      59.800
2014   12       30    18  45    6.5959   520.0    5.315      59.781
2014   12       30    18  50    6.5955   520.0    5.314      59.762
2014   12       30    18  55    6.5951   520.0    5.313      59.743
2014   12       30    19   0    6.5948   520.0    5.313      59.724
2014   12       30    19   5    6.5945   520.0    5.312      59.706
2014   12       30    19  10    6.5942   520.0    5.311      59.688
2014   12       30    19  15    6.5939   520.0    5.311      59.670
2014   12       30    19  20    6.5937   519.9    5.310      59.652
2014   12       30    19  25    6.5934   519.9    5.310      59.635
2014   12       30    19  30    6.5933   519.9    5.309      59.617
2014   12       30    19  35    6.5931   519.9    5.309      59.600
2014   12       30    19  40    6.5929   519.9    5.309      59.583
2014   12       30    19  45    6.5928   519.9    5.309      59.567
2014   12       30    19  50    6.5927   519.9    5.309      59.550
2014   12       30    19  55    6.5926   519.9    5.308      59.534
2014   12       30    20   0    6.5926   519.9    5.308      59.518
2014   12       30    20   5    6.5925   519.8    5.308      59.503
2014   12       30    20  10    6.5925   519.8    5.308      59.488
2014   12       30    20  15    6.5924   519.8    5.308      59.473
2014   12       30    20  20    6.5924   519.8    5.308      59.458
2014   12       30    20  24    6.5924   519.8    5.308      59.444
2014   12       30    20  29    6.5924   519.8    5.307      59.429
2014   12       30    20  34    6.5924   519.8    5.307      59.414
2014   12       30    20  39    6.5925   519.8    5.307      59.399
2014   12       30    20  44    6.5925   519.8    5.306      59.384
2014   12       30    20  49    6.5926   519.8    5.306      59.369
2014   12       30    20  54    6.5926   519.8    5.305      59.354
2014   12       30    20  59    6.5927   519.8    5.305      59.339
2014   12       30    21   4    6.5928   519.8    5.304      59.324
2014   12       30    21   9    6.5929   519.8    5.304      59.308
2014   12       30    21  14    6.5930   519.8    5.303      59.293
2014   12       30    21  19    6.5931   519.8    5.303      59.278
2014   12       30    21  24    6.5933   519.8    5.302      59.263
2014   12       30    21  29    6.5935   519.8    5.301      59.248
2014   12       30    21  34    6.5937   519.7    5.301      59.233
2014   12       30    21  39    6.5939   519.7    5.300      59.218
2014   12       30    21  44    6.5942   519.7    5.300      59.204
2014   12       30    21  49    6.5945   519.7    5.299      59.189
2014   12       30    21  54    6.5948   519.7    5.299      59.174
2014   12       30    21  59    6.5951   519.7    5.298      59.159
2014   12       30    22   4    6.5954   519.7    5.298      59.144
2014   12       30    22   9    6.5957   519.7    5.297      59.130
2014   12       30    22  14    6.5961   519.7    5.297      59.115
2014   12       30    22  19    6.5965   519.7    5.297      59.100
2014   12       30    22  24    6.5969   519.7    5.296      59.085
2014   12       30    22  29    6.5973   519.7    5.296      59.071
2014   12       30    22  34    6.5978   519.7    5.296      59.056
2014   12       30    22  39    6.5983   519.7    5.295      59.041
2014   12       30    22  44    6.5987   519.7    5.295      59.026
2014   12       30    22  49    6.5992   519.7    5.295      59.011
2014   12       30    22  54    6.5997   519.7    5.295      58.996
2014   12       30    22  59    6.6001   519.7    5.295      58.981
2014   12       30    23   4    6.6006   519.7    5.295      58.967
2014   12       30    23   8    6.6011   519.7    5.295      58.952
2014   12       30    23  13    6.6016   519.7    5.295      58.937
2014   12       30    23  18    6.6020   519.7    5.295      58.922
2014   12       30    23  23    6.6025   519.7    5.295      58.907
2014   12       30    23  28    6.6030   519.7    5.295      58.892
2014   12       30    23  33    6.6034   519.7    5.295      58.878
2014   12       30    23  38    6.6039   519.7    5.296      58.864
2014   12       30    23  43    6.6043   519.7    5.296      58.850
2014   12       30    23  48    6.6047   519.7    5.296      58.837
2014   12       30    23  53    6.6051   519.7    5.296      58.824
2014   12       30    23  58    6.6055   519.8    5.296      58.812
2014   12       31     0   3    6.6059   519.8    5.296      58.800
2014   12       31     0   8    6.6062   519.8    5.296      58.789
2014   12       31     0  13    6.6066   519.8    5.297      58.777
2014   12       31     0  18    6.6069   519.8    5.297      58.766
2014   12       31     0  23    6.6072   519.8    5.297      58.755
2014   12       31     0  28    6.6076   519.8    5.297      58.745
2014   12       31     0  33    6.6079   519.8    5.297      58.734
2014   12       31     0  38    6.6082   519.8    5.297      58.724
2014   12       31     0  43    6.6085   519.9    5.297      58.715
2014   12       31     0  48    6.6088   519.9    5.296      58.705
2014   12       31     0  53    6.6090   519.9    5.296      58.696
2014   12       31     0  58    6.6093   519.9    5.296      58.687
2014   12       31     1   3    6.6096   519.9    5.296      58.678
2014   12       31     1   8    6.6099   519.9    5.295      58.669
2014   12       31     1  13    6.6102   519.9    5.295      58.659
2014   12       31     1  18    6.6104   519.9    5.295      58.650
2014   12       31     1  23    6.6107   520.0    5.294      58.640
2014   12       31     1  28    6.6110   520.0    5.294      58.630
2014   12       31     1  33    6.6113   520.0    5.294      58.619
2014   12       31     1  38    6.6116   520.0    5.293      58.609
2014   12       31     1  43    6.6118   520.0    5.293      58.598
2014   12       31     1  48    6.6121   520.0    5.292      58.587
2014   12       31     1  52    6.6124   520.0    5.292      58.576
2014   12       31     1  57    6.6128   520.1    5.291      58.565
2014   12       31     2   2    6.6131   520.1    5.291      58.553
2014   12       31     2   7    6.6134   520.1    5.290      58.541
2014   12       31     2  12    6.6137   520.1    5.289      58.529
2014   12       31     2  17    6.6140   520.1    5.289      58.517
2014   12       31     2  22    6.6144   520.1    5.288      58.505
2014   12       31     2  27    6.6148   520.1    5.288      58.492
2014   12       31     2  32    6.6151   520.2    5.287      58.480
2014   12       31     2  37    6.6155   520.2    5.287      58.467
2014   12       31     2  42    6.6159   520.2    5.286      58.455
2014   12       31     2  47    6.6163   520.2    5.286      58.442
2014   12       31     2  52    6.6167   520.2    5.285      58.429
2014   12       31     2  57    6.6172   520.2    5.285      58.416
2014   12       31     3   2    6.6177   520.2    5.284      58.403
2014   12       31     3   7    6.6181   520.3    5.284      58.391
2014   12       31     3  12    6.6186   520.3    5.284      58.378
2014   12       31     3  17    6.6192   520.3    5.283      58.365
2014   12       31     3  22    6.6197   520.3    5.283      58.352
2014   12       31     3  27    6.6203   520.3    5.283      58.340
2014   12       31     3  32    6.6209   520.4    5.283      58.328
2014   12       31     3  37    6.6215   520.4    5.283      58.316
2014   12       31     3  42    6.6222   520.4    5.283      58.306
2014   12       31     3  47    6.6228   520.4    5.283      58.295
2014   12       31     3  52    6.6235   520.4    5.283      58.285
2014   12       31     3  57    6.6243   520.5    5.283      58.276
2014   12       31     4   2    6.6250   520.5    5.283      58.268
2014   12       31     4   7    6.6257   520.5    5.283      58.259
2014   12       31     4  12    6.6265   520.5    5.283      58.251
2014   12       31     4  17    6.6273   520.6    5.284      58.243
2014   12       31     4  22    6.6281   520.6    5.284      58.235
2014   12       31     4  27    6.6289   520.6    5.284      58.227
2014   12       31     4  32    6.6297   520.6    5.284      58.220
2014   12       31     4  37    6.6306   520.7    5.284      58.213
2014   12       31     4  41    6.6315   520.7    5.285      58.207
2014   12       31     4  46    6.6324   520.7    5.285      58.202
2014   12       31     4  51    6.6333   520.8    5.285      58.197
2014   12       31     4  56    6.6343   520.8    5.285      58.193
2014   12       31     5   1    6.6352   520.8    5.286      58.189
2014   12       31     5   6    6.6362   520.8    5.286      58.186
2014   12       31     5  11    6.6372   520.9    5.286      58.182
2014   12       31     5  16    6.6382   520.9    5.286      58.179
2014   12       31     5  21    6.6392   520.9    5.286      58.176
2014   12       31     5  26    6.6402   521.0    5.286      58.173
2014   12       31     5  31    6.6412   521.0    5.286      58.169
2014   12       31     5  36    6.6422   521.0    5.286      58.166
2014   12       31     5  41    6.6432   521.1    5.286      58.163
2014   12       31     5  46    6.6443   521.1    5.286      58.160
2014   12       31     5  51    6.6453   521.1    5.286      58.157
2014   12       31     5  56    6.6464   521.2    5.286      58.154
2014   12       31     6   1    6.6475   521.2    5.286      58.151
2014   12       31     6   6    6.6486   521.2    5.286      58.148
2014   12       31     6  11    6.6497   521.3    5.286      58.145
2014   12       31     6  16    6.6508   521.3    5.286      58.142
2014   12       31     6  21    6.6519   521.3    5.286      58.139
2014   12       31     6  26    6.6531   521.3    5.286      58.136
2014   12       31     6  31    6.6542   521.4    5.286      58.133
2014   12       31     6  36    6.6554   521.4    5.286      58.130
2014   12       31     6  41    6.6566   521.4    5.286      58.128
2014   12       31     6  46    6.6578   521.5    5.286      58.125
2014   12       31     6  51    6.6590   521.5    5.286      58.123
2014   12       31     6  56    6.6602   521.5    5.286      58.120
2014   12       31     7   1    6.6615   521.6    5.287      58.117
2014   12       31     7   6    6.6628   521.6    5.287      58.115
2014   12       31     7  11    6.6640   521.6    5.287      58.112
2014   12       31     7  16    6.6654   521.7    5.288      58.110
2014   12       31     7  21    6.6667   521.7    5.288      58.108
2014   12       31     7  25    6.6680   521.7    5.289      58.105
2014   12       31     7  30    6.6693   521.8    5.289      58.103
2014   12       31     7  35    6.6706   521.8    5.290      58.102
2014   12       31     7  40    6.6719   521.8    5.291      58.101
2014   12       31     7  45    6.6732   521.9    5.292      58.101
2014   12       31     7  50    6.6745   521.9    5.293      58.101
2014   12       31     7  55    6.6758   522.0    5.293      58.102
2014   12       31     8   0    6.6772   522.0    5.294      58.104
2014   12       31     8   5    6.6785   522.0    5.295      58.106
2014   12       31     8  10    6.6798   522.1    5.297      58.109
2014   12       31     8  15    6.6812   522.1    5.298      58.112
2014   12       31     8  20    6.6825   522.1    5.299      58.114
2014   12       31     8  25    6.6839   522.2    5.300      58.117
2014   12       31     8  30    6.6853   522.2    5.302      58.120
2014   12       31     8  35    6.6868   522.3    5.303      58.125
2014   12       31     8  40    6.6882   522.3    5.305      58.132
2014   12       31     8  45    6.6897   522.3    5.306      58.139
2014   12       31     8  50    6.6912   522.4    5.308      58.148
2014   12       31     8  55    6.6927   522.4    5.309      58.157
2014   12       31     9   0    6.6942   522.5    5.311      58.168
2014   12       31     9   5    6.6957   522.5    5.312      58.178
2014   12       31     9  10    6.6971   522.6    5.313      58.188
2014   12       31     9  15    6.6986   522.7    5.313      58.197
2014   12       31     9  20    6.7000   522.7    5.314      58.205
2014   12       31     9  25    6.7014   522.8    5.314      58.211
2014   12       31     9  30    6.7028   522.8    5.315      58.217
2014   12       31     9  35    6.7042   522.9    5.315      58.222
2014   12       31     9  40    6.7055   522.9    5.315      58.227
2014   12       31     9  45    6.7069   523.0    5.315      58.230
2014   12       31     9  50    6.7082   523.0    5.315      58.232
2014   12       31     9  55    6.7096   523.1    5.314      58.233
2014   12       31    10   0    6.7109   523.1    5.314      58.234
2014   12       31    10   5    6.7123   523.2    5.313      58.234
2014   12       31    10   9    6.7136   523.3    5.313      58.234
2014   12       31    10  14    6.7150   523.3    5.312      58.233
2014   12       31    10  19    6.7163   523.4    5.311      58.231
2014   12       31    10  24    6.7177   523.4    5.311      58.229
2014   12       31    10  29    6.7191   523.5    5.310      58.226
2014   12       31    10  34    6.7204   523.5    5.309      58.223
2014   12       31    10  39    6.7218   523.6    5.308      58.220
2014   12       31    10  44    6.7233   523.6    5.307      58.216
2014   12       31    10  49    6.7247   523.7    5.306      58.212
2014   12       31    10  54    6.7261   523.7    5.305      58.209
2014   12       31    10  59    6.7276   523.8    5.305      58.205
2014   12       31    11   4    6.7291   523.8    5.304      58.200
2014   12       31    11   9    6.7305   523.9    5.303      58.196
2014   12       31    11  14    6.7321   523.9    5.302      58.192
2014   12       31    11  19    6.7336   524.0    5.301      58.187
2014   12       31    11  24    6.7351   524.0    5.300      58.183
2014   12       31    11  29    6.7367   524.1    5.299      58.179
2014   12       31    11  34    6.7383   524.1    5.299      58.175
2014   12       31    11  39    6.7399   524.2    5.298      58.171
2014   12       31    11  44    6.7415   524.2    5.297      58.167
2014   12       31    11  49    6.7432   524.3    5.296      58.163
2014   12       31    11  54    6.7448   524.3    5.296      58.160
2014   12       31    11  59    6.7466   524.4    5.295      58.157
2014   12       31    12   4    6.7483   524.4    5.295      58.154
2014   12       31    12   9    6.7500   524.5    5.294      58.152
2014   12       31    12  14    6.7519   524.6    5.294      58.151
2014   12       31    12  19    6.7537   524.6    5.294      58.151
2014   12       31    12  24    6.7555   524.7    5.293      58.151
2014   12       31    12  29    6.7574   524.7    5.293      58.153
2014   12       31    12  34    6.7593   524.8    5.293      58.155
2014   12       31    12  39    6.7612   524.9    5.293      58.157
2014   12       31    12  44    6.7631   524.9    5.292      58.160
2014   12       31    12  49    6.7650   525.0    5.292      58.163
2014   12       31    12  54    6.7670   525.1    5.292      58.167
2014   12       31    12  59    6.7689   525.1    5.292      58.171
2014   12       31    13   3    6.7709   525.2    5.292      58.175
2014   12       31    13   8    6.7729   525.3    5.292      58.179
2014   12       31    13  13    6.7748   525.3    5.292      58.184
2014   12       31    13  18    6.7768   525.4    5.292      58.190
2014   12       31    13  23    6.7788   525.5    5.292      58.196
2014   12       31    13  28    6.7807   525.5    5.292      58.202
2014   12       31    13  33    6.7827   525.6    5.292      58.208
2014   12       31    13  38    6.7847   525.7    5.292      58.215
2014   12       31    13  43    6.7867   525.7    5.292      58.223
2014   12       31    13  48    6.7888   525.8    5.292      58.230
2014   12       31    13  53    6.7908   525.9    5.292      58.239
2014   12       31    13  58    6.7928   526.0    5.293      58.248
2014   12       31    14   3    6.7949   526.0    5.293      58.257
2014   12       31    14   8    6.7969   526.1    5.293      58.266
2014   12       31    14  13    6.7989   526.2    5.294      58.276
2014   12       31    14  18    6.8010   526.3    5.294      58.286
2014   12       31    14  23    6.8031   526.3    5.295      58.297
2014   12       31    14  28    6.8051   526.4    5.295      58.309
2014   12       31    14  33    6.8072   526.5    5.296      58.321
2014   12       31    14  38    6.8093   526.6    5.296      58.334
2014   12       31    14  43    6.8113   526.6    5.297      58.347
2014   12       31    14  48    6.8134   526.7    5.297      58.360
2014   12       31    14  53    6.8155   526.8    5.298      58.373
2014   12       31    14  58    6.8176   526.9    5.298      58.386
2014   12       31    15   3    6.8197   526.9    5.299      58.399
2014   12       31    15   8    6.8218   527.0    5.300      58.412
2014   12       31    15  13    6.8239   527.1    5.300      58.425
2014   12       31    15  18    6.8260   527.2    5.301      58.438
2014   12       31    15  23    6.8282   527.2    5.302      58.451
2014   12       31    15  28    6.8303   527.3    5.303      58.465
2014   12       31    15  33    6.8326   527.4    5.304      58.479
2014   12       31    15  38    6.8348   527.5    5.305      58.493
2014   12       31    15  42    6.8371   527.5    5.306      58.508
2014   12       31    15  47    6.8394   527.6    5.308      58.524
2014   12       31    15  52    6.8418   527.7    5.309      58.540
2014   12       31    15  57    6.8442   527.7    5.311      58.556
2014   12       31    16   2    6.8466   527.8    5.313      58.575
2014   12       31    16   7    6.8492   527.9    5.315      58.594
2014   12       31    16  12    6.8517   528.0    5.317      58.616
2014   12       31    16  17    6.8543   528.0    5.320      58.640
2014   12       31    16  22    6.8570   528.1    5.322      58.665
2014   12       31    16  27    6.8597   528.2    5.325      58.692
2014   12       31    16  32    6.8624   528.3    5.327      58.719
2014   12       31    16  37    6.8651   528.4    5.330      58.747
2014   12       31    16  42    6.8679   528.5    5.333      58.777
2014   12       31    16  47    6.8707   528.6    5.336      58.808
2014   12       31    16  52    6.8735   528.7    5.339      58.841
2014   12       31    16  57    6.8763   528.8    5.341      58.874
2014   12       31    17   2    6.8792   528.9    5.344      58.909
2014   12       31    17   7    6.8819   529.0    5.346      58.945
2014   12       31    17  12    6.8847   529.1    5.349      58.981
2014   12       31    17  17    6.8874   529.3    5.351      59.017
2014   12       31    17  22    6.8901   529.4    5.352      59.050
2014   12       31    17  27    6.8928   529.5    5.354      59.082
2014   12       31    17  32    6.8954   529.6    5.355      59.112
2014   12       31    17  37    6.8980   529.8    5.356      59.141
2014   12       31    17  42    6.9005   529.9    5.356      59.168
2014   12       31    17  47    6.9030   530.0    5.357      59.194
2014   12       31    17  52    6.9055   530.1    5.357      59.218
2014   12       31    17  57    6.9080   530.3    5.357      59.241
2014   12       31    18   2    6.9104   530.4    5.357      59.263
2014   12       31    18   7    6.9129   530.5    5.357      59.283
2014   12       31    18  12    6.9153   530.6    5.356      59.303
2014   12       31    18  17    6.9177   530.8    5.356      59.321
2014   12       31    18  22    6.9202   530.9    5.355      59.339
2014   12       31    18  27    6.9226   531.0    5.354      59.355
2014   12       31    18  31    6.9250   531.1    5.353      59.371
2014   12       31    18  36    6.9275   531.2    5.352      59.387
2014   12       31    18  41    6.9299   531.3    5.351      59.401
2014   12       31    18  46    6.9324   531.5    5.350      59.415
2014   12       31    18  51    6.9349   531.6    5.349      59.429
2014   12       31    18  56    6.9374   531.7    5.348      59.442
2014   12       31    19   1    6.9398   531.8    5.346      59.454
2014   12       31    19   6    6.9424   531.9    5.345      59.467
2014   12       31    19  11    6.9449   532.0    5.344      59.478
2014   12       31    19  16    6.9474   532.2    5.342      59.490
2014   12       31    19  21    6.9500   532.3    5.341      59.502
2014   12       31    19  26    6.9526   532.4    5.340      59.513
2014   12       31    19  31    6.9552   532.5    5.338      59.524
2014   12       31    19  36    6.9578   532.6    5.337      59.535
2014   12       31    19  41    6.9604   532.7    5.336      59.547
2014   12       31    19  46    6.9630   532.9    5.334      59.558
2014   12       31    19  51    6.9657   533.0    5.333      59.569
2014   12       31    19  56    6.9684   533.1    5.332      59.581
2014   12       31    20   1    6.9711   533.2    5.330      59.593
2014   12       31    20   6    6.9739   533.3    5.329      59.605
2014   12       31    20  11    6.9766   533.4    5.328      59.617
2014   12       31    20  16    6.9794   533.5    5.327      59.630
2014   12       31    20  21    6.9822   533.7    5.326      59.644
2014   12       31    20  26    6.9850   533.8    5.325      59.658
2014   12       31    20  31    6.9878   533.9    5.324      59.672
2014   12       31    20  36    6.9906   534.0    5.323      59.687
2014   12       31    20  41    6.9935   534.1    5.323      59.703
2014   12       31    20  46    6.9963   534.2    5.322      59.719
2014   12       31    20  51    6.9992   534.4    5.321      59.736
2014   12       31    20  56    7.0020   534.5    5.321      59.754
2014   12       31    21   1    7.0049   534.6    5.321      59.773
2014   12       31    21   6    7.0078   534.7    5.320      59.794
2014   12       31    21  11    7.0107   534.9    5.320      59.815
2014   12       31    21  15    7.0136   535.0    5.320      59.837
2014   12       31    21  20    7.0165   535.1    5.320      59.861
2014   12       31    21  25    7.0194   535.2    5.320      59.885
2014   12       31    21  30    7.0223   535.4    5.320      59.911
2014   12       31    21  35    7.0252   535.5    5.321      59.937
2014   12       31    21  40    7.0281   535.6    5.321      59.964
2014   12       31    21  45    7.0309   535.7    5.321      59.992
2014   12       31    21  50    7.0338   535.9    5.321      60.020
2014   12       31    21  55    7.0367   536.0    5.322      60.049
2014   12       31    22   0    7.0396   536.1    5.322      60.078
2014   12       31    22   5    7.0425   536.3    5.323      60.108
2014   12       31    22  10    7.0454   536.4    5.323      60.138
2014   12       31    22  15    7.0483   536.5    5.324      60.168
2014   12       31    22  20    7.0512   536.6    5.325      60.198
2014   12       31    22  25    7.0542   536.8    5.326      60.230
2014   12       31    22  30    7.0571   536.9    5.327      60.262
2014   12       31    22  35    7.0601   537.0    5.327      60.295
2014   12       31    22  40    7.0631   537.2    5.328      60.328
2014   12       31    22  45    7.0661   537.3    5.329      60.362
2014   12       31    22  50    7.0692   537.4    5.330      60.396
2014   12       31    22  55    7.0722   537.5    5.331      60.430
2014   12       31    23   0    7.0753   537.7    5.332      60.464
2014   12       31    23   5    7.0783   537.8    5.333      60.498
2014   12       31    23  10    7.0814   537.9    5.334      60.533
2014   12       31    23  15    7.0844   538.1    5.335      60.568
2014   12       31    23  20    7.0875   538.2    5.336      60.605
2014   12       31    23  25    7.0905   538.4    5.337      60.642
2014   12       31    23  30    7.0936   538.5    5.338      60.679
2014   12       31    23  35    7.0966   538.7    5.338      60.717
2014   12       31    23  40    7.0996   538.8    5.339      60.756
2014   12       31    23  45    7.1026   538.9    5.340      60.794
2014   12       31    23  50    7.1055   539.1    5.340      60.831
2014   12       31    23  55    7.1085   539.2    5.341      60.868
2015    1        1    24   0    7.1114   539.4    5.341      60.904
2015    1        1     0   4    7.1144   539.5    5.342      60.941
2015    1        1     0   9    7.1173   539.6    5.342      60.977
2015    1        1     0  14    7.1203   539.8    5.343      61.014
2015    1        1     0  19    7.1232   539.9    5.343      61.050
2015    1        1     0  24    7.1261   540.1    5.344      61.087
2015    1        1     0  29    7.1291   540.2    5.344      61.124
2015    1        1     0  34    7.1321   540.4    5.345      61.162
2015    1        1     0  39    7.1351   540.5    5.346      61.200
2015    1        1     0  44    7.1382   540.7    5.347      61.239
2015    1        1     0  49    7.1413   540.8    5.348      61.278
2015    1        1     0  54    7.1444   541.0    5.350      61.318
2015    1        1     0  59    7.1476   541.1    5.351      61.360
2015    1        1     1   4    7.1508   541.3    5.353      61.404
2015    1        1     1   9    7.1540   541.4    5.354      61.450
2015    1        1     1  14    7.1573   541.6    5.356      61.498
2015    1        1     1  19    7.1606   541.8    5.357      61.546
2015    1        1     1  24    7.1638   542.0    5.359      61.596
2015    1        1     1  29    7.1671   542.2    5.360      61.648
2015    1        1     1  34    7.1703   542.4    5.361      61.698
2015    1        1     1  39    7.1734   542.5    5.361      61.746
2015    1        1     1  44    7.1765   542.7    5.362      61.793
2015    1        1     1  49    7.1796   542.9    5.362      61.838
2015    1        1     1  54    7.1827   543.1    5.362      61.882
2015    1        1     1  59    7.1857   543.3    5.362      61.925
2015    1        1     2   4    7.1887   543.5    5.362      61.966
2015    1        1     2   9    7.1916   543.6    5.361      62.007
2015    1        1     2  14    7.1946   543.8    5.361      62.046
2015    1        1     2  19    7.1975   544.0    5.360      62.084
2015    1        1     2  24    7.2004   544.2    5.359      62.121
2015    1        1     2  29    7.2033   544.4    5.358      62.157
2015    1        1     2  34    7.2062   544.6    5.357      62.192
2015    1        1     2  39    7.2091   544.7    5.356      62.227
2015    1        1     2  44    7.2120   544.9    5.355      62.261
2015    1        1     2  49    7.2149   545.1    5.354      62.295
2015    1        1     2  53    7.2178   545.3    5.352      62.328
2015    1        1     2  58    7.2207   545.5    5.351      62.361
2015    1        1     3   3    7.2235   545.6    5.350      62.394
2015    1        1     3   8    7.2264   545.8    5.348      62.426
2015    1        1     3  13    7.2293   546.0    5.347      62.458
2015    1        1     3  18    7.2322   546.2    5.345      62.490
2015    1        1     3  23    7.2351   546.4    5.344      62.522
2015    1        1     3  28    7.2380   546.5    5.342      62.554
2015    1        1     3  33    7.2409   546.7    5.341      62.586
2015    1        1     3  38    7.2438   546.9    5.339      62.618
2015    1        1     3  43    7.2467   547.1    5.338      62.650
2015    1        1     3  48    7.2496   547.3    5.336      62.682
2015    1        1     3  53    7.2525   547.4    5.335      62.715
2015    1        1     3  58    7.2554   547.6    5.334      62.747
2015    1        1     4   3    7.2583   547.8    5.332      62.780
2015    1        1     4   8    7.2612   548.0    5.331      62.813
2015    1        1     4  13    7.2640   548.2    5.330      62.847
2015    1        1     4  18    7.2669   548.4    5.328      62.881
2015    1        1     4  23    7.2697   548.6    5.327      62.915
2015    1        1     4  28    7.2725   548.7    5.326      62.950
2015    1        1     4  33    7.2753   548.9    5.325      62.985
2015    1        1     4  38    7.2781   549.1    5.324      63.021
2015    1        1     4  43    7.2809   549.3    5.323      63.057
2015    1        1     4  48    7.2836   549.5    5.322      63.095
2015    1        1     4  53    7.2863   549.7    5.321      63.133
2015    1        1     4  58    7.2890   549.9    5.320      63.171
2015    1        1     5   3    7.2917   550.1    5.319      63.211
2015    1        1     5   8    7.2944   550.3    5.318      63.251
2015    1        1     5  13    7.2971   550.5    5.317      63.292
2015    1        1     5  18    7.2998   550.6    5.316      63.333
2015    1        1     5  23    7.3025   550.8    5.316      63.375
2015    1        1     5  28    7.3052   551.0    5.315      63.417
2015    1        1     5  32    7.3078   551.2    5.315      63.461
2015    1        1     5  37    7.3105   551.4    5.314      63.505
2015    1        1     5  42    7.3133   551.6    5.314      63.551
2015    1        1     5  47    7.3160   551.8    5.313      63.597
2015    1        1     5  52    7.3187   552.0    5.313      63.644
2015    1        1     5  57    7.3214   552.2    5.313      63.692
2015    1        1     6   2    7.3242   552.4    5.312      63.740
2015    1        1     6   7    7.3269   552.6    5.312      63.788
2015    1        1     6  12    7.3296   552.8    5.311      63.836
2015    1        1     6  17    7.3323   553.0    5.310      63.883
2015    1        1     6  22    7.3350   553.2    5.309      63.930
2015    1        1     6  27    7.3377   553.4    5.309      63.976
2015    1        1     6  32    7.3403   553.6    5.308      64.022
2015    1        1     6  37    7.3429   553.8    5.307      64.066
2015    1        1     6  42    7.3456   554.0    5.305      64.110
2015    1        1     6  47    7.3482   554.2    5.304      64.153
2015    1        1     6  52    7.3507   554.4    5.303      64.196
2015    1        1     6  57    7.3533   554.6    5.302      64.239
2015    1        1     7   2    7.3559   554.8    5.301      64.281
2015    1        1     7   7    7.3585   555.0    5.299      64.324
2015    1        1     7  12    7.3611   555.2    5.298      64.367
2015    1        1     7  17    7.3637   555.4    5.297      64.409
2015    1        1     7  22    7.3663   555.6    5.296      64.452
2015    1        1     7  27    7.3689   555.8    5.295      64.496
2015    1        1     7  32    7.3715   556.0    5.293      64.540
2015    1        1     7  37    7.3741   556.2    5.292      64.585
2015    1        1     7  42    7.3767   556.4    5.292      64.630
2015    1        1     7  47    7.3794   556.5    5.291      64.676
2015    1        1     7  52    7.3820   556.7    5.290      64.724
2015    1        1     7  57    7.3847   556.9    5.289      64.772
2015    1        1     8   2    7.3874   557.1    5.289      64.822
2015    1        1     8   7    7.3902   557.3    5.289      64.871
2015    1        1     8  12    7.3929   557.5    5.289      64.923
2015    1        1     8  17    7.3957   557.7    5.289      64.977
2015    1        1     8  21    7.3985   557.9    5.289      65.034
2015    1        1     8  26    7.4013   558.1    5.289      65.092
2015    1        1     8  31    7.4041   558.3    5.289      65.152
2015    1        1     8  36    7.4068   558.5    5.290      65.214
2015    1        1     8  41    7.4096   558.7    5.290      65.277
2015    1        1     8  46    7.4123   558.9    5.290      65.341
2015    1        1     8  51    7.4149   559.2    5.290      65.404
2015    1        1     8  56    7.4176   559.4    5.290      65.467
2015    1        1     9   1    7.4202   559.6    5.290      65.528
2015    1        1     9   6    7.4227   559.8    5.290      65.590
2015    1        1     9  11    7.4253   560.0    5.290      65.653
2015    1        1     9  16    7.4278   560.3    5.290      65.715
2015    1        1     9  21    7.4303   560.5    5.289      65.778
2015    1        1     9  26    7.4327   560.7    5.289      65.840
2015    1        1     9  31    7.4351   561.0    5.288      65.902
2015    1        1     9  36    7.4375   561.2    5.287      65.964
2015    1        1     9  41    7.4398   561.4    5.286      66.025
2015    1        1     9  46    7.4421   561.7    5.285      66.084
2015    1        1     9  51    7.4443   561.9    5.283      66.143
2015    1        1     9  56    7.4465   562.1    5.282      66.200
2015    1        1    10   1    7.4486   562.4    5.280      66.255
2015    1        1    10   6    7.4508   562.6    5.278      66.310
2015    1        1    10  11    7.4528   562.9    5.276      66.364
2015    1        1    10  16    7.4549   563.1    5.274      66.416
2015    1        1    10  21    7.4569   563.3    5.272      66.468
2015    1        1    10  26    7.4589   563.6    5.269      66.519
2015    1        1    10  31    7.4609   563.8    5.267      66.568
2015    1        1    10  36    7.4628   564.1    5.264      66.618
2015    1        1    10  41    7.4648   564.3    5.262      66.666
2015    1        1    10  46    7.4667   564.5    5.259      66.713
2015    1        1    10  51    7.4686   564.8    5.256      66.760
2015    1        1    10  56    7.4704   565.0    5.253      66.807
2015    1        1    11   1    7.4723   565.3    5.251      66.853
2015    1        1    11   6    7.4742   565.5    5.248      66.898
2015    1        1    11  10    7.4760   565.8    5.245      66.943
2015    1        1    11  15    7.4778   566.0    5.242      66.987
2015    1        1    11  20    7.4796   566.3    5.239      67.032
2015    1        1    11  25    7.4814   566.5    5.236      67.075
2015    1        1    11  30    7.4832   566.7    5.233      67.119
2015    1        1    11  35    7.4850   567.0    5.229      67.163
2015    1        1    11  40    7.4867   567.2    5.226      67.206
2015    1        1    11  45    7.4885   567.5    5.223      67.249
2015    1        1    11  50    7.4902   567.7    5.220      67.292
2015    1        1    11  55    7.4919   568.0    5.217      67.335
2015    1        1    12   0    7.4936   568.2    5.214      67.379
2015    1        1    12   5    7.4952   568.5    5.212      67.424
2015    1        1    12  10    7.4968   568.7    5.209      67.469
2015    1        1    12  15    7.4984   569.0    5.205      67.516
2015    1        1    12  20    7.4999   569.3    5.202      67.564
2015    1        1    12  25    7.5014   569.5    5.199      67.612
2015    1        1    12  30    7.5028   569.8    5.196      67.660
2015    1        1    12  35    7.5042   570.1    5.193      67.709
2015    1        1    12  40    7.5055   570.4    5.190      67.757
2015    1        1    12  45    7.5068   570.6    5.186      67.804
2015    1        1    12  50    7.5080   570.9    5.183      67.850
2015    1        1    12  55    7.5092   571.2    5.180      67.896
2015    1        1    13   0    7.5103   571.4    5.176      67.942
2015    1        1    13   5    7.5114   571.7    5.173      67.987
2015    1        1    13  10    7.5125   572.0    5.170      68.031
2015    1        1    13  15    7.5135   572.2    5.166      68.075
2015    1        1    13  20    7.5145   572.5    5.163      68.119
2015    1        1    13  25    7.5155   572.8    5.159      68.162
2015    1        1    13  30    7.5164   573.0    5.156      68.205
2015    1        1    13  35    7.5174   573.3    5.153      68.248
2015    1        1    13  40    7.5183   573.6    5.149      68.291
2015    1        1    13  45    7.5191   573.9    5.146      68.334
2015    1        1    13  50    7.5200   574.1    5.143      68.377
2015    1        1    13  54    7.5209   574.4    5.139      68.420
2015    1        1    13  59    7.5217   574.7    5.136      68.463
2015    1        1    14   4    7.5225   574.9    5.132      68.505
2015    1        1    14   9    7.5233   575.2    5.129      68.547
2015    1        1    14  14    7.5241   575.4    5.125      68.588
2015    1        1    14  19    7.5248   575.7    5.122      68.629
2015    1        1    14  24    7.5255   576.0    5.118      68.670
2015    1        1    14  29    7.5262   576.2    5.115      68.710
2015    1        1    14  34    7.5269   576.5    5.111      68.751
2015    1        1    14  39    7.5275   576.8    5.108      68.791
2015    1        1    14  44    7.5281   577.0    5.105      68.831
2015    1        1    14  49    7.5287   577.3    5.101      68.872
2015    1        1    14  54    7.5293   577.5    5.098      68.912
2015    1        1    14  59    7.5298   577.8    5.095      68.953
2015    1        1    15   4    7.5303   578.1    5.092      68.994
2015    1        1    15   9    7.5308   578.3    5.088      69.036
2015    1        1    15  14    7.5313   578.6    5.085      69.078
2015    1        1    15  19    7.5317   578.9    5.082      69.121
2015    1        1    15  24    7.5322   579.1    5.079      69.165
2015    1        1    15  29    7.5326   579.4    5.076      69.209
2015    1        1    15  34    7.5329   579.6    5.073      69.253
2015    1        1    15  39    7.5332   579.9    5.070      69.298
2015    1        1    15  44    7.5335   580.2    5.067      69.343
2015    1        1    15  49    7.5338   580.4    5.065      69.388
2015    1        1    15  54    7.5340   580.7    5.062      69.433
2015    1        1    15  59    7.5342   580.9    5.059      69.480
2015    1        1    16   4    7.5344   581.2    5.056      69.527
2015    1        1    16   9    7.5345   581.5    5.053      69.575
2015    1        1    16  14    7.5346   581.7    5.050      69.624
2015    1        1    16  19    7.5347   582.0    5.047      69.674
2015    1        1    16  24    7.5347   582.2    5.044      69.724
2015    1        1    16  29    7.5347   582.5    5.042      69.775
2015    1        1    16  34    7.5347   582.7    5.039      69.826
2015    1        1    16  39    7.5346   583.0    5.036      69.877
2015    1        1    16  43    7.5346   583.2    5.033      69.928
2015    1        1    16  48    7.5345   583.4    5.030      69.979
2015    1        1    16  53    7.5344   583.7    5.027      70.031
2015    1        1    16  58    7.5343   583.9    5.024      70.084
2015    1        1    17   3    7.5342   584.2    5.022      70.137
2015    1        1    17   8    7.5340   584.4    5.019      70.191
2015    1        1    17  13    7.5338   584.7    5.016      70.245
2015    1        1    17  18    7.5335   584.9    5.012      70.299
2015    1        1    17  23    7.5332   585.2    5.009      70.354
2015    1        1    17  28    7.5329   585.5    5.006      70.407
2015    1        1    17  33    7.5325   585.7    5.003      70.460
2015    1        1    17  38    7.5320   586.0    4.999      70.511
2015    1        1    17  43    7.5315   586.2    4.995      70.561
2015    1        1    17  48    7.5309   586.5    4.992      70.611
2015    1        1    17  53    7.5303   586.7    4.988      70.659
2015    1        1    17  58    7.5296   587.0    4.984      70.707
2015    1        1    18   3    7.5289   587.2    4.980      70.754
2015    1        1    18   8    7.5281   587.5    4.976      70.799
2015    1        1    18  13    7.5272   587.8    4.972      70.844
2015    1        1    18  18    7.5264   588.0    4.968      70.888
2015    1        1    18  23    7.5254   588.3    4.963      70.931
2015    1        1    18  28    7.5245   588.5    4.959      70.973
2015    1        1    18  33    7.5234   588.8    4.955      71.014
2015    1        1    18  38    7.5224   589.1    4.950      71.055
2015    1        1    18  43    7.5212   589.3    4.945      71.094
2015    1        1    18  48    7.5201   589.6    4.941      71.133
2015    1        1    18  53    7.5188   589.8    4.936      71.171
2015    1        1    18  58    7.5176   590.1    4.931      71.208
2015    1        1    19   3    7.5163   590.4    4.926      71.245
2015    1        1    19   8    7.5149   590.6    4.922      71.280
2015    1        1    19  13    7.5135   590.9    4.917      71.314
2015    1        1    19  18    7.5121   591.2    4.912      71.348
2015    1        1    19  23    7.5105   591.4    4.907      71.381
2015    1        1    19  27    7.5090   591.7    4.902      71.413
2015    1        1    19  32    7.5074   591.9    4.897      71.445
2015    1        1    19  37    7.5057   592.2    4.892      71.475
2015    1        1    19  42    7.5040   592.5    4.886      71.505
2015    1        1    19  47    7.5023   592.7    4.881      71.534
2015    1        1    19  52    7.5005   593.0    4.876      71.563
2015    1        1    19  57    7.4986   593.3    4.871      71.591
2015    1        1    20   2    7.4968   593.5    4.866      71.618
2015    1        1    20   7    7.4948   593.8    4.860      71.644
2015    1        1    20  12    7.4929   594.1    4.855      71.670
2015    1        1    20  17    7.4909   594.3    4.850      71.696
2015    1        1    20  22    7.4888   594.6    4.845      71.721
2015    1        1    20  27    7.4867   594.8    4.839      71.745
2015    1        1    20  32    7.4846   595.1    4.834      71.769
2015    1        1    20  37    7.4824   595.4    4.829      71.792
2015    1        1    20  42    7.4802   595.6    4.824      71.814
2015    1        1    20  47    7.4779   595.9    4.818      71.837
2015    1        1    20  52    7.4756   596.2    4.813      71.859
2015    1        1    20  57    7.4733   596.4    4.808      71.880
2015    1        1    21   2    7.4709   596.7    4.802      71.900
2015    1        1    21   7    7.4685   596.9    4.797      71.921
2015    1        1    21  12    7.4661   597.2    4.792      71.941
2015    1        1    21  17    7.4636   597.5    4.787      71.960
2015    1        1    21  22    7.4611   597.7    4.782      71.980
2015    1        1    21  27    7.4586   598.0    4.776      71.998
2015    1        1    21  32    7.4561   598.2    4.771      72.017
2015    1        1    21  37    7.4535   598.5    4.766      72.035
2015    1        1    21  42    7.4509   598.7    4.761      72.053
2015    1        1    21  47    7.4483   599.0    4.756      72.070
2015    1        1    21  52    7.4457   599.2    4.751      72.088
2015    1        1    21  57    7.4430   599.5    4.746      72.104
2015    1        1    22   2    7.4403   599.7    4.741      72.121
2015    1        1    22   7    7.4376   600.0    4.736      72.138
2015    1        1    22  11    7.4349   600.2    4.731      72.154
2015    1        1    22  16    7.4322   600.5    4.726      72.170
2015    1        1    22  21    7.4295   600.7    4.721      72.186
2015    1        1    22  26    7.4267   601.0    4.717      72.203
2015    1        1    22  31    7.4239   601.2    4.712      72.219
2015    1        1    22  36    7.4211   601.5    4.707      72.236
2015    1        1    22  41    7.4184   601.7    4.703      72.253
2015    1        1    22  46    7.4156   601.9    4.698      72.270
2015    1        1    22  51    7.4128   602.2    4.694      72.288
2015    1        1    22  56    7.4100   602.4    4.690      72.306
2015    1        1    23   1    7.4072   602.7    4.686      72.325
2015    1        1    23   6    7.4044   602.9    4.682      72.345
2015    1        1    23  11    7.4016   603.1    4.678      72.365
2015    1        1    23  16    7.3988   603.4    4.674      72.385
2015    1        1    23  21    7.3960   603.6    4.670      72.406
2015    1        1    23  26    7.3932   603.8    4.667      72.430
2015    1        1    23  31    7.3903   604.1    4.663      72.454
2015    1        1    23  36    7.3875   604.3    4.659      72.481
2015    1        1    23  41    7.3846   604.5    4.656      72.508
2015    1        1    23  46    7.3818   604.8    4.652      72.537
2015    1        1    23  51    7.3789   605.0    4.648      72.568
2015    1        1    23  56    7.3759   605.2    4.644      72.599
2015    1        2     0   1    7.3729   605.5    4.640      72.629
2015    1        2     0   6    7.3699   605.7    4.636      72.659
2015    1        2     0  11    7.3669   605.9    4.632      72.689
2015    1        2     0  16    7.3638   606.2    4.627      72.718
2015    1        2     0  21    7.3607   606.4    4.623      72.747
2015    1        2     0  26    7.3575   606.6    4.618      72.775
2015    1        2     0  31    7.3543   606.8    4.614      72.802
2015    1        2     0  36    7.3511   607.1    4.609      72.829
2015    1        2     0  41    7.3479   607.3    4.605      72.854
2015    1        2     0  46    7.3446   607.5    4.600      72.879
2015    1        2     0  51    7.3413   607.7    4.595      72.903
2015    1        2     0  56    7.3380   608.0    4.590      72.925
2015    1        2     1   0    7.3346   608.2    4.585      72.947
2015    1        2     1   5    7.3312   608.4    4.581      72.968
2015    1        2     1  10    7.3278   608.6    4.576      72.987
2015    1        2     1  15    7.3244   608.8    4.571      73.006
2015    1        2     1  20    7.3209   609.0    4.566      73.024
2015    1        2     1  25    7.3174   609.2    4.561      73.040
2015    1        2     1  30    7.3138   609.4    4.555      73.055
2015    1        2     1  35    7.3103   609.7    4.550      73.070
2015    1        2     1  40    7.3067   609.9    4.545      73.083
2015    1        2     1  45    7.3031   610.1    4.540      73.095
2015    1        2     1  50    7.2994   610.3    4.535      73.106
2015    1        2     1  55    7.2957   610.5    4.529      73.115
2015    1        2     2   0    7.2920   610.7    4.524      73.124
2015    1        2     2   5    7.2883   610.9    4.519      73.131
2015    1        2     2  10    7.2845   611.1    4.513      73.138
2015    1        2     2  15    7.2807   611.3    4.508      73.143
2015    1        2     2  20    7.2768   611.5    4.502      73.147
2015    1        2     2  25    7.2730   611.7    4.497      73.151
2015    1        2     2  30    7.2691   611.8    4.491      73.153
2015    1        2     2  35    7.2652   612.0    4.486      73.154
2015    1        2     2  40    7.2612   612.2    4.480      73.154
2015    1        2     2  45    7.2572   612.4    4.475      73.153
2015    1        2     2  50    7.2532   612.6    4.469      73.151
2015    1        2     2  55    7.2492   612.8    4.463      73.148
2015    1        2     3   0    7.2451   613.0    4.458      73.144
2015    1        2     3   5    7.2410   613.1    4.452      73.140
2015    1        2     3  10    7.2368   613.3    4.446      73.134
2015    1        2     3  15    7.2327   613.5    4.441      73.127
2015    1        2     3  20    7.2285   613.7    4.435      73.120
2015    1        2     3  25    7.2243   613.8    4.429      73.112
2015    1        2     3  30    7.2201   614.0    4.424      73.103
2015    1        2     3  35    7.2159   614.2    4.418      73.093
2015    1        2     3  40    7.2116   614.3    4.412      73.083
2015    1        2     3  44    7.2073   614.5    4.407      73.072
2015    1        2     3  49    7.2031   614.7    4.401      73.060
2015    1        2     3  54    7.1988   614.8    4.396      73.048
2015    1        2     3  59    7.1944   615.0    4.390      73.035
2015    1        2     4   4    7.1901   615.2    4.385      73.022
2015    1        2     4   9    7.1857   615.3    4.379      73.008
2015    1        2     4  14    7.1814   615.5    4.374      72.995
2015    1        2     4  19    7.1770   615.6    4.368      72.981
2015    1        2     4  24    7.1727   615.8    4.363      72.967
2015    1        2     4  29    7.1683   615.9    4.358      72.953
2015    1        2     4  34    7.1639   616.1    4.352      72.939
2015    1        2     4  39    7.1595   616.2    4.347      72.925
2015    1        2     4  44    7.1551   616.4    4.342      72.912
2015    1        2     4  49    7.1507   616.5    4.337      72.898
2015    1        2     4  54    7.1464   616.6    4.332      72.885
2015    1        2     4  59    7.1420   616.8    4.328      72.873
2015    1        2     5   4    7.1376   616.9    4.323      72.861
2015    1        2     5   9    7.1333   617.1    4.318      72.849
2015    1        2     5  14    7.1289   617.2    4.314      72.838
2015    1        2     5  19    7.1246   617.3    4.309      72.828
2015    1        2     5  24    7.1203   617.5    4.305      72.819
2015    1        2     5  29    7.1160   617.6    4.301      72.810
2015    1        2     5  34    7.1117   617.8    4.297      72.801
2015    1        2     5  39    7.1075   617.9    4.293      72.794
2015    1        2     5  44    7.1032   618.0    4.289      72.788
2015    1        2     5  49    7.0990   618.2    4.285      72.782
2015    1        2     5  54    7.0948   618.3    4.281      72.778
2015    1        2     5  59    7.0906   618.5    4.277      72.774
2015    1        2     6   4    7.0864   618.6    4.273      72.770
2015    1        2     6   9    7.0822   618.7    4.269      72.766
2015    1        2     6  14    7.0780   618.9    4.265      72.762
2015    1        2     6  19    7.0739   619.0    4.262      72.758
2015    1        2     6  24    7.0697   619.2    4.258      72.753
2015    1        2     6  29    7.0655   619.3    4.254      72.748
2015    1        2     6  33    7.0614   619.4    4.250      72.743
2015    1        2     6  38    7.0572   619.6    4.246      72.737
2015    1        2     6  43    7.0530   619.7    4.242      72.732
2015    1        2     6  48    7.0488   619.8    4.239      72.726
2015    1        2     6  53    7.0446   620.0    4.235      72.720
2015    1        2     6  58    7.0405   620.1    4.231      72.714
2015    1        2     7   3    7.0363   620.2    4.227      72.708
2015    1        2     7   8    7.0321   620.4    4.223      72.702
2015    1        2     7  13    7.0279   620.5    4.219      72.696
2015    1        2     7  18    7.0237   620.6    4.216      72.690
2015    1        2     7  23    7.0195   620.7    4.212      72.684
2015    1        2     7  28    7.0153   620.9    4.208      72.678
2015    1        2     7  33    7.0111   621.0    4.204      72.672
2015    1        2     7  38    7.0069   621.1    4.200      72.666
2015    1        2     7  43    7.0027   621.2    4.196      72.659
2015    1        2     7  48    6.9985   621.3    4.192      72.653
2015    1        2     7  53    6.9943   621.4    4.188      72.646
2015    1        2     7  58    6.9901   621.6    4.184      72.639
2015    1        2     8   3    6.9859   621.7    4.180      72.631
2015    1        2     8   8    6.9818   621.8    4.176      72.623
2015    1        2     8  13    6.9776   621.9    4.171      72.615
2015    1        2     8  18    6.9735   622.0    4.167      72.605
2015    1        2     8  23    6.9693   622.1    4.163      72.595
2015    1        2     8  28    6.9652   622.2    4.159      72.584
2015    1        2     8  33    6.9611   622.3    4.155      72.572
2015    1        2     8  38    6.9570   622.4    4.151      72.559
2015    1        2     8  43    6.9529   622.5    4.147      72.545
2015    1        2     8  48    6.9488   622.6    4.142      72.531
2015    1        2     8  53    6.9447   622.7    4.138      72.515
2015    1        2     8  58    6.9406   622.8    4.134      72.499
2015    1        2     9   3    6.9365   622.9    4.130      72.482
2015    1        2     9   8    6.9325   623.0    4.126      72.464
2015    1        2     9  13    6.9284   623.1    4.122      72.445
2015    1        2     9  17    6.9243   623.2    4.117      72.426
2015    1        2     9  22    6.9202   623.3    4.113      72.406
2015    1        2     9  27    6.9162   623.4    4.109      72.386
2015    1        2     9  32    6.9121   623.5    4.105      72.364
2015    1        2     9  37    6.9080   623.6    4.101      72.343
2015    1        2     9  42    6.9039   623.7    4.097      72.320
2015    1        2     9  47    6.8998   623.8    4.093      72.298
2015    1        2     9  52    6.8957   623.9    4.089      72.275
2015    1        2     9  57    6.8916   623.9    4.085      72.251
2015    1        2    10   2    6.8875   624.0    4.081      72.227
2015    1        2    10   7    6.8834   624.1    4.077      72.203
2015    1        2    10  12    6.8793   624.2    4.073      72.178
2015    1        2    10  17    6.8752   624.3    4.069      72.154
2015    1        2    10  22    6.8711   624.4    4.065      72.129
2015    1        2    10  27    6.8669   624.5    4.061      72.103
2015    1        2    10  32    6.8628   624.5    4.058      72.078
2015    1        2    10  37    6.8586   624.6    4.054      72.052
2015    1        2    10  42    6.8545   624.7    4.050      72.025
2015    1        2    10  47    6.8503   624.8    4.046      71.999
2015    1        2    10  52    6.8462   624.8    4.042      71.972
2015    1        2    10  57    6.8420   624.9    4.038      71.946
2015    1        2    11   2    6.8379   625.0    4.034      71.919
2015    1        2    11   7    6.8337   625.1    4.031      71.892
2015    1        2    11  12    6.8295   625.1    4.027      71.865
2015    1        2    11  17    6.8254   625.2    4.023      71.837
2015    1        2    11  22    6.8212   625.3    4.019      71.810
2015    1        2    11  27    6.8171   625.3    4.015      71.782
2015    1        2    11  32    6.8129   625.4    4.011      71.755
2015    1        2    11  37    6.8088   625.4    4.007      71.727
2015    1        2    11  42    6.8046   625.5    4.003      71.699
2015    1        2    11  47    6.8005   625.5    3.999      71.671
2015    1        2    11  52    6.7964   625.6    3.996      71.643
2015    1        2    11  57    6.7923   625.6    3.992      71.614
2015    1        2    12   1    6.7882   625.7    3.988      71.586
2015    1        2    12   6    6.7841   625.7    3.984      71.558
2015    1        2    12  11    6.7801   625.8    3.980      71.530
2015    1        2    12  16    6.7760   625.8    3.977      71.502
2015    1        2    12  21    6.7720   625.9    3.973      71.474
2015    1        2    12  26    6.7680   625.9    3.969      71.447
2015    1        2    12  31    6.7641   625.9    3.966      71.420
2015    1        2    12  36    6.7601   626.0    3.963      71.393
2015    1        2    12  41    6.7562   626.0    3.959      71.368
2015    1        2    12  46    6.7523   626.0    3.956      71.342
2015    1        2    12  51    6.7484   626.1    3.953      71.317
2015    1        2    12  56    6.7446   626.1    3.950      71.294
2015    1        2    13   1    6.7408   626.1    3.946      71.271
2015    1        2    13   6    6.7371   626.1    3.944      71.248
2015    1        2    13  11    6.7334   626.2    3.941      71.227
2015    1        2    13  16    6.7297   626.2    3.938      71.206
2015    1        2    13  21    6.7261   626.2    3.935      71.186
2015    1        2    13  26    6.7225   626.3    3.933      71.168
2015    1        2    13  31    6.7189   626.3    3.930      71.151
2015    1        2    13  36    6.7154   626.3    3.927      71.134
2015    1        2    13  41    6.7119   626.4    3.925      71.118
2015    1        2    13  46    6.7084   626.4    3.922      71.101
2015    1        2    13  51    6.7050   626.4    3.919      71.084
2015    1        2    13  56    6.7015   626.5    3.916      71.066
2015    1        2    14   1    6.6981   626.5    3.913      71.047
2015    1        2    14   6    6.6947   626.5    3.910      71.027
2015    1        2    14  11    6.6913   626.6    3.907      71.005
2015    1        2    14  16    6.6879   626.6    3.904      70.983
2015    1        2    14  21    6.6845   626.6    3.901      70.959
2015    1        2    14  26    6.6810   626.7    3.898      70.934
2015    1        2    14  31    6.6776   626.7    3.895      70.909
2015    1        2    14  36    6.6742   626.7    3.891      70.882
2015    1        2    14  41    6.6708   626.7    3.888      70.855
2015    1        2    14  46    6.6673   626.8    3.885      70.827
2015    1        2    14  50    6.6639   626.8    3.881      70.798
2015    1        2    14  55    6.6605   626.8    3.878      70.769
2015    1        2    15   0    6.6570   626.8    3.875      70.739
2015    1        2    15   5    6.6536   626.9    3.871      70.709
2015    1        2    15  10    6.6501   626.9    3.868      70.678
2015    1        2    15  15    6.6467   626.9    3.865      70.647
2015    1        2    15  20    6.6432   626.9    3.861      70.615
2015    1        2    15  25    6.6398   626.9    3.858      70.584
2015    1        2    15  30    6.6363   627.0    3.855      70.551
2015    1        2    15  35    6.6329   627.0    3.852      70.519
2015    1        2    15  40    6.6294   627.0    3.848      70.486
2015    1        2    15  45    6.6259   627.0    3.845      70.453
2015    1        2    15  50    6.6225   627.0    3.842      70.420
2015    1        2    15  55    6.6191   627.0    3.839      70.387
2015    1        2    16   0    6.6156   627.1    3.836      70.354
2015    1        2    16   5    6.6122   627.1    3.833      70.320
2015    1        2    16  10    6.6087   627.1    3.830      70.287
2015    1        2    16  15    6.6053   627.1    3.827      70.254
2015    1        2    16  20    6.6019   627.1    3.824      70.221
2015    1        2    16  25    6.5985   627.1    3.821      70.188
2015    1        2    16  30    6.5951   627.1    3.818      70.154
2015    1        2    16  35    6.5916   627.1    3.815      70.121
2015    1        2    16  40    6.5882   627.2    3.812      70.088
2015    1        2    16  45    6.5848   627.2    3.809      70.056
2015    1        2    16  50    6.5814   627.2    3.807      70.023
2015    1        2    16  55    6.5780   627.2    3.804      69.991
2015    1        2    17   0    6.5746   627.2    3.802      69.959
2015    1        2    17   5    6.5712   627.2    3.799      69.927
2015    1        2    17  10    6.5677   627.2    3.797      69.895
2015    1        2    17  15    6.5643   627.2    3.794      69.864
2015    1        2    17  20    6.5609   627.2    3.792      69.833
2015    1        2    17  25    6.5575   627.2    3.790      69.802
2015    1        2    17  30    6.5540   627.2    3.787      69.772
2015    1        2    17  34    6.5506   627.2    3.785      69.742
2015    1        2    17  39    6.5472   627.2    3.783      69.712
2015    1        2    17  44    6.5438   627.2    3.781      69.682
2015    1        2    17  49    6.5403   627.2    3.779      69.653
2015    1        2    17  54    6.5369   627.2    3.777      69.625
2015    1        2    17  59    6.5335   627.2    3.775      69.597
2015    1        2    18   4    6.5300   627.2    3.773      69.569
2015    1        2    18   9    6.5266   627.2    3.771      69.541
2015    1        2    18  14    6.5232   627.2    3.769      69.514
2015    1        2    18  19    6.5198   627.2    3.768      69.487
2015    1        2    18  24    6.5163   627.2    3.766      69.461
2015    1        2    18  29    6.5129   627.2    3.764      69.435
2015    1        2    18  34    6.5095   627.2    3.762      69.410
2015    1        2    18  39    6.5061   627.2    3.760      69.384
2015    1        2    18  44    6.5027   627.2    3.759      69.359
2015    1        2    18  49    6.4993   627.2    3.757      69.335
2015    1        2    18  54    6.4959   627.2    3.755      69.310
2015    1        2    18  59    6.4925   627.2    3.753      69.286
2015    1        2    19   4    6.4891   627.2    3.752      69.262
2015    1        2    19   9    6.4857   627.2    3.750      69.239
2015    1        2    19  14    6.4823   627.2    3.748      69.216
2015    1        2    19  19    6.4789   627.2    3.746      69.193
2015    1        2    19  24    6.4756   627.1    3.745      69.170
2015    1        2    19  29    6.4722   627.1    3.743      69.148
2015    1        2    19  34    6.4689   627.1    3.741      69.125
2015    1        2    19  39    6.4656   627.1    3.739      69.103
2015    1        2    19  44    6.4622   627.1    3.737      69.081
2015    1        2    19  49    6.4589   627.1    3.735      69.058
2015    1        2    19  54    6.4557   627.0    3.733      69.036
2015    1        2    19  59    6.4524   627.0    3.731      69.013
2015    1        2    20   4    6.4492   627.0    3.729      68.989
2015    1        2    20   9    6.4459   627.0    3.727      68.966
2015    1        2    20  14    6.4427   627.0    3.725      68.942
2015    1        2    20  18    6.4395   626.9    3.723      68.917
2015    1        2    20  23    6.4363   626.9    3.721      68.892
2015    1        2    20  28    6.4332   626.9    3.719      68.866
2015    1        2    20  33    6.4300   626.9    3.717      68.839
2015    1        2    20  38    6.4269   626.8    3.715      68.812
2015    1        2    20  43    6.4238   626.8    3.712      68.784
2015    1        2    20  48    6.4207   626.8    3.710      68.756
2015    1        2    20  53    6.4176   626.8    3.708      68.727
2015    1        2    20  58    6.4146   626.7    3.706      68.697
2015    1        2    21   3    6.4115   626.7    3.703      68.666
2015    1        2    21   8    6.4085   626.7    3.701      68.635
2015    1        2    21  13    6.4055   626.6    3.699      68.603
2015    1        2    21  18    6.4025   626.6    3.697      68.571
2015    1        2    21  23    6.3995   626.6    3.694      68.538
2015    1        2    21  28    6.3966   626.5    3.692      68.505
2015    1        2    21  33    6.3936   626.5    3.689      68.471
2015    1        2    21  38    6.3906   626.5    3.687      68.436
2015    1        2    21  43    6.3877   626.4    3.685      68.401
2015    1        2    21  48    6.3848   626.4    3.682      68.366
2015    1        2    21  53    6.3819   626.4    3.680      68.329
2015    1        2    21  58    6.3790   626.3    3.677      68.293
2015    1        2    22   3    6.3761   626.3    3.675      68.256
2015    1        2    22   8    6.3732   626.2    3.673      68.218
2015    1        2    22  13    6.3703   626.2    3.670      68.180
2015    1        2    22  18    6.3675   626.2    3.668      68.142
2015    1        2    22  23    6.3646   626.1    3.665      68.103
2015    1        2    22  28    6.3617   626.1    3.663      68.064
2015    1        2    22  33    6.3589   626.0    3.660      68.025
2015    1        2    22  38    6.3560   626.0    3.658      67.985
2015    1        2    22  43    6.3532   626.0    3.655      67.945
2015    1        2    22  48    6.3504   625.9    3.653      67.904
2015    1        2    22  53    6.3475   625.9    3.650      67.864
2015    1        2    22  58    6.3447   625.8    3.648      67.823
2015    1        2    23   3    6.3418   625.8    3.646      67.782
2015    1        2    23   7    6.3390   625.7    3.643      67.741
2015    1        2    23  12    6.3362   625.7    3.641      67.700
2015    1        2    23  17    6.3334   625.6    3.639      67.659
2015    1        2    23  22    6.3305   625.6    3.636      67.618
2015    1        2    23  27    6.3277   625.5    3.634      67.576
2015    1        2    23  32    6.3249   625.5    3.632      67.535
2015    1        2    23  37    6.3221   625.4    3.630      67.494
2015    1        2    23  42    6.3193   625.4    3.627      67.454
2015    1        2    23  47    6.3165   625.3    3.625      67.413
2015    1        2    23  52    6.3137   625.3    3.623      67.373
2015    1        2    23  57    6.3109   625.2    3.621      67.333
2015    1        3     0   2    6.3081   625.2    3.619      67.293
