year    month   day   hour  minute  B_enl V_enl   n_enl       T_enl
[year] [month] [day] [hour][minute] [nT]  [km/s]  [cm-3]      [kK]
2015    5        3     0   1    4.5001   515.7    4.308      48.118
2015    5        3     0   7    4.4983   515.6    4.307      48.098
2015    5        3     0  12    4.4965   515.6    4.306      48.079
2015    5        3     0  18    4.4947   515.5    4.305      48.059
2015    5        3     0  24    4.4930   515.5    4.304      48.040
2015    5        3     0  29    4.4912   515.4    4.304      48.021
2015    5        3     0  35    4.4894   515.4    4.303      48.003
2015    5        3     0  41    4.4877   515.3    4.302      47.984
2015    5        3     0  46    4.4860   515.3    4.302      47.966
2015    5        3     0  52    4.4842   515.2    4.301      47.948
2015    5        3     0  58    4.4825   515.1    4.301      47.930
2015    5        3     1   4    4.4807   515.1    4.301      47.912
2015    5        3     1   9    4.4790   515.0    4.300      47.895
2015    5        3     1  15    4.4772   515.0    4.300      47.877
2015    5        3     1  21    4.4754   514.9    4.300      47.860
2015    5        3     1  26    4.4736   514.9    4.300      47.843
2015    5        3     1  32    4.4718   514.8    4.299      47.826
2015    5        3     1  38    4.4699   514.7    4.299      47.809
2015    5        3     1  43    4.4681   514.7    4.299      47.792
2015    5        3     1  49    4.4662   514.6    4.299      47.775
2015    5        3     1  55    4.4644   514.6    4.298      47.758
2015    5        3     2   1    4.4625   514.5    4.298      47.741
2015    5        3     2   6    4.4606   514.4    4.298      47.724
2015    5        3     2  12    4.4587   514.4    4.297      47.706
2015    5        3     2  18    4.4569   514.3    4.297      47.688
2015    5        3     2  23    4.4550   514.2    4.296      47.670
2015    5        3     2  29    4.4531   514.2    4.296      47.652
2015    5        3     2  35    4.4512   514.1    4.295      47.633
2015    5        3     2  41    4.4493   514.0    4.295      47.615
2015    5        3     2  46    4.4474   514.0    4.294      47.596
2015    5        3     2  52    4.4455   513.9    4.294      47.578
2015    5        3     2  58    4.4436   513.8    4.293      47.559
2015    5        3     3   3    4.4417   513.8    4.293      47.539
2015    5        3     3   9    4.4398   513.7    4.292      47.520
2015    5        3     3  15    4.4380   513.6    4.291      47.501
2015    5        3     3  20    4.4361   513.6    4.290      47.482
2015    5        3     3  26    4.4343   513.5    4.290      47.462
2015    5        3     3  32    4.4324   513.4    4.289      47.443
2015    5        3     3  38    4.4306   513.4    4.288      47.423
2015    5        3     3  43    4.4287   513.3    4.287      47.403
2015    5        3     3  49    4.4269   513.2    4.286      47.383
2015    5        3     3  55    4.4251   513.1    4.285      47.363
2015    5        3     4   0    4.4233   513.1    4.284      47.343
2015    5        3     4   6    4.4215   513.0    4.283      47.323
2015    5        3     4  12    4.4197   512.9    4.282      47.302
2015    5        3     4  17    4.4179   512.9    4.281      47.282
2015    5        3     4  23    4.4162   512.8    4.280      47.261
2015    5        3     4  29    4.4144   512.7    4.279      47.240
2015    5        3     4  35    4.4126   512.6    4.278      47.219
2015    5        3     4  40    4.4109   512.6    4.277      47.197
2015    5        3     4  46    4.4091   512.5    4.276      47.175
2015    5        3     4  52    4.4074   512.4    4.275      47.153
2015    5        3     4  57    4.4056   512.3    4.273      47.131
2015    5        3     5   3    4.4039   512.3    4.272      47.109
2015    5        3     5   9    4.4022   512.2    4.271      47.086
2015    5        3     5  15    4.4005   512.1    4.270      47.063
2015    5        3     5  20    4.3987   512.0    4.268      47.040
2015    5        3     5  26    4.3970   512.0    4.267      47.016
2015    5        3     5  32    4.3953   511.9    4.266      46.992
2015    5        3     5  37    4.3936   511.8    4.264      46.968
2015    5        3     5  43    4.3919   511.7    4.263      46.944
2015    5        3     5  49    4.3902   511.7    4.261      46.919
2015    5        3     5  54    4.3885   511.6    4.260      46.895
2015    5        3     6   0    4.3868   511.5    4.259      46.870
2015    5        3     6   6    4.3851   511.4    4.257      46.845
2015    5        3     6  12    4.3834   511.4    4.256      46.819
2015    5        3     6  17    4.3817   511.3    4.255      46.794
2015    5        3     6  23    4.3800   511.2    4.254      46.769
2015    5        3     6  29    4.3784   511.1    4.252      46.744
2015    5        3     6  34    4.3767   511.0    4.251      46.719
2015    5        3     6  40    4.3751   511.0    4.250      46.694
2015    5        3     6  46    4.3735   510.9    4.249      46.669
2015    5        3     6  51    4.3718   510.8    4.248      46.644
2015    5        3     6  57    4.3702   510.7    4.247      46.620
2015    5        3     7   3    4.3687   510.6    4.246      46.596
2015    5        3     7   9    4.3671   510.6    4.245      46.572
2015    5        3     7  14    4.3655   510.5    4.245      46.548
2015    5        3     7  20    4.3640   510.4    4.244      46.526
2015    5        3     7  26    4.3625   510.3    4.243      46.503
2015    5        3     7  31    4.3610   510.3    4.243      46.481
2015    5        3     7  37    4.3595   510.2    4.242      46.460
2015    5        3     7  43    4.3581   510.1    4.242      46.439
2015    5        3     7  49    4.3566   510.0    4.242      46.418
2015    5        3     7  54    4.3551   510.0    4.241      46.398
2015    5        3     8   0    4.3537   509.9    4.241      46.378
2015    5        3     8   6    4.3522   509.8    4.241      46.359
2015    5        3     8  11    4.3507   509.7    4.241      46.340
2015    5        3     8  17    4.3492   509.7    4.241      46.321
2015    5        3     8  23    4.3477   509.6    4.241      46.302
2015    5        3     8  28    4.3462   509.5    4.241      46.284
2015    5        3     8  34    4.3446   509.5    4.241      46.266
2015    5        3     8  40    4.3431   509.4    4.241      46.249
2015    5        3     8  46    4.3415   509.3    4.241      46.231
2015    5        3     8  51    4.3399   509.2    4.241      46.214
2015    5        3     8  57    4.3383   509.2    4.241      46.196
2015    5        3     9   3    4.3367   509.1    4.241      46.178
2015    5        3     9   8    4.3351   509.0    4.241      46.160
2015    5        3     9  14    4.3334   508.9    4.241      46.142
2015    5        3     9  20    4.3318   508.8    4.241      46.123
2015    5        3     9  25    4.3301   508.8    4.241      46.103
2015    5        3     9  31    4.3285   508.7    4.240      46.084
2015    5        3     9  37    4.3268   508.6    4.240      46.063
2015    5        3     9  43    4.3251   508.5    4.240      46.043
2015    5        3     9  48    4.3235   508.4    4.240      46.022
2015    5        3     9  54    4.3218   508.3    4.239      46.001
2015    5        3    10   0    4.3201   508.3    4.239      45.979
2015    5        3    10   5    4.3184   508.2    4.239      45.957
2015    5        3    10  11    4.3168   508.1    4.238      45.934
2015    5        3    10  17    4.3151   508.0    4.238      45.912
2015    5        3    10  23    4.3135   507.9    4.238      45.889
2015    5        3    10  28    4.3119   507.8    4.238      45.867
2015    5        3    10  34    4.3102   507.7    4.238      45.844
2015    5        3    10  40    4.3087   507.6    4.237      45.821
2015    5        3    10  45    4.3071   507.6    4.237      45.798
2015    5        3    10  51    4.3055   507.5    4.237      45.775
2015    5        3    10  57    4.3040   507.4    4.237      45.753
2015    5        3    11   2    4.3025   507.3    4.238      45.730
2015    5        3    11   8    4.3010   507.2    4.238      45.708
2015    5        3    11  14    4.2995   507.1    4.238      45.686
2015    5        3    11  20    4.2981   507.0    4.238      45.664
2015    5        3    11  25    4.2967   506.9    4.239      45.643
2015    5        3    11  31    4.2953   506.8    4.239      45.621
2015    5        3    11  37    4.2939   506.7    4.240      45.600
2015    5        3    11  42    4.2926   506.6    4.240      45.580
2015    5        3    11  48    4.2912   506.6    4.241      45.560
2015    5        3    11  54    4.2899   506.5    4.242      45.540
2015    5        3    11  59    4.2885   506.4    4.242      45.521
2015    5        3    12   5    4.2872   506.3    4.243      45.502
2015    5        3    12  11    4.2858   506.2    4.244      45.483
2015    5        3    12  17    4.2844   506.1    4.244      45.465
2015    5        3    12  22    4.2830   506.0    4.245      45.445
2015    5        3    12  28    4.2816   505.9    4.245      45.425
2015    5        3    12  34    4.2802   505.8    4.245      45.405
2015    5        3    12  39    4.2788   505.8    4.245      45.384
2015    5        3    12  45    4.2773   505.7    4.245      45.363
2015    5        3    12  51    4.2759   505.6    4.245      45.341
2015    5        3    12  56    4.2744   505.5    4.245      45.319
2015    5        3    13   2    4.2730   505.4    4.245      45.296
2015    5        3    13   8    4.2715   505.3    4.245      45.273
2015    5        3    13  14    4.2701   505.2    4.244      45.249
2015    5        3    13  19    4.2686   505.1    4.244      45.224
2015    5        3    13  25    4.2671   505.0    4.244      45.200
2015    5        3    13  31    4.2656   504.9    4.243      45.174
2015    5        3    13  36    4.2641   504.9    4.243      45.149
2015    5        3    13  42    4.2626   504.8    4.242      45.123
2015    5        3    13  48    4.2611   504.7    4.241      45.097
2015    5        3    13  54    4.2596   504.6    4.241      45.071
2015    5        3    13  59    4.2581   504.5    4.240      45.044
2015    5        3    14   5    4.2567   504.4    4.239      45.017
2015    5        3    14  11    4.2552   504.3    4.239      44.990
2015    5        3    14  16    4.2537   504.2    4.238      44.963
2015    5        3    14  22    4.2522   504.1    4.237      44.936
2015    5        3    14  28    4.2507   504.0    4.237      44.909
2015    5        3    14  33    4.2492   503.9    4.236      44.881
2015    5        3    14  39    4.2477   503.8    4.235      44.854
2015    5        3    14  45    4.2462   503.7    4.234      44.826
2015    5        3    14  51    4.2447   503.6    4.233      44.799
2015    5        3    14  56    4.2433   503.5    4.233      44.771
2015    5        3    15   2    4.2417   503.4    4.232      44.743
2015    5        3    15   8    4.2402   503.4    4.231      44.715
2015    5        3    15  13    4.2387   503.3    4.230      44.687
2015    5        3    15  19    4.2372   503.2    4.229      44.659
2015    5        3    15  25    4.2357   503.1    4.228      44.630
2015    5        3    15  30    4.2342   503.0    4.227      44.602
2015    5        3    15  36    4.2326   502.9    4.226      44.573
2015    5        3    15  42    4.2311   502.8    4.226      44.544
2015    5        3    15  48    4.2296   502.7    4.225      44.515
2015    5        3    15  53    4.2280   502.6    4.224      44.485
2015    5        3    15  59    4.2265   502.5    4.223      44.456
2015    5        3    16   5    4.2249   502.4    4.222      44.426
2015    5        3    16  10    4.2234   502.3    4.221      44.396
2015    5        3    16  16    4.2218   502.2    4.219      44.366
2015    5        3    16  22    4.2203   502.1    4.218      44.335
2015    5        3    16  28    4.2188   502.0    4.217      44.305
2015    5        3    16  33    4.2172   501.9    4.216      44.274
2015    5        3    16  39    4.2157   501.8    4.215      44.243
2015    5        3    16  45    4.2142   501.7    4.214      44.211
2015    5        3    16  50    4.2126   501.6    4.213      44.180
2015    5        3    16  56    4.2111   501.5    4.212      44.148
2015    5        3    17   2    4.2096   501.4    4.211      44.117
2015    5        3    17   7    4.2081   501.3    4.210      44.085
2015    5        3    17  13    4.2066   501.2    4.209      44.053
2015    5        3    17  19    4.2051   501.1    4.208      44.021
2015    5        3    17  25    4.2036   500.9    4.207      43.989
2015    5        3    17  30    4.2021   500.8    4.206      43.958
2015    5        3    17  36    4.2007   500.7    4.206      43.926
2015    5        3    17  42    4.1992   500.6    4.205      43.895
2015    5        3    17  47    4.1978   500.5    4.204      43.864
2015    5        3    17  53    4.1964   500.4    4.204      43.833
2015    5        3    17  59    4.1950   500.3    4.203      43.802
2015    5        3    18   5    4.1936   500.2    4.203      43.772
2015    5        3    18  10    4.1923   500.1    4.203      43.743
2015    5        3    18  16    4.1909   499.9    4.203      43.714
2015    5        3    18  22    4.1897   499.8    4.203      43.685
2015    5        3    18  27    4.1884   499.7    4.203      43.658
2015    5        3    18  33    4.1871   499.6    4.203      43.631
2015    5        3    18  39    4.1859   499.5    4.204      43.605
2015    5        3    18  44    4.1847   499.4    4.204      43.579
2015    5        3    18  50    4.1836   499.3    4.205      43.554
2015    5        3    18  56    4.1824   499.2    4.206      43.531
2015    5        3    19   2    4.1813   499.1    4.207      43.509
2015    5        3    19   7    4.1801   499.0    4.208      43.488
2015    5        3    19  13    4.1790   498.8    4.209      43.468
2015    5        3    19  19    4.1778   498.7    4.211      43.448
2015    5        3    19  24    4.1767   498.6    4.212      43.430
2015    5        3    19  30    4.1755   498.5    4.213      43.411
2015    5        3    19  36    4.1743   498.4    4.214      43.393
2015    5        3    19  42    4.1732   498.3    4.216      43.374
2015    5        3    19  47    4.1720   498.2    4.217      43.355
2015    5        3    19  53    4.1708   498.1    4.218      43.337
2015    5        3    19  59    4.1696   498.0    4.219      43.318
2015    5        3    20   4    4.1684   497.9    4.221      43.299
2015    5        3    20  10    4.1672   497.8    4.222      43.280
2015    5        3    20  16    4.1659   497.7    4.223      43.260
2015    5        3    20  22    4.1646   497.6    4.224      43.240
2015    5        3    20  27    4.1634   497.5    4.225      43.220
2015    5        3    20  33    4.1620   497.4    4.226      43.199
2015    5        3    20  39    4.1607   497.2    4.227      43.178
2015    5        3    20  44    4.1593   497.1    4.228      43.157
2015    5        3    20  50    4.1580   497.0    4.229      43.135
2015    5        3    20  56    4.1566   496.9    4.230      43.113
2015    5        3    21   2    4.1552   496.8    4.231      43.090
2015    5        3    21   7    4.1538   496.7    4.232      43.067
2015    5        3    21  13    4.1523   496.6    4.233      43.044
2015    5        3    21  19    4.1509   496.5    4.233      43.020
2015    5        3    21  24    4.1495   496.3    4.234      42.995
2015    5        3    21  30    4.1480   496.2    4.235      42.970
2015    5        3    21  36    4.1465   496.1    4.235      42.945
2015    5        3    21  42    4.1451   496.0    4.236      42.919
2015    5        3    21  47    4.1436   495.9    4.236      42.893
2015    5        3    21  53    4.1422   495.8    4.237      42.867
2015    5        3    21  59    4.1407   495.6    4.237      42.840
2015    5        3    22   4    4.1392   495.5    4.237      42.813
2015    5        3    22  10    4.1378   495.4    4.238      42.786
2015    5        3    22  16    4.1364   495.3    4.238      42.758
2015    5        3    22  22    4.1350   495.1    4.239      42.731
2015    5        3    22  27    4.1336   495.0    4.239      42.703
2015    5        3    22  33    4.1322   494.9    4.239      42.675
2015    5        3    22  39    4.1309   494.8    4.240      42.648
2015    5        3    22  44    4.1296   494.6    4.240      42.620
2015    5        3    22  50    4.1283   494.5    4.240      42.593
2015    5        3    22  56    4.1270   494.4    4.241      42.565
2015    5        3    23   2    4.1258   494.3    4.241      42.538
2015    5        3    23   7    4.1245   494.1    4.241      42.511
2015    5        3    23  13    4.1233   494.0    4.241      42.485
2015    5        3    23  19    4.1221   493.9    4.242      42.458
2015    5        3    23  24    4.1209   493.8    4.242      42.431
2015    5        3    23  30    4.1197   493.7    4.242      42.404
2015    5        3    23  36    4.1185   493.5    4.242      42.377
2015    5        3    23  41    4.1173   493.4    4.242      42.350
2015    5        3    23  47    4.1161   493.3    4.242      42.322
2015    5        3    23  53    4.1149   493.2    4.242      42.295
2015    5        3    23  59    4.1137   493.0    4.241      42.267
2015    5        4     0   4    4.1125   492.9    4.241      42.239
2015    5        4     0  10    4.1113   492.8    4.241      42.211
2015    5        4     0  16    4.1101   492.7    4.241      42.183
2015    5        4     0  21    4.1090   492.6    4.240      42.154
2015    5        4     0  27    4.1078   492.4    4.240      42.125
2015    5        4     0  33    4.1066   492.3    4.240      42.095
2015    5        4     0  38    4.1054   492.2    4.239      42.065
2015    5        4     0  44    4.1042   492.0    4.239      42.035
2015    5        4     0  50    4.1030   491.9    4.238      42.005
2015    5        4     0  56    4.1018   491.8    4.238      41.974
2015    5        4     1   1    4.1006   491.7    4.237      41.943
2015    5        4     1   7    4.0995   491.5    4.237      41.912
2015    5        4     1  13    4.0983   491.4    4.236      41.881
2015    5        4     1  18    4.0971   491.3    4.236      41.849
2015    5        4     1  24    4.0959   491.1    4.235      41.818
2015    5        4     1  30    4.0948   491.0    4.235      41.786
2015    5        4     1  35    4.0936   490.9    4.234      41.754
2015    5        4     1  41    4.0925   490.7    4.234      41.722
2015    5        4     1  47    4.0913   490.6    4.234      41.690
2015    5        4     1  53    4.0902   490.5    4.233      41.659
2015    5        4     1  58    4.0890   490.3    4.233      41.627
2015    5        4     2   4    4.0879   490.2    4.233      41.596
2015    5        4     2  10    4.0868   490.1    4.232      41.565
2015    5        4     2  15    4.0857   489.9    4.232      41.533
2015    5        4     2  21    4.0845   489.8    4.232      41.503
2015    5        4     2  27    4.0834   489.7    4.232      41.472
2015    5        4     2  32    4.0824   489.5    4.232      41.442
2015    5        4     2  38    4.0813   489.4    4.232      41.411
2015    5        4     2  44    4.0802   489.3    4.232      41.382
2015    5        4     2  49    4.0792   489.1    4.233      41.352
2015    5        4     2  55    4.0781   489.0    4.233      41.323
2015    5        4     3   1    4.0770   488.9    4.233      41.294
2015    5        4     3   6    4.0760   488.7    4.234      41.265
2015    5        4     3  12    4.0749   488.6    4.234      41.236
2015    5        4     3  18    4.0739   488.4    4.234      41.208
2015    5        4     3  23    4.0728   488.3    4.235      41.179
2015    5        4     3  29    4.0717   488.2    4.236      41.151
2015    5        4     3  35    4.0706   488.0    4.236      41.123
2015    5        4     3  40    4.0695   487.9    4.237      41.095
2015    5        4     3  46    4.0684   487.8    4.238      41.066
2015    5        4     3  52    4.0673   487.6    4.238      41.038
2015    5        4     3  57    4.0662   487.5    4.239      41.010
2015    5        4     4   3    4.0651   487.3    4.240      40.981
2015    5        4     4   9    4.0639   487.2    4.241      40.953
2015    5        4     4  14    4.0628   487.0    4.241      40.924
2015    5        4     4  20    4.0616   486.9    4.242      40.895
2015    5        4     4  26    4.0605   486.7    4.243      40.866
2015    5        4     4  31    4.0594   486.6    4.244      40.837
2015    5        4     4  37    4.0582   486.4    4.245      40.808
2015    5        4     4  43    4.0571   486.3    4.246      40.778
2015    5        4     4  48    4.0560   486.1    4.247      40.749
2015    5        4     4  54    4.0548   486.0    4.248      40.720
2015    5        4     5   0    4.0537   485.8    4.249      40.690
2015    5        4     5   5    4.0527   485.7    4.251      40.661
2015    5        4     5  11    4.0516   485.5    4.252      40.632
2015    5        4     5  17    4.0506   485.3    4.253      40.603
2015    5        4     5  22    4.0496   485.2    4.255      40.575
2015    5        4     5  28    4.0486   485.0    4.256      40.546
2015    5        4     5  34    4.0476   484.9    4.258      40.518
2015    5        4     5  39    4.0467   484.7    4.260      40.491
2015    5        4     5  45    4.0459   484.5    4.262      40.464
2015    5        4     5  51    4.0450   484.4    4.264      40.437
2015    5        4     5  56    4.0443   484.2    4.266      40.412
2015    5        4     6   2    4.0435   484.1    4.268      40.387
2015    5        4     6   8    4.0428   483.9    4.270      40.363
2015    5        4     6  13    4.0421   483.8    4.273      40.339
2015    5        4     6  19    4.0414   483.6    4.275      40.316
2015    5        4     6  25    4.0408   483.5    4.277      40.294
2015    5        4     6  30    4.0401   483.3    4.280      40.273
2015    5        4     6  36    4.0395   483.1    4.283      40.251
2015    5        4     6  42    4.0389   483.0    4.285      40.230
2015    5        4     6  47    4.0384   482.8    4.288      40.210
2015    5        4     6  53    4.0378   482.7    4.291      40.190
2015    5        4     6  59    4.0373   482.5    4.294      40.170
2015    5        4     7   4    4.0367   482.4    4.296      40.150
2015    5        4     7  10    4.0362   482.2    4.299      40.131
2015    5        4     7  16    4.0357   482.0    4.302      40.112
2015    5        4     7  21    4.0351   481.9    4.305      40.093
2015    5        4     7  27    4.0346   481.7    4.308      40.075
2015    5        4     7  33    4.0341   481.6    4.311      40.056
2015    5        4     7  38    4.0336   481.4    4.314      40.037
2015    5        4     7  44    4.0331   481.3    4.317      40.019
2015    5        4     7  50    4.0325   481.1    4.320      40.000
2015    5        4     7  55    4.0320   480.9    4.323      39.981
2015    5        4     8   1    4.0316   480.8    4.325      39.962
2015    5        4     8   7    4.0311   480.6    4.328      39.944
2015    5        4     8  12    4.0306   480.5    4.331      39.924
2015    5        4     8  18    4.0301   480.3    4.334      39.905
2015    5        4     8  24    4.0296   480.1    4.337      39.885
2015    5        4     8  29    4.0291   480.0    4.339      39.865
2015    5        4     8  35    4.0286   479.8    4.342      39.844
2015    5        4     8  41    4.0281   479.6    4.344      39.824
2015    5        4     8  46    4.0277   479.5    4.347      39.803
2015    5        4     8  52    4.0272   479.3    4.349      39.781
2015    5        4     8  58    4.0267   479.2    4.351      39.759
2015    5        4     9   3    4.0262   479.0    4.354      39.737
2015    5        4     9   9    4.0258   478.8    4.356      39.715
2015    5        4     9  15    4.0253   478.7    4.358      39.692
2015    5        4     9  20    4.0249   478.5    4.360      39.669
2015    5        4     9  26    4.0244   478.3    4.362      39.646
2015    5        4     9  31    4.0240   478.2    4.364      39.623
2015    5        4     9  37    4.0236   478.0    4.366      39.599
2015    5        4     9  43    4.0232   477.9    4.368      39.576
2015    5        4     9  48    4.0227   477.7    4.370      39.551
2015    5        4     9  54    4.0223   477.5    4.372      39.527
2015    5        4    10   0    4.0219   477.4    4.374      39.503
2015    5        4    10   5    4.0215   477.2    4.376      39.478
2015    5        4    10  11    4.0211   477.1    4.378      39.452
2015    5        4    10  17    4.0207   476.9    4.379      39.426
2015    5        4    10  22    4.0203   476.7    4.381      39.400
2015    5        4    10  28    4.0199   476.6    4.383      39.374
2015    5        4    10  34    4.0195   476.4    4.384      39.347
2015    5        4    10  39    4.0191   476.2    4.386      39.320
2015    5        4    10  45    4.0187   476.1    4.387      39.292
2015    5        4    10  51    4.0183   475.9    4.389      39.264
2015    5        4    10  57    4.0179   475.7    4.391      39.235
2015    5        4    11   2    4.0175   475.6    4.392      39.207
2015    5        4    11   8    4.0172   475.4    4.394      39.177
2015    5        4    11  13    4.0168   475.2    4.395      39.148
2015    5        4    11  19    4.0164   475.1    4.397      39.118
2015    5        4    11  25    4.0160   474.9    4.398      39.088
2015    5        4    11  30    4.0157   474.7    4.400      39.058
2015    5        4    11  36    4.0153   474.6    4.401      39.027
2015    5        4    11  42    4.0150   474.4    4.403      38.997
2015    5        4    11  47    4.0147   474.2    4.405      38.966
2015    5        4    11  53    4.0144   474.0    4.406      38.935
2015    5        4    11  59    4.0141   473.9    4.408      38.904
2015    5        4    12   4    4.0138   473.7    4.410      38.873
2015    5        4    12  10    4.0135   473.5    4.412      38.842
2015    5        4    12  16    4.0132   473.4    4.414      38.811
2015    5        4    12  21    4.0130   473.2    4.416      38.780
2015    5        4    12  27    4.0127   473.0    4.418      38.749
2015    5        4    12  33    4.0125   472.9    4.420      38.719
2015    5        4    12  38    4.0123   472.7    4.422      38.688
2015    5        4    12  44    4.0122   472.5    4.425      38.658
2015    5        4    12  50    4.0120   472.3    4.427      38.628
2015    5        4    12  55    4.0119   472.2    4.430      38.598
2015    5        4    13   1    4.0118   472.0    4.432      38.569
2015    5        4    13   7    4.0117   471.8    4.435      38.540
2015    5        4    13  13    4.0116   471.6    4.438      38.511
2015    5        4    13  18    4.0116   471.5    4.441      38.483
2015    5        4    13  24    4.0115   471.3    4.444      38.454
2015    5        4    13  30    4.0115   471.1    4.447      38.427
2015    5        4    13  35    4.0116   471.0    4.451      38.399
2015    5        4    13  41    4.0116   470.8    4.454      38.373
2015    5        4    13  47    4.0117   470.6    4.458      38.346
2015    5        4    13  52    4.0117   470.4    4.462      38.320
2015    5        4    13  58    4.0118   470.3    4.466      38.295
2015    5        4    14   4    4.0119   470.1    4.470      38.270
2015    5        4    14   9    4.0121   469.9    4.474      38.245
2015    5        4    14  15    4.0123   469.7    4.478      38.221
2015    5        4    14  21    4.0125   469.6    4.483      38.198
2015    5        4    14  26    4.0127   469.4    4.487      38.175
2015    5        4    14  32    4.0129   469.2    4.492      38.153
2015    5        4    14  38    4.0132   469.1    4.497      38.131
2015    5        4    14  44    4.0135   468.9    4.502      38.110
2015    5        4    14  49    4.0138   468.7    4.507      38.089
2015    5        4    14  55    4.0141   468.5    4.512      38.069
2015    5        4    15   1    4.0144   468.4    4.517      38.049
2015    5        4    15   6    4.0148   468.2    4.522      38.030
2015    5        4    15  12    4.0152   468.0    4.527      38.011
2015    5        4    15  18    4.0156   467.9    4.533      37.992
2015    5        4    15  24    4.0160   467.7    4.538      37.974
2015    5        4    15  29    4.0165   467.5    4.544      37.956
2015    5        4    15  35    4.0169   467.3    4.549      37.939
2015    5        4    15  41    4.0174   467.2    4.555      37.922
2015    5        4    15  47    4.0179   467.0    4.560      37.904
2015    5        4    15  52    4.0184   466.8    4.566      37.887
2015    5        4    15  58    4.0190   466.7    4.571      37.871
2015    5        4    16   4    4.0195   466.5    4.577      37.854
2015    5        4    16   9    4.0201   466.3    4.583      37.837
2015    5        4    16  15    4.0207   466.1    4.588      37.821
2015    5        4    16  21    4.0213   466.0    4.594      37.805
2015    5        4    16  27    4.0219   465.8    4.600      37.789
2015    5        4    16  32    4.0225   465.6    4.605      37.774
2015    5        4    16  38    4.0232   465.5    4.611      37.758
2015    5        4    16  44    4.0238   465.3    4.617      37.743
2015    5        4    16  50    4.0245   465.2    4.623      37.728
2015    5        4    16  55    4.0252   465.0    4.628      37.713
2015    5        4    17   1    4.0259   464.8    4.634      37.699
2015    5        4    17   7    4.0266   464.7    4.640      37.684
2015    5        4    17  12    4.0273   464.5    4.645      37.670
2015    5        4    17  18    4.0280   464.3    4.651      37.655
2015    5        4    17  24    4.0287   464.2    4.656      37.641
2015    5        4    17  30    4.0295   464.0    4.662      37.626
2015    5        4    17  35    4.0302   463.9    4.668      37.611
2015    5        4    17  41    4.0309   463.7    4.673      37.596
2015    5        4    17  47    4.0316   463.5    4.678      37.581
2015    5        4    17  52    4.0324   463.4    4.684      37.566
2015    5        4    17  58    4.0331   463.2    4.689      37.550
2015    5        4    18   4    4.0338   463.1    4.694      37.535
2015    5        4    18  10    4.0346   462.9    4.700      37.518
2015    5        4    18  15    4.0353   462.8    4.705      37.502
2015    5        4    18  21    4.0360   462.6    4.710      37.485
2015    5        4    18  27    4.0368   462.4    4.715      37.468
2015    5        4    18  33    4.0375   462.3    4.720      37.450
2015    5        4    18  38    4.0383   462.1    4.725      37.433
2015    5        4    18  44    4.0390   462.0    4.730      37.415
2015    5        4    18  50    4.0398   461.8    4.735      37.396
2015    5        4    18  55    4.0406   461.7    4.739      37.377
2015    5        4    19   1    4.0413   461.5    4.744      37.358
2015    5        4    19   7    4.0421   461.4    4.749      37.339
2015    5        4    19  13    4.0429   461.2    4.753      37.320
2015    5        4    19  18    4.0437   461.1    4.758      37.300
2015    5        4    19  24    4.0445   460.9    4.763      37.280
2015    5        4    19  30    4.0453   460.8    4.767      37.260
2015    5        4    19  36    4.0461   460.6    4.772      37.239
2015    5        4    19  41    4.0470   460.4    4.776      37.218
2015    5        4    19  47    4.0478   460.3    4.781      37.197
2015    5        4    19  53    4.0486   460.1    4.785      37.176
2015    5        4    19  58    4.0495   460.0    4.790      37.154
2015    5        4    20   4    4.0503   459.9    4.794      37.132
2015    5        4    20  10    4.0512   459.7    4.799      37.110
2015    5        4    20  16    4.0521   459.6    4.803      37.088
2015    5        4    20  21    4.0529   459.4    4.808      37.066
2015    5        4    20  27    4.0538   459.3    4.812      37.043
2015    5        4    20  33    4.0547   459.1    4.816      37.020
2015    5        4    20  38    4.0556   459.0    4.821      36.998
2015    5        4    20  44    4.0565   458.8    4.825      36.975
2015    5        4    20  50    4.0574   458.7    4.830      36.952
2015    5        4    20  56    4.0583   458.5    4.834      36.929
2015    5        4    21   1    4.0593   458.4    4.839      36.906
2015    5        4    21   7    4.0602   458.2    4.844      36.883
2015    5        4    21  13    4.0612   458.1    4.848      36.859
2015    5        4    21  19    4.0622   457.9    4.853      36.836
2015    5        4    21  24    4.0632   457.8    4.858      36.813
2015    5        4    21  30    4.0641   457.6    4.862      36.790
2015    5        4    21  36    4.0652   457.5    4.867      36.767
2015    5        4    21  41    4.0662   457.4    4.872      36.745
2015    5        4    21  47    4.0672   457.2    4.877      36.722
2015    5        4    21  53    4.0683   457.1    4.882      36.700
2015    5        4    21  59    4.0694   456.9    4.887      36.678
2015    5        4    22   4    4.0705   456.8    4.892      36.656
2015    5        4    22  10    4.0716   456.7    4.897      36.634
2015    5        4    22  16    4.0727   456.5    4.902      36.612
2015    5        4    22  21    4.0738   456.4    4.908      36.591
2015    5        4    22  27    4.0750   456.2    4.913      36.570
2015    5        4    22  33    4.0761   456.1    4.918      36.550
2015    5        4    22  39    4.0773   456.0    4.924      36.529
2015    5        4    22  44    4.0785   455.8    4.930      36.509
2015    5        4    22  50    4.0797   455.7    4.935      36.490
2015    5        4    22  56    4.0809   455.5    4.941      36.471
2015    5        4    23   2    4.0822   455.4    4.947      36.452
2015    5        4    23   7    4.0835   455.3    4.953      36.434
2015    5        4    23  13    4.0847   455.1    4.959      36.416
2015    5        4    23  19    4.0860   455.0    4.965      36.398
2015    5        4    23  24    4.0873   454.9    4.971      36.381
2015    5        4    23  30    4.0887   454.7    4.977      36.365
2015    5        4    23  36    4.0900   454.6    4.984      36.349
2015    5        4    23  42    4.0914   454.5    4.990      36.333
2015    5        4    23  47    4.0927   454.4    4.997      36.318
2015    5        4    23  53    4.0941   454.2    5.003      36.303
2015    5        4    23  59    4.0955   454.1    5.010      36.289
2015    5        5     0   4    4.0969   454.0    5.017      36.275
2015    5        5     0  10    4.0983   453.8    5.024      36.262
2015    5        5     0  16    4.0998   453.7    5.030      36.249
2015    5        5     0  22    4.1012   453.6    5.037      36.236
2015    5        5     0  27    4.1026   453.5    5.044      36.224
2015    5        5     0  33    4.1040   453.4    5.051      36.212
2015    5        5     0  39    4.1055   453.2    5.058      36.200
2015    5        5     0  44    4.1069   453.1    5.065      36.189
2015    5        5     0  50    4.1083   453.0    5.072      36.178
2015    5        5     0  56    4.1098   452.9    5.079      36.167
2015    5        5     1   2    4.1112   452.8    5.086      36.156
2015    5        5     1   7    4.1126   452.6    5.093      36.146
2015    5        5     1  13    4.1140   452.5    5.100      36.136
2015    5        5     1  19    4.1155   452.4    5.107      36.126
2015    5        5     1  25    4.1169   452.3    5.114      36.116
2015    5        5     1  30    4.1183   452.2    5.120      36.106
2015    5        5     1  36    4.1198   452.0    5.127      36.097
2015    5        5     1  42    4.1212   451.9    5.134      36.087
2015    5        5     1  47    4.1226   451.8    5.140      36.078
2015    5        5     1  53    4.1240   451.7    5.147      36.069
2015    5        5     1  59    4.1255   451.6    5.153      36.059
2015    5        5     2   5    4.1269   451.4    5.160      36.050
2015    5        5     2  10    4.1283   451.3    5.166      36.040
2015    5        5     2  16    4.1298   451.2    5.172      36.030
2015    5        5     2  22    4.1312   451.1    5.179      36.020
2015    5        5     2  27    4.1326   451.0    5.185      36.010
2015    5        5     2  33    4.1341   450.9    5.191      35.999
2015    5        5     2  39    4.1355   450.8    5.197      35.989
2015    5        5     2  45    4.1369   450.6    5.203      35.978
2015    5        5     2  50    4.1384   450.5    5.209      35.967
2015    5        5     2  56    4.1398   450.4    5.215      35.955
2015    5        5     3   2    4.1413   450.3    5.220      35.944
2015    5        5     3   7    4.1427   450.2    5.226      35.932
2015    5        5     3  13    4.1442   450.1    5.232      35.920
2015    5        5     3  19    4.1456   450.0    5.238      35.908
2015    5        5     3  25    4.1471   449.9    5.243      35.896
2015    5        5     3  30    4.1486   449.7    5.249      35.883
2015    5        5     3  36    4.1500   449.6    5.254      35.870
2015    5        5     3  42    4.1515   449.5    5.260      35.858
2015    5        5     3  47    4.1530   449.4    5.265      35.845
2015    5        5     3  53    4.1545   449.3    5.271      35.831
2015    5        5     3  59    4.1560   449.2    5.276      35.818
2015    5        5     4   5    4.1575   449.1    5.281      35.804
2015    5        5     4  10    4.1590   449.0    5.286      35.791
2015    5        5     4  16    4.1605   448.9    5.292      35.777
2015    5        5     4  22    4.1620   448.8    5.297      35.763
2015    5        5     4  28    4.1636   448.7    5.302      35.749
2015    5        5     4  33    4.1651   448.6    5.307      35.735
2015    5        5     4  39    4.1666   448.4    5.312      35.721
2015    5        5     4  45    4.1682   448.3    5.317      35.706
2015    5        5     4  50    4.1697   448.2    5.322      35.691
2015    5        5     4  56    4.1713   448.1    5.328      35.677
2015    5        5     5   2    4.1728   448.0    5.333      35.662
2015    5        5     5   8    4.1744   447.9    5.338      35.647
2015    5        5     5  13    4.1759   447.8    5.343      35.632
2015    5        5     5  19    4.1775   447.7    5.348      35.617
2015    5        5     5  25    4.1791   447.6    5.353      35.602
2015    5        5     5  30    4.1806   447.5    5.358      35.587
2015    5        5     5  36    4.1822   447.4    5.363      35.572
2015    5        5     5  42    4.1838   447.3    5.368      35.557
2015    5        5     5  48    4.1854   447.2    5.373      35.542
2015    5        5     5  53    4.1869   447.1    5.378      35.527
2015    5        5     5  59    4.1885   447.0    5.383      35.512
2015    5        5     6   5    4.1901   446.9    5.388      35.497
2015    5        5     6  10    4.1917   446.8    5.393      35.482
2015    5        5     6  16    4.1933   446.7    5.398      35.467
2015    5        5     6  22    4.1949   446.6    5.403      35.453
2015    5        5     6  28    4.1965   446.5    5.408      35.438
2015    5        5     6  33    4.1981   446.4    5.414      35.424
2015    5        5     6  39    4.1997   446.3    5.419      35.410
2015    5        5     6  45    4.2013   446.2    5.424      35.397
2015    5        5     6  50    4.2030   446.2    5.430      35.383
2015    5        5     6  56    4.2046   446.1    5.435      35.370
2015    5        5     7   2    4.2062   446.0    5.440      35.357
2015    5        5     7   8    4.2078   445.9    5.446      35.344
2015    5        5     7  13    4.2095   445.8    5.452      35.332
2015    5        5     7  19    4.2111   445.7    5.457      35.320
2015    5        5     7  25    4.2128   445.6    5.463      35.308
2015    5        5     7  30    4.2144   445.5    5.469      35.297
2015    5        5     7  36    4.2161   445.4    5.475      35.286
2015    5        5     7  42    4.2177   445.3    5.480      35.275
2015    5        5     7  48    4.2194   445.3    5.486      35.265
2015    5        5     7  53    4.2211   445.2    5.492      35.255
2015    5        5     7  59    4.2227   445.1    5.498      35.245
2015    5        5     8   5    4.2244   445.0    5.504      35.235
2015    5        5     8  10    4.2260   444.9    5.510      35.226
2015    5        5     8  16    4.2277   444.8    5.516      35.217
2015    5        5     8  22    4.2294   444.7    5.522      35.209
2015    5        5     8  28    4.2310   444.7    5.529      35.200
2015    5        5     8  33    4.2326   444.6    5.535      35.193
2015    5        5     8  39    4.2343   444.5    5.541      35.185
2015    5        5     8  45    4.2359   444.4    5.547      35.178
2015    5        5     8  50    4.2376   444.3    5.553      35.172
2015    5        5     8  56    4.2392   444.3    5.559      35.165
2015    5        5     9   2    4.2409   444.2    5.565      35.159
2015    5        5     9   8    4.2425   444.1    5.570      35.153
2015    5        5     9  13    4.2441   444.0    5.576      35.147
2015    5        5     9  19    4.2457   443.9    5.582      35.141
2015    5        5     9  25    4.2474   443.9    5.588      35.136
2015    5        5     9  31    4.2490   443.8    5.594      35.130
2015    5        5     9  36    4.2506   443.7    5.599      35.124
2015    5        5     9  42    4.2522   443.6    5.605      35.119
2015    5        5     9  48    4.2538   443.5    5.610      35.113
2015    5        5     9  53    4.2554   443.5    5.616      35.107
2015    5        5     9  59    4.2570   443.4    5.621      35.101
2015    5        5    10   5    4.2586   443.3    5.627      35.095
2015    5        5    10  11    4.2602   443.2    5.632      35.090
2015    5        5    10  16    4.2618   443.1    5.637      35.084
2015    5        5    10  22    4.2633   443.1    5.643      35.078
2015    5        5    10  28    4.2649   443.0    5.648      35.071
2015    5        5    10  33    4.2665   442.9    5.653      35.065
2015    5        5    10  39    4.2681   442.8    5.658      35.059
2015    5        5    10  45    4.2697   442.7    5.663      35.053
2015    5        5    10  51    4.2713   442.7    5.668      35.047
2015    5        5    10  56    4.2729   442.6    5.673      35.040
2015    5        5    11   2    4.2745   442.5    5.677      35.034
2015    5        5    11   8    4.2761   442.4    5.682      35.027
2015    5        5    11  13    4.2777   442.4    5.687      35.021
2015    5        5    11  19    4.2793   442.3    5.692      35.014
2015    5        5    11  25    4.2809   442.2    5.696      35.007
2015    5        5    11  31    4.2825   442.1    5.701      35.001
2015    5        5    11  36    4.2841   442.0    5.705      34.994
2015    5        5    11  42    4.2858   442.0    5.710      34.987
2015    5        5    11  48    4.2874   441.9    5.714      34.980
2015    5        5    11  53    4.2890   441.8    5.719      34.973
2015    5        5    11  59    4.2907   441.7    5.723      34.966
2015    5        5    12   5    4.2923   441.7    5.727      34.959
2015    5        5    12  11    4.2939   441.6    5.732      34.951
2015    5        5    12  16    4.2956   441.5    5.736      34.944
2015    5        5    12  22    4.2972   441.4    5.740      34.937
2015    5        5    12  28    4.2989   441.4    5.744      34.929
2015    5        5    12  33    4.3005   441.3    5.748      34.922
2015    5        5    12  39    4.3022   441.2    5.752      34.914
2015    5        5    12  45    4.3039   441.1    5.756      34.906
2015    5        5    12  51    4.3055   441.1    5.760      34.899
2015    5        5    12  56    4.3072   441.0    5.765      34.891
2015    5        5    13   2    4.3089   440.9    5.769      34.883
2015    5        5    13   8    4.3105   440.8    5.773      34.876
2015    5        5    13  13    4.3122   440.8    5.777      34.868
2015    5        5    13  19    4.3139   440.7    5.781      34.860
2015    5        5    13  25    4.3156   440.6    5.785      34.852
2015    5        5    13  31    4.3173   440.5    5.789      34.845
2015    5        5    13  36    4.3190   440.5    5.793      34.837
2015    5        5    13  42    4.3207   440.4    5.797      34.830
2015    5        5    13  48    4.3224   440.3    5.801      34.823
2015    5        5    13  53    4.3241   440.2    5.805      34.815
2015    5        5    13  59    4.3258   440.2    5.809      34.808
2015    5        5    14   5    4.3275   440.1    5.814      34.801
2015    5        5    14  10    4.3292   440.0    5.818      34.794
2015    5        5    14  16    4.3310   440.0    5.822      34.788
2015    5        5    14  22    4.3327   439.9    5.826      34.782
2015    5        5    14  28    4.3344   439.8    5.831      34.775
2015    5        5    14  33    4.3362   439.8    5.835      34.769
2015    5        5    14  39    4.3379   439.7    5.840      34.763
2015    5        5    14  45    4.3396   439.6    5.844      34.758
2015    5        5    14  50    4.3414   439.6    5.849      34.752
2015    5        5    14  56    4.3431   439.5    5.853      34.747
2015    5        5    15   2    4.3449   439.4    5.858      34.742
2015    5        5    15   8    4.3466   439.4    5.863      34.737
2015    5        5    15  13    4.3483   439.3    5.867      34.733
2015    5        5    15  19    4.3501   439.2    5.872      34.728
2015    5        5    15  25    4.3518   439.2    5.877      34.724
2015    5        5    15  30    4.3536   439.1    5.882      34.720
2015    5        5    15  36    4.3553   439.0    5.886      34.717
2015    5        5    15  42    4.3570   439.0    5.891      34.713
2015    5        5    15  48    4.3588   438.9    5.896      34.709
2015    5        5    15  53    4.3605   438.9    5.901      34.706
2015    5        5    15  59    4.3622   438.8    5.906      34.703
2015    5        5    16   5    4.3639   438.7    5.911      34.700
2015    5        5    16  10    4.3656   438.7    5.915      34.698
2015    5        5    16  16    4.3674   438.6    5.920      34.695
2015    5        5    16  22    4.3691   438.6    5.925      34.692
2015    5        5    16  28    4.3708   438.5    5.930      34.690
2015    5        5    16  33    4.3724   438.4    5.935      34.688
2015    5        5    16  39    4.3741   438.4    5.939      34.685
2015    5        5    16  45    4.3758   438.3    5.944      34.683
2015    5        5    16  50    4.3775   438.3    5.949      34.681
2015    5        5    16  56    4.3791   438.2    5.954      34.679
2015    5        5    17   2    4.3808   438.1    5.958      34.678
2015    5        5    17   8    4.3825   438.1    5.963      34.676
2015    5        5    17  13    4.3841   438.0    5.967      34.674
2015    5        5    17  19    4.3858   438.0    5.972      34.672
2015    5        5    17  25    4.3874   437.9    5.976      34.671
2015    5        5    17  30    4.3891   437.9    5.980      34.669
2015    5        5    17  36    4.3907   437.8    5.985      34.668
2015    5        5    17  42    4.3924   437.7    5.989      34.666
2015    5        5    17  48    4.3940   437.7    5.993      34.665
2015    5        5    17  53    4.3957   437.6    5.997      34.663
2015    5        5    17  59    4.3973   437.6    6.001      34.662
2015    5        5    18   5    4.3990   437.5    6.005      34.660
2015    5        5    18  10    4.4006   437.4    6.009      34.659
2015    5        5    18  16    4.4023   437.4    6.013      34.658
2015    5        5    18  22    4.4040   437.3    6.017      34.656
2015    5        5    18  28    4.4057   437.3    6.021      34.655
2015    5        5    18  33    4.4073   437.2    6.025      34.654
2015    5        5    18  39    4.4090   437.2    6.029      34.653
2015    5        5    18  45    4.4107   437.1    6.032      34.651
2015    5        5    18  50    4.4124   437.1    6.036      34.650
2015    5        5    18  56    4.4141   437.0    6.040      34.649
2015    5        5    19   2    4.4159   436.9    6.043      34.648
2015    5        5    19   8    4.4176   436.9    6.047      34.647
2015    5        5    19  13    4.4193   436.8    6.050      34.646
2015    5        5    19  19    4.4211   436.8    6.054      34.645
2015    5        5    19  25    4.4228   436.7    6.057      34.644
2015    5        5    19  30    4.4246   436.7    6.061      34.643
2015    5        5    19  36    4.4263   436.6    6.064      34.642
2015    5        5    19  42    4.4281   436.6    6.067      34.641
2015    5        5    19  48    4.4298   436.5    6.071      34.640
2015    5        5    19  53    4.4316   436.4    6.074      34.640
2015    5        5    19  59    4.4334   436.4    6.077      34.639
2015    5        5    20   5    4.4352   436.3    6.080      34.638
2015    5        5    20  10    4.4369   436.3    6.084      34.637
2015    5        5    20  16    4.4387   436.2    6.087      34.636
2015    5        5    20  22    4.4405   436.2    6.090      34.636
2015    5        5    20  28    4.4422   436.1    6.093      34.635
2015    5        5    20  33    4.4440   436.1    6.096      34.634
2015    5        5    20  39    4.4458   436.0    6.099      34.633
2015    5        5    20  45    4.4476   436.0    6.102      34.633
2015    5        5    20  50    4.4493   435.9    6.105      34.632
2015    5        5    20  56    4.4511   435.9    6.108      34.631
2015    5        5    21   2    4.4529   435.8    6.111      34.631
2015    5        5    21   7    4.4547   435.8    6.114      34.630
2015    5        5    21  13    4.4565   435.7    6.117      34.630
2015    5        5    21  19    4.4583   435.7    6.120      34.629
2015    5        5    21  25    4.4600   435.6    6.123      34.629
2015    5        5    21  30    4.4618   435.6    6.126      34.628
2015    5        5    21  36    4.4636   435.5    6.129      34.628
2015    5        5    21  42    4.4654   435.5    6.132      34.628
2015    5        5    21  47    4.4672   435.4    6.135      34.627
2015    5        5    21  53    4.4690   435.4    6.138      34.627
2015    5        5    21  59    4.4708   435.3    6.141      34.627
2015    5        5    22   5    4.4726   435.3    6.144      34.628
2015    5        5    22  10    4.4743   435.2    6.147      34.628
2015    5        5    22  16    4.4761   435.2    6.150      34.628
2015    5        5    22  22    4.4779   435.1    6.153      34.629
2015    5        5    22  27    4.4797   435.1    6.156      34.630
2015    5        5    22  33    4.4815   435.0    6.160      34.630
2015    5        5    22  39    4.4832   435.0    6.163      34.631
2015    5        5    22  45    4.4850   434.9    6.166      34.632
2015    5        5    22  50    4.4868   434.9    6.169      34.633
2015    5        5    22  56    4.4886   434.8    6.173      34.635
2015    5        5    23   2    4.4904   434.8    6.176      34.636
2015    5        5    23   7    4.4921   434.7    6.179      34.638
2015    5        5    23  13    4.4939   434.7    6.183      34.639
2015    5        5    23  19    4.4957   434.7    6.186      34.641
2015    5        5    23  25    4.4974   434.6    6.189      34.643
2015    5        5    23  30    4.4992   434.6    6.193      34.645
2015    5        5    23  36    4.5009   434.5    6.196      34.647
2015    5        5    23  42    4.5026   434.5    6.200      34.649
2015    5        5    23  47    4.5044   434.4    6.203      34.651
2015    5        5    23  53    4.5061   434.4    6.207      34.653
2015    5        5    23  59    4.5078   434.3    6.210      34.656
2015    5        6     0   5    4.5095   434.3    6.213      34.658
2015    5        6     0  10    4.5112   434.3    6.217      34.661
2015    5        6     0  16    4.5129   434.2    6.220      34.663
2015    5        6     0  22    4.5146   434.2    6.224      34.666
2015    5        6     0  27    4.5163   434.1    6.227      34.669
2015    5        6     0  33    4.5179   434.1    6.230      34.672
2015    5        6     0  39    4.5196   434.0    6.234      34.674
2015    5        6     0  44    4.5213   434.0    6.237      34.677
2015    5        6     0  50    4.5229   434.0    6.240      34.680
2015    5        6     0  56    4.5246   433.9    6.243      34.683
2015    5        6     1   2    4.5263   433.9    6.247      34.686
2015    5        6     1   7    4.5279   433.8    6.250      34.689
2015    5        6     1  13    4.5296   433.8    6.253      34.692
2015    5        6     1  19    4.5312   433.7    6.256      34.695
2015    5        6     1  24    4.5328   433.7    6.260      34.698
2015    5        6     1  30    4.5345   433.6    6.263      34.701
2015    5        6     1  36    4.5361   433.6    6.266      34.704
2015    5        6     1  42    4.5378   433.6    6.269      34.707
2015    5        6     1  47    4.5394   433.5    6.272      34.711
2015    5        6     1  53    4.5411   433.5    6.275      34.714
2015    5        6     1  59    4.5427   433.4    6.278      34.718
2015    5        6     2   4    4.5443   433.4    6.281      34.721
2015    5        6     2  10    4.5460   433.3    6.284      34.725
2015    5        6     2  16    4.5476   433.3    6.287      34.729
2015    5        6     2  22    4.5492   433.2    6.290      34.733
2015    5        6     2  27    4.5509   433.2    6.293      34.737
2015    5        6     2  33    4.5525   433.2    6.295      34.741
2015    5        6     2  39    4.5541   433.1    6.298      34.745
2015    5        6     2  44    4.5557   433.1    6.301      34.748
2015    5        6     2  50    4.5573   433.0    6.303      34.752
2015    5        6     2  56    4.5588   433.0    6.306      34.756
2015    5        6     3   2    4.5604   432.9    6.308      34.759
2015    5        6     3   7    4.5620   432.9    6.310      34.762
2015    5        6     3  13    4.5635   432.9    6.313      34.765
2015    5        6     3  19    4.5651   432.8    6.315      34.768
2015    5        6     3  24    4.5666   432.8    6.317      34.771
2015    5        6     3  30    4.5681   432.7    6.319      34.774
2015    5        6     3  36    4.5696   432.7    6.321      34.776
2015    5        6     3  41    4.5711   432.6    6.323      34.779
2015    5        6     3  47    4.5725   432.6    6.325      34.781
2015    5        6     3  53    4.5740   432.5    6.327      34.783
2015    5        6     3  59    4.5754   432.5    6.329      34.786
2015    5        6     4   4    4.5768   432.4    6.330      34.788
2015    5        6     4  10    4.5782   432.4    6.332      34.789
2015    5        6     4  16    4.5796   432.4    6.334      34.791
2015    5        6     4  21    4.5809   432.3    6.335      34.793
2015    5        6     4  27    4.5822   432.3    6.337      34.794
2015    5        6     4  33    4.5835   432.2    6.339      34.795
2015    5        6     4  39    4.5848   432.2    6.340      34.797
2015    5        6     4  44    4.5861   432.1    6.342      34.798
2015    5        6     4  50    4.5873   432.1    6.343      34.799
2015    5        6     4  56    4.5885   432.0    6.344      34.799
2015    5        6     5   1    4.5896   432.0    6.346      34.800
2015    5        6     5   7    4.5907   431.9    6.347      34.801
2015    5        6     5  13    4.5918   431.9    6.348      34.801
2015    5        6     5  19    4.5929   431.9    6.350      34.802
2015    5        6     5  24    4.5939   431.8    6.351      34.802
2015    5        6     5  30    4.5949   431.8    6.352      34.802
2015    5        6     5  36    4.5958   431.7    6.353      34.802
2015    5        6     5  41    4.5967   431.7    6.354      34.802
2015    5        6     5  47    4.5976   431.6    6.355      34.801
2015    5        6     5  53    4.5984   431.6    6.356      34.801
2015    5        6     5  59    4.5991   431.5    6.357      34.800
2015    5        6     6   4    4.5999   431.5    6.358      34.798
2015    5        6     6  10    4.6005   431.5    6.359      34.797
2015    5        6     6  16    4.6012   431.4    6.360      34.795
2015    5        6     6  21    4.6018   431.4    6.360      34.793
2015    5        6     6  27    4.6023   431.3    6.361      34.791
2015    5        6     6  33    4.6028   431.3    6.361      34.788
2015    5        6     6  38    4.6033   431.2    6.362      34.785
2015    5        6     6  44    4.6037   431.2    6.362      34.782
2015    5        6     6  50    4.6041   431.2    6.363      34.779
2015    5        6     6  56    4.6044   431.1    6.363      34.776
2015    5        6     7   1    4.6047   431.1    6.363      34.772
2015    5        6     7   7    4.6050   431.0    6.364      34.768
2015    5        6     7  13    4.6052   431.0    6.364      34.764
2015    5        6     7  18    4.6054   430.9    6.364      34.760
2015    5        6     7  24    4.6055   430.9    6.364      34.756
2015    5        6     7  30    4.6056   430.8    6.364      34.751
2015    5        6     7  36    4.6057   430.8    6.364      34.746
2015    5        6     7  41    4.6057   430.8    6.364      34.742
2015    5        6     7  47    4.6058   430.7    6.364      34.737
2015    5        6     7  53    4.6057   430.7    6.364      34.732
2015    5        6     7  58    4.6057   430.6    6.364      34.727
2015    5        6     8   4    4.6056   430.6    6.364      34.722
2015    5        6     8  10    4.6055   430.5    6.364      34.717
2015    5        6     8  16    4.6053   430.5    6.364      34.712
2015    5        6     8  21    4.6051   430.4    6.364      34.707
2015    5        6     8  27    4.6049   430.4    6.364      34.702
2015    5        6     8  33    4.6047   430.3    6.364      34.697
2015    5        6     8  38    4.6044   430.3    6.364      34.693
2015    5        6     8  44    4.6041   430.2    6.364      34.688
2015    5        6     8  50    4.6038   430.2    6.363      34.683
2015    5        6     8  55    4.6035   430.1    6.363      34.679
2015    5        6     9   1    4.6031   430.1    6.363      34.674
2015    5        6     9   7    4.6028   430.0    6.363      34.670
2015    5        6     9  13    4.6024   430.0    6.363      34.666
2015    5        6     9  18    4.6020   429.9    6.363      34.661
2015    5        6     9  24    4.6015   429.9    6.363      34.657
2015    5        6     9  30    4.6011   429.8    6.363      34.654
2015    5        6     9  35    4.6006   429.8    6.364      34.650
2015    5        6     9  41    4.6002   429.7    6.364      34.647
2015    5        6     9  47    4.5997   429.7    6.364      34.643
2015    5        6     9  53    4.5992   429.6    6.364      34.641
2015    5        6     9  58    4.5987   429.6    6.364      34.638
2015    5        6    10   4    4.5982   429.5    6.364      34.636
2015    5        6    10  10    4.5977   429.5    6.364      34.634
2015    5        6    10  15    4.5972   429.5    6.364      34.632
2015    5        6    10  21    4.5967   429.4    6.364      34.630
2015    5        6    10  27    4.5961   429.4    6.363      34.628
2015    5        6    10  33    4.5956   429.3    6.363      34.626
2015    5        6    10  38    4.5950   429.3    6.363      34.624
2015    5        6    10  44    4.5945   429.3    6.362      34.622
2015    5        6    10  50    4.5939   429.2    6.362      34.619
2015    5        6    10  55    4.5933   429.2    6.361      34.617
2015    5        6    11   1    4.5927   429.1    6.360      34.614
2015    5        6    11   7    4.5921   429.1    6.359      34.611
2015    5        6    11  12    4.5915   429.1    6.359      34.608
2015    5        6    11  18    4.5908   429.0    6.358      34.604
2015    5        6    11  24    4.5902   429.0    6.357      34.601
2015    5        6    11  30    4.5896   428.9    6.355      34.597
2015    5        6    11  35    4.5889   428.9    6.354      34.593
2015    5        6    11  41    4.5883   428.9    6.353      34.589
2015    5        6    11  47    4.5877   428.8    6.352      34.585
2015    5        6    11  52    4.5870   428.8    6.350      34.581
2015    5        6    11  58    4.5864   428.8    6.349      34.577
2015    5        6    12   4    4.5857   428.7    6.347      34.572
2015    5        6    12  10    4.5851   428.7    6.346      34.568
2015    5        6    12  15    4.5844   428.6    6.344      34.563
2015    5        6    12  21    4.5838   428.6    6.342      34.559
2015    5        6    12  27    4.5832   428.6    6.341      34.554
2015    5        6    12  32    4.5826   428.5    6.339      34.550
2015    5        6    12  38    4.5820   428.5    6.337      34.545
2015    5        6    12  44    4.5814   428.5    6.335      34.540
2015    5        6    12  50    4.5808   428.4    6.333      34.535
2015    5        6    12  55    4.5802   428.4    6.332      34.530
2015    5        6    13   1    4.5796   428.4    6.330      34.525
2015    5        6    13   7    4.5791   428.3    6.328      34.520
2015    5        6    13  12    4.5785   428.3    6.326      34.515
2015    5        6    13  18    4.5780   428.3    6.324      34.510
2015    5        6    13  24    4.5775   428.2    6.322      34.505
2015    5        6    13  29    4.5770   428.2    6.320      34.500
2015    5        6    13  35    4.5766   428.2    6.318      34.495
2015    5        6    13  41    4.5761   428.1    6.316      34.489
2015    5        6    13  47    4.5757   428.1    6.314      34.484
2015    5        6    13  52    4.5753   428.1    6.312      34.479
2015    5        6    13  58    4.5750   428.0    6.310      34.474
2015    5        6    14   4    4.5746   428.0    6.307      34.468
2015    5        6    14   9    4.5743   428.0    6.305      34.463
2015    5        6    14  15    4.5741   428.0    6.303      34.458
2015    5        6    14  21    4.5739   427.9    6.301      34.453
2015    5        6    14  27    4.5736   427.9    6.299      34.448
2015    5        6    14  32    4.5735   427.9    6.297      34.443
2015    5        6    14  38    4.5734   427.8    6.295      34.439
2015    5        6    14  44    4.5733   427.8    6.293      34.434
2015    5        6    14  49    4.5733   427.8    6.291      34.430
2015    5        6    14  55    4.5733   427.7    6.289      34.425
2015    5        6    15   1    4.5734   427.7    6.287      34.421
2015    5        6    15   6    4.5735   427.7    6.285      34.417
2015    5        6    15  12    4.5737   427.7    6.283      34.413
2015    5        6    15  18    4.5739   427.6    6.281      34.410
2015    5        6    15  24    4.5742   427.6    6.279      34.406
2015    5        6    15  29    4.5746   427.6    6.277      34.403
2015    5        6    15  35    4.5750   427.6    6.276      34.400
2015    5        6    15  41    4.5755   427.5    6.274      34.397
2015    5        6    15  46    4.5760   427.5    6.272      34.395
2015    5        6    15  52    4.5766   427.5    6.271      34.392
2015    5        6    15  58    4.5773   427.5    6.269      34.390
2015    5        6    16   4    4.5781   427.4    6.267      34.388
2015    5        6    16   9    4.5789   427.4    6.266      34.387
2015    5        6    16  15    4.5798   427.4    6.265      34.385
2015    5        6    16  21    4.5808   427.4    6.263      34.384
2015    5        6    16  26    4.5819   427.4    6.262      34.383
2015    5        6    16  32    4.5830   427.3    6.261      34.383
2015    5        6    16  38    4.5843   427.3    6.260      34.382
2015    5        6    16  44    4.5856   427.3    6.258      34.382
2015    5        6    16  49    4.5870   427.3    6.257      34.383
2015    5        6    16  55    4.5885   427.3    6.257      34.383
2015    5        6    17   1    4.5901   427.3    6.256      34.384
2015    5        6    17   6    4.5917   427.3    6.255      34.385
2015    5        6    17  12    4.5935   427.2    6.254      34.386
2015    5        6    17  18    4.5953   427.2    6.254      34.388
2015    5        6    17  23    4.5973   427.2    6.253      34.389
2015    5        6    17  29    4.5994   427.2    6.253      34.392
2015    5        6    17  35    4.6015   427.2    6.253      34.394
2015    5        6    17  41    4.6037   427.2    6.252      34.396
2015    5        6    17  46    4.6061   427.2    6.252      34.399
2015    5        6    17  52    4.6085   427.2    6.252      34.402
2015    5        6    17  58    4.6110   427.2    6.252      34.406
2015    5        6    18   3    4.6137   427.1    6.252      34.409
2015    5        6    18   9    4.6164   427.1    6.253      34.413
2015    5        6    18  15    4.6192   427.1    6.253      34.416
2015    5        6    18  21    4.6221   427.1    6.254      34.420
2015    5        6    18  26    4.6251   427.1    6.254      34.425
2015    5        6    18  32    4.6282   427.1    6.255      34.429
2015    5        6    18  38    4.6314   427.1    6.256      34.433
2015    5        6    18  43    4.6347   427.1    6.257      34.438
2015    5        6    18  49    4.6381   427.1    6.258      34.442
2015    5        6    18  55    4.6416   427.1    6.260      34.447
2015    5        6    19   0    4.6452   427.1    6.261      34.451
2015    5        6    19   6    4.6489   427.1    6.263      34.456
2015    5        6    19  12    4.6527   427.1    6.265      34.460
2015    5        6    19  18    4.6566   427.1    6.267      34.465
2015    5        6    19  23    4.6606   427.1    6.269      34.469
2015    5        6    19  29    4.6647   427.1    6.272      34.474
2015    5        6    19  35    4.6689   427.1    6.275      34.478
2015    5        6    19  40    4.6732   427.1    6.278      34.482
2015    5        6    19  46    4.6776   427.2    6.281      34.485
2015    5        6    19  52    4.6820   427.2    6.285      34.489
2015    5        6    19  58    4.6865   427.2    6.289      34.492
2015    5        6    20   3    4.6911   427.2    6.293      34.495
2015    5        6    20   9    4.6957   427.2    6.298      34.499
2015    5        6    20  15    4.7004   427.2    6.302      34.504
2015    5        6    20  20    4.7051   427.2    6.307      34.510
2015    5        6    20  26    4.7098   427.3    6.312      34.517
2015    5        6    20  32    4.7145   427.3    6.317      34.525
2015    5        6    20  37    4.7193   427.3    6.322      34.534
2015    5        6    20  43    4.7240   427.3    6.327      34.544
2015    5        6    20  49    4.7287   427.3    6.332      34.556
2015    5        6    20  55    4.7334   427.4    6.338      34.568
2015    5        6    21   0    4.7381   427.4    6.344      34.581
2015    5        6    21   6    4.7428   427.4    6.350      34.596
2015    5        6    21  12    4.7474   427.4    6.356      34.612
2015    5        6    21  17    4.7520   427.5    6.362      34.629
2015    5        6    21  23    4.7565   427.5    6.368      34.649
2015    5        6    21  29    4.7610   427.5    6.374      34.670
2015    5        6    21  35    4.7654   427.6    6.380      34.694
2015    5        6    21  40    4.7697   427.6    6.386      34.718
2015    5        6    21  46    4.7739   427.6    6.392      34.745
2015    5        6    21  52    4.7779   427.7    6.399      34.772
2015    5        6    21  57    4.7819   427.7    6.406      34.802
2015    5        6    22   3    4.7857   427.8    6.412      34.833
2015    5        6    22   9    4.7894   427.8    6.419      34.867
2015    5        6    22  15    4.7930   427.8    6.425      34.903
2015    5        6    22  20    4.7964   427.9    6.432      34.943
2015    5        6    22  26    4.7996   427.9    6.438      34.986
2015    5        6    22  32    4.8027   428.0    6.443      35.032
2015    5        6    22  37    4.8056   428.0    6.449      35.083
2015    5        6    22  43    4.8083   428.1    6.454      35.137
2015    5        6    22  49    4.8108   428.1    6.459      35.194
2015    5        6    22  54    4.8130   428.2    6.464      35.255
2015    5        6    23   0    4.8151   428.2    6.469      35.318
2015    5        6    23   6    4.8168   428.3    6.473      35.385
2015    5        6    23  12    4.8185   428.3    6.477      35.456
2015    5        6    23  17    4.8198   428.4    6.481      35.532
2015    5        6    23  23    4.8210   428.4    6.484      35.612
2015    5        6    23  29    4.8219   428.5    6.487      35.697
2015    5        6    23  34    4.8226   428.5    6.488      35.788
2015    5        6    23  40    4.8231   428.6    6.490      35.884
2015    5        6    23  46    4.8234   428.7    6.490      35.987
2015    5        6    23  52    4.8235   428.7    6.490      36.095
2015    5        6    23  57    4.8234   428.8    6.489      36.209
2015    5        7     0   3    4.8231   428.8    6.488      36.329
2015    5        7     0   9    4.8225   428.9    6.485      36.455
2015    5        7     0  14    4.8218   429.0    6.482      36.587
2015    5        7     0  20    4.8210   429.0    6.479      36.725
2015    5        7     0  26    4.8199   429.1    6.474      36.869
2015    5        7     0  31    4.8187   429.2    6.469      37.019
2015    5        7     0  37    4.8174   429.2    6.463      37.174
2015    5        7     0  43    4.8159   429.3    6.457      37.334
2015    5        7     0  49    4.8143   429.3    6.450      37.499
2015    5        7     0  54    4.8125   429.4    6.443      37.668
2015    5        7     1   0    4.8107   429.5    6.435      37.841
2015    5        7     1   6    4.8088   429.5    6.426      38.018
2015    5        7     1  11    4.8067   429.6    6.417      38.199
2015    5        7     1  17    4.8046   429.6    6.407      38.383
2015    5        7     1  23    4.8023   429.7    6.397      38.571
2015    5        7     1  29    4.8000   429.8    6.386      38.762
2015    5        7     1  34    4.7975   429.8    6.375      38.956
2015    5        7     1  40    4.7950   429.9    6.363      39.153
2015    5        7     1  46    4.7925   429.9    6.351      39.352
2015    5        7     1  51    4.7898   430.0    6.338      39.553
2015    5        7     1  57    4.7871   430.0    6.325      39.756
2015    5        7     2   3    4.7844   430.1    6.312      39.961
2015    5        7     2   8    4.7817   430.1    6.298      40.168
2015    5        7     2  14    4.7789   430.2    6.284      40.377
2015    5        7     2  20    4.7762   430.2    6.270      40.589
2015    5        7     2  26    4.7734   430.3    6.255      40.804
2015    5        7     2  31    4.7706   430.3    6.240      41.023
2015    5        7     2  37    4.7677   430.4    6.225      41.245
2015    5        7     2  43    4.7649   430.4    6.209      41.470
2015    5        7     2  48    4.7621   430.5    6.193      41.698
2015    5        7     2  54    4.7593   430.5    6.176      41.929
2015    5        7     3   0    4.7564   430.6    6.160      42.163
2015    5        7     3   6    4.7536   430.6    6.143      42.400
2015    5        7     3  11    4.7508   430.6    6.125      42.638
2015    5        7     3  17    4.7479   430.7    6.107      42.878
2015    5        7     3  23    4.7450   430.7    6.089      43.119
2015    5        7     3  28    4.7421   430.8    6.071      43.361
2015    5        7     3  34    4.7392   430.8    6.052      43.604
2015    5        7     3  40    4.7363   430.9    6.032      43.849
2015    5        7     3  45    4.7333   430.9    6.012      44.094
2015    5        7     3  51    4.7303   431.0    5.992      44.339
2015    5        7     3  57    4.7273   431.0    5.971      44.584
2015    5        7     4   3    4.7242   431.1    5.950      44.827
2015    5        7     4   8    4.7211   431.1    5.928      45.070
2015    5        7     4  14    4.7180   431.2    5.906      45.312
2015    5        7     4  20    4.7148   431.2    5.884      45.553
2015    5        7     4  25    4.7116   431.3    5.861      45.794
2015    5        7     4  31    4.7084   431.3    5.837      46.033
2015    5        7     4  37    4.7051   431.3    5.814      46.273
2015    5        7     4  43    4.7018   431.4    5.790      46.511
2015    5        7     4  48    4.6985   431.4    5.765      46.749
2015    5        7     4  54    4.6951   431.5    5.740      46.986
2015    5        7     5   0    4.6918   431.5    5.715      47.222
2015    5        7     5   5    4.6884   431.6    5.690      47.458
2015    5        7     5  11    4.6850   431.6    5.664      47.692
2015    5        7     5  17    4.6817   431.6    5.638      47.926
2015    5        7     5  22    4.6783   431.7    5.612      48.159
2015    5        7     5  28    4.6750   431.7    5.586      48.393
2015    5        7     5  34    4.6716   431.7    5.559      48.626
2015    5        7     5  40    4.6683   431.8    5.532      48.860
2015    5        7     5  45    4.6651   431.8    5.505      49.095
2015    5        7     5  51    4.6618   431.8    5.478      49.331
2015    5        7     5  57    4.6586   431.9    5.450      49.569
2015    5        7     6   2    4.6554   431.9    5.422      49.808
2015    5        7     6   8    4.6522   431.9    5.394      50.049
2015    5        7     6  14    4.6490   432.0    5.365      50.293
2015    5        7     6  20    4.6458   432.0    5.336      50.541
2015    5        7     6  25    4.6427   432.1    5.307      50.793
2015    5        7     6  31    4.6395   432.1    5.278      51.049
2015    5        7     6  37    4.6364   432.1    5.248      51.307
2015    5        7     6  42    4.6333   432.1    5.218      51.570
2015    5        7     6  48    4.6301   432.2    5.189      51.835
2015    5        7     6  54    4.6270   432.2    5.159      52.103
2015    5        7     6  59    4.6239   432.2    5.129      52.373
2015    5        7     7   5    4.6208   432.3    5.099      52.647
2015    5        7     7  11    4.6178   432.3    5.070      52.922
2015    5        7     7  17    4.6148   432.3    5.040      53.198
2015    5        7     7  22    4.6118   432.3    5.011      53.477
2015    5        7     7  28    4.6089   432.4    4.982      53.755
2015    5        7     7  34    4.6061   432.4    4.954      54.034
2015    5        7     7  39    4.6033   432.4    4.926      54.313
2015    5        7     7  45    4.6007   432.4    4.899      54.588
2015    5        7     7  51    4.5981   432.4    4.872      54.862
2015    5        7     7  56    4.5956   432.5    4.846      55.133
2015    5        7     8   2    4.5933   432.5    4.821      55.402
2015    5        7     8   8    4.5910   432.5    4.796      55.669
2015    5        7     8  14    4.5889   432.5    4.772      55.933
2015    5        7     8  19    4.5868   432.6    4.748      56.195
2015    5        7     8  25    4.5850   432.6    4.725      56.454
2015    5        7     8  31    4.5832   432.6    4.703      56.711
2015    5        7     8  36    4.5816   432.6    4.681      56.965
2015    5        7     8  42    4.5801   432.7    4.660      57.217
2015    5        7     8  48    4.5787   432.7    4.639      57.466
2015    5        7     8  54    4.5775   432.7    4.619      57.714
2015    5        7     8  59    4.5764   432.8    4.600      57.961
2015    5        7     9   5    4.5755   432.8    4.581      58.206
2015    5        7     9  11    4.5747   432.8    4.562      58.449
2015    5        7     9  16    4.5741   432.9    4.545      58.692
2015    5        7     9  22    4.5737   432.9    4.527      58.934
2015    5        7     9  28    4.5733   432.9    4.510      59.175
2015    5        7     9  33    4.5732   433.0    4.494      59.415
2015    5        7     9  39    4.5732   433.0    4.479      59.655
2015    5        7     9  45    4.5735   433.0    4.463      59.894
2015    5        7     9  51    4.5738   433.1    4.449      60.132
2015    5        7     9  56    4.5744   433.1    4.435      60.370
2015    5        7    10   2    4.5751   433.2    4.421      60.608
2015    5        7    10   8    4.5761   433.2    4.409      60.845
2015    5        7    10  13    4.5772   433.3    4.396      61.081
2015    5        7    10  19    4.5786   433.4    4.385      61.317
2015    5        7    10  25    4.5801   433.4    4.373      61.552
2015    5        7    10  31    4.5819   433.5    4.363      61.786
2015    5        7    10  36    4.5839   433.5    4.353      62.019
2015    5        7    10  42    4.5861   433.6    4.343      62.251
2015    5        7    10  48    4.5886   433.7    4.334      62.482
2015    5        7    10  53    4.5914   433.7    4.326      62.712
2015    5        7    10  59    4.5944   433.8    4.318      62.940
2015    5        7    11   5    4.5978   433.9    4.311      63.167
2015    5        7    11  10    4.6015   434.0    4.304      63.393
2015    5        7    11  16    4.6055   434.0    4.298      63.617
2015    5        7    11  22    4.6097   434.1    4.292      63.840
2015    5        7    11  28    4.6142   434.2    4.287      64.063
2015    5        7    11  33    4.6188   434.3    4.282      64.283
2015    5        7    11  39    4.6236   434.3    4.278      64.503
2015    5        7    11  45    4.6284   434.4    4.274      64.722
2015    5        7    11  50    4.6335   434.5    4.270      64.940
2015    5        7    11  56    4.6385   434.5    4.267      65.159
2015    5        7    12   2    4.6437   434.6    4.264      65.376
2015    5        7    12   8    4.6489   434.7    4.262      65.594
2015    5        7    12  13    4.6541   434.7    4.260      65.811
2015    5        7    12  19    4.6593   434.8    4.259      66.027
2015    5        7    12  25    4.6644   434.8    4.257      66.244
2015    5        7    12  30    4.6695   434.9    4.256      66.460
2015    5        7    12  36    4.6744   435.0    4.256      66.675
2015    5        7    12  42    4.6792   435.0    4.256      66.889
2015    5        7    12  47    4.6838   435.1    4.256      67.102
2015    5        7    12  53    4.6882   435.2    4.257      67.314
2015    5        7    12  59    4.6924   435.2    4.257      67.525
2015    5        7    13   5    4.6964   435.3    4.259      67.733
2015    5        7    13  10    4.7002   435.4    4.260      67.939
2015    5        7    13  16    4.7038   435.4    4.261      68.142
2015    5        7    13  22    4.7071   435.5    4.263      68.341
2015    5        7    13  27    4.7103   435.5    4.265      68.538
2015    5        7    13  33    4.7133   435.6    4.268      68.731
2015    5        7    13  39    4.7160   435.6    4.270      68.921
2015    5        7    13  45    4.7186   435.6    4.273      69.107
2015    5        7    13  50    4.7210   435.7    4.276      69.290
2015    5        7    13  56    4.7232   435.7    4.278      69.469
2015    5        7    14   2    4.7252   435.7    4.281      69.645
2015    5        7    14   7    4.7270   435.7    4.285      69.817
2015    5        7    14  13    4.7285   435.7    4.288      69.984
2015    5        7    14  19    4.7298   435.7    4.291      70.147
2015    5        7    14  24    4.7310   435.7    4.295      70.305
2015    5        7    14  30    4.7318   435.7    4.298      70.459
2015    5        7    14  36    4.7325   435.7    4.302      70.608
2015    5        7    14  42    4.7329   435.7    4.306      70.752
2015    5        7    14  47    4.7331   435.6    4.310      70.892
2015    5        7    14  53    4.7330   435.6    4.314      71.026
2015    5        7    14  59    4.7328   435.6    4.318      71.156
2015    5        7    15   4    4.7322   435.5    4.322      71.281
2015    5        7    15  10    4.7315   435.5    4.326      71.401
2015    5        7    15  16    4.7305   435.4    4.330      71.517
2015    5        7    15  22    4.7293   435.4    4.335      71.628
2015    5        7    15  27    4.7278   435.3    4.339      71.735
2015    5        7    15  33    4.7261   435.2    4.344      71.838
2015    5        7    15  39    4.7241   435.2    4.349      71.937
2015    5        7    15  44    4.7220   435.1    4.354      72.031
2015    5        7    15  50    4.7197   435.0    4.359      72.122
2015    5        7    15  56    4.7171   434.9    4.364      72.210
2015    5        7    16   1    4.7143   434.8    4.369      72.293
2015    5        7    16   7    4.7114   434.8    4.374      72.374
2015    5        7    16  13    4.7082   434.7    4.380      72.451
2015    5        7    16  19    4.7049   434.6    4.385      72.526
2015    5        7    16  24    4.7013   434.5    4.391      72.598
2015    5        7    16  30    4.6976   434.4    4.396      72.667
2015    5        7    16  36    4.6936   434.3    4.402      72.734
2015    5        7    16  41    4.6895   434.2    4.408      72.799
2015    5        7    16  47    4.6852   434.0    4.414      72.862
2015    5        7    16  53    4.6808   433.9    4.420      72.923
2015    5        7    16  58    4.6761   433.8    4.426      72.983
2015    5        7    17   4    4.6714   433.7    4.433      73.040
2015    5        7    17  10    4.6664   433.6    4.439      73.097
2015    5        7    17  16    4.6614   433.5    4.445      73.152
2015    5        7    17  21    4.6561   433.3    4.452      73.206
2015    5        7    17  27    4.6508   433.2    4.458      73.259
2015    5        7    17  33    4.6453   433.1    4.465      73.311
2015    5        7    17  38    4.6397   433.0    4.471      73.363
2015    5        7    17  44    4.6340   432.8    4.478      73.413
2015    5        7    17  50    4.6282   432.7    4.485      73.463
2015    5        7    17  56    4.6223   432.6    4.492      73.513
2015    5        7    18   1    4.6164   432.4    4.498      73.561
2015    5        7    18   7    4.6103   432.3    4.505      73.609
2015    5        7    18  13    4.6043   432.2    4.512      73.657
2015    5        7    18  18    4.5981   432.0    4.519      73.704
2015    5        7    18  24    4.5920   431.9    4.526      73.750
2015    5        7    18  30    4.5858   431.8    4.532      73.796
2015    5        7    18  35    4.5796   431.6    4.539      73.842
2015    5        7    18  41    4.5734   431.5    4.546      73.888
2015    5        7    18  47    4.5673   431.3    4.553      73.933
2015    5        7    18  53    4.5611   431.2    4.560      73.979
2015    5        7    18  58    4.5549   431.0    4.567      74.024
2015    5        7    19   4    4.5488   430.9    4.574      74.069
2015    5        7    19  10    4.5427   430.8    4.580      74.114
2015    5        7    19  15    4.5366   430.6    4.587      74.159
2015    5        7    19  21    4.5306   430.5    4.594      74.203
2015    5        7    19  27    4.5246   430.3    4.601      74.248
2015    5        7    19  33    4.5187   430.2    4.608      74.292
2015    5        7    19  38    4.5128   430.0    4.614      74.336
2015    5        7    19  44    4.5070   429.9    4.621      74.380
2015    5        7    19  50    4.5012   429.7    4.628      74.423
2015    5        7    19  55    4.4955   429.6    4.634      74.466
2015    5        7    20   1    4.4899   429.4    4.641      74.508
2015    5        7    20   7    4.4843   429.3    4.648      74.549
2015    5        7    20  12    4.4788   429.1    4.654      74.590
2015    5        7    20  18    4.4734   429.0    4.661      74.630
2015    5        7    20  24    4.4680   428.8    4.667      74.669
2015    5        7    20  30    4.4627   428.7    4.674      74.707
2015    5        7    20  35    4.4575   428.5    4.680      74.744
2015    5        7    20  41    4.4524   428.4    4.687      74.779
2015    5        7    20  47    4.4473   428.2    4.693      74.814
2015    5        7    20  52    4.4424   428.1    4.700      74.847
2015    5        7    20  58    4.4375   427.9    4.706      74.879
2015    5        7    21   4    4.4326   427.8    4.713      74.910
2015    5        7    21   9    4.4279   427.6    4.720      74.939
2015    5        7    21  15    4.4233   427.4    4.726      74.967
2015    5        7    21  21    4.4187   427.3    4.733      74.993
2015    5        7    21  27    4.4142   427.1    4.739      75.017
2015    5        7    21  32    4.4097   427.0    4.746      75.040
2015    5        7    21  38    4.4054   426.8    4.753      75.061
2015    5        7    21  44    4.4011   426.6    4.760      75.080
2015    5        7    21  49    4.3969   426.5    4.766      75.098
2015    5        7    21  55    4.3928   426.3    4.773      75.114
2015    5        7    22   1    4.3887   426.2    4.781      75.128
2015    5        7    22   7    4.3848   426.0    4.788      75.141
2015    5        7    22  12    4.3808   425.9    4.795      75.152
2015    5        7    22  18    4.3770   425.7    4.802      75.161
2015    5        7    22  24    4.3732   425.5    4.810      75.168
2015    5        7    22  29    4.3695   425.4    4.818      75.174
2015    5        7    22  35    4.3659   425.2    4.826      75.178
2015    5        7    22  41    4.3623   425.1    4.834      75.181
2015    5        7    22  46    4.3588   424.9    4.842      75.182
2015    5        7    22  52    4.3554   424.7    4.851      75.182
2015    5        7    22  58    4.3520   424.6    4.859      75.180
2015    5        7    23   4    4.3487   424.4    4.868      75.177
2015    5        7    23   9    4.3455   424.3    4.877      75.173
2015    5        7    23  15    4.3424   424.1    4.887      75.167
2015    5        7    23  21    4.3393   423.9    4.897      75.159
2015    5        7    23  26    4.3363   423.8    4.907      75.151
2015    5        7    23  32    4.3333   423.6    4.917      75.141
2015    5        7    23  38    4.3305   423.5    4.928      75.131
2015    5        7    23  44    4.3277   423.3    4.939      75.119
2015    5        7    23  49    4.3249   423.2    4.950      75.106
2015    5        7    23  55    4.3223   423.0    4.962      75.091
2015    5        8     0   1    4.3197   422.9    4.974      75.076
2015    5        8     0   6    4.3172   422.7    4.986      75.059
2015    5        8     0  12    4.3148   422.6    4.999      75.042
2015    5        8     0  18    4.3125   422.5    5.012      75.023
2015    5        8     0  23    4.3102   422.3    5.026      75.003
2015    5        8     0  29    4.3081   422.2    5.040      74.982
2015    5        8     0  35    4.3060   422.0    5.054      74.960
2015    5        8     0  41    4.3040   421.9    5.069      74.936
2015    5        8     0  46    4.3021   421.8    5.084      74.911
2015    5        8     0  52    4.3003   421.6    5.100      74.885
2015    5        8     0  58    4.2986   421.5    5.116      74.857
2015    5        8     1   3    4.2970   421.4    5.133      74.827
2015    5        8     1   9    4.2954   421.2    5.150      74.796
2015    5        8     1  15    4.2940   421.1    5.167      74.763
2015    5        8     1  20    4.2927   421.0    5.185      74.729
2015    5        8     1  26    4.2914   420.9    5.204      74.693
2015    5        8     1  32    4.2903   420.7    5.223      74.654
2015    5        8     1  38    4.2892   420.6    5.242      74.614
2015    5        8     1  43    4.2882   420.5    5.262      74.572
2015    5        8     1  49    4.2873   420.4    5.282      74.527
2015    5        8     1  55    4.2864   420.3    5.303      74.481
2015    5        8     2   0    4.2857   420.1    5.324      74.431
2015    5        8     2   6    4.2850   420.0    5.345      74.380
2015    5        8     2  12    4.2844   419.9    5.367      74.326
2015    5        8     2  18    4.2839   419.8    5.389      74.269
2015    5        8     2  23    4.2834   419.7    5.412      74.210
2015    5        8     2  29    4.2830   419.6    5.435      74.147
2015    5        8     2  35    4.2827   419.4    5.459      74.082
2015    5        8     2  40    4.2824   419.3    5.483      74.015
2015    5        8     2  46    4.2821   419.2    5.507      73.944
2015    5        8     2  52    4.2819   419.1    5.532      73.870
2015    5        8     2  57    4.2818   419.0    5.557      73.793
2015    5        8     3   3    4.2817   418.9    5.583      73.713
2015    5        8     3   9    4.2816   418.8    5.609      73.630
2015    5        8     3  15    4.2816   418.6    5.635      73.543
2015    5        8     3  20    4.2816   418.5    5.662      73.454
2015    5        8     3  26    4.2817   418.4    5.689      73.361
2015    5        8     3  32    4.2818   418.3    5.716      73.266
2015    5        8     3  37    4.2819   418.2    5.744      73.167
2015    5        8     3  43    4.2820   418.0    5.772      73.065
2015    5        8     3  49    4.2822   417.9    5.800      72.960
2015    5        8     3  54    4.2824   417.8    5.829      72.852
2015    5        8     4   0    4.2826   417.7    5.858      72.741
2015    5        8     4   6    4.2829   417.6    5.888      72.627
2015    5        8     4  12    4.2832   417.4    5.917      72.511
2015    5        8     4  17    4.2835   417.3    5.948      72.392
2015    5        8     4  23    4.2839   417.2    5.978      72.270
2015    5        8     4  29    4.2843   417.1    6.009      72.145
2015    5        8     4  34    4.2847   416.9    6.040      72.019
2015    5        8     4  40    4.2851   416.8    6.072      71.890
2015    5        8     4  46    4.2856   416.7    6.104      71.759
2015    5        8     4  52    4.2861   416.5    6.136      71.626
2015    5        8     4  57    4.2867   416.4    6.169      71.491
2015    5        8     5   3    4.2873   416.3    6.202      71.355
2015    5        8     5   9    4.2879   416.1    6.235      71.217
2015    5        8     5  14    4.2886   416.0    6.269      71.078
2015    5        8     5  20    4.2893   415.9    6.303      70.938
2015    5        8     5  26    4.2900   415.7    6.338      70.796
2015    5        8     5  31    4.2909   415.6    6.373      70.654
2015    5        8     5  37    4.2917   415.5    6.409      70.512
2015    5        8     5  43    4.2926   415.3    6.444      70.369
2015    5        8     5  49    4.2936   415.2    6.481      70.226
2015    5        8     5  54    4.2946   415.1    6.518      70.083
2015    5        8     6   0    4.2957   414.9    6.555      69.939
2015    5        8     6   6    4.2969   414.8    6.593      69.796
2015    5        8     6  11    4.2981   414.7    6.631      69.654
2015    5        8     6  17    4.2994   414.6    6.669      69.511
2015    5        8     6  23    4.3007   414.4    6.708      69.369
2015    5        8     6  29    4.3021   414.3    6.748      69.228
2015    5        8     6  34    4.3036   414.2    6.788      69.088
2015    5        8     6  40    4.3051   414.0    6.828      68.948
2015    5        8     6  46    4.3067   413.9    6.869      68.809
2015    5        8     6  51    4.3084   413.8    6.911      68.671
2015    5        8     6  57    4.3101   413.7    6.953      68.535
2015    5        8     7   3    4.3119   413.5    6.995      68.399
2015    5        8     7   8    4.3137   413.4    7.038      68.265
2015    5        8     7  14    4.3157   413.3    7.081      68.132
2015    5        8     7  20    4.3176   413.2    7.125      68.001
2015    5        8     7  26    4.3197   413.0    7.169      67.871
2015    5        8     7  31    4.3218   412.9    7.213      67.743
2015    5        8     7  37    4.3240   412.8    7.258      67.616
2015    5        8     7  43    4.3262   412.7    7.304      67.491
2015    5        8     7  48    4.3285   412.5    7.350      67.368
2015    5        8     7  54    4.3309   412.4    7.396      67.246
2015    5        8     8   0    4.3333   412.3    7.443      67.127
2015    5        8     8   5    4.3358   412.2    7.490      67.009
2015    5        8     8  11    4.3383   412.1    7.538      66.893
2015    5        8     8  17    4.3409   412.0    7.586      66.779
2015    5        8     8  23    4.3436   411.8    7.634      66.668
2015    5        8     8  28    4.3463   411.7    7.683      66.558
2015    5        8     8  34    4.3491   411.6    7.732      66.451
2015    5        8     8  40    4.3519   411.5    7.781      66.345
2015    5        8     8  45    4.3548   411.4    7.831      66.242
2015    5        8     8  51    4.3578   411.3    7.881      66.142
2015    5        8     8  57    4.3608   411.1    7.932      66.043
2015    5        8     9   3    4.3639   411.0    7.983      65.947
2015    5        8     9   8    4.3670   410.9    8.034      65.853
2015    5        8     9  14    4.3703   410.8    8.085      65.762
2015    5        8     9  20    4.3736   410.7    8.137      65.674
2015    5        8     9  25    4.3769   410.6    8.189      65.587
2015    5        8     9  31    4.3804   410.4    8.241      65.504
2015    5        8     9  37    4.3840   410.3    8.294      65.423
2015    5        8     9  42    4.3876   410.2    8.346      65.345
2015    5        8     9  48    4.3914   410.1    8.400      65.269
2015    5        8     9  54    4.3952   410.0    8.453      65.197
2015    5        8    10   0    4.3992   409.8    8.506      65.127
2015    5        8    10   5    4.4033   409.7    8.560      65.060
2015    5        8    10  11    4.4076   409.6    8.614      64.998
2015    5        8    10  17    4.4120   409.4    8.668      64.940
2015    5        8    10  22    4.4166   409.3    8.722      64.887
2015    5        8    10  28    4.4214   409.2    8.777      64.838
2015    5        8    10  34    4.4264   409.0    8.831      64.792
2015    5        8    10  39    4.4317   408.9    8.886      64.750
2015    5        8    10  45    4.4372   408.7    8.941      64.712
2015    5        8    10  51    4.4431   408.6    8.996      64.677
2015    5        8    10  57    4.4493   408.4    9.051      64.647
2015    5        8    11   2    4.4558   408.3    9.105      64.624
2015    5        8    11   8    4.4627   408.1    9.160      64.607
2015    5        8    11  14    4.4701   408.0    9.214      64.597
2015    5        8    11  19    4.4779   407.8    9.267      64.591
2015    5        8    11  25    4.4862   407.7    9.320      64.591
2015    5        8    11  31    4.4949   407.6    9.372      64.595
2015    5        8    11  37    4.5043   407.4    9.423      64.602
2015    5        8    11  42    4.5141   407.3    9.473      64.610
2015    5        8    11  48    4.5246   407.2    9.523      64.617
2015    5        8    11  54    4.5357   407.0    9.571      64.621
2015    5        8    11  59    4.5475   406.9    9.619      64.622
2015    5        8    12   5    4.5599   406.8    9.665      64.620
2015    5        8    12  11    4.5731   406.7    9.711      64.615
2015    5        8    12  16    4.5869   406.5    9.755      64.607
2015    5        8    12  22    4.6014   406.4    9.799      64.596
2015    5        8    12  28    4.6167   406.3    9.841      64.581
2015    5        8    12  34    4.6327   406.2    9.882      64.562
2015    5        8    12  39    4.6494   406.1    9.921      64.539
2015    5        8    12  45    4.6670   406.0    9.960      64.512
2015    5        8    12  51    4.6852   405.9    9.997      64.481
2015    5        8    12  56    4.7044   405.9   10.033      64.445
2015    5        8    13   2    4.7242   405.8   10.068      64.406
2015    5        8    13   8    4.7448   405.7   10.102      64.362
2015    5        8    13  13    4.7660   405.6   10.134      64.315
2015    5        8    13  19    4.7880   405.6   10.165      64.264
2015    5        8    13  25    4.8105   405.5   10.195      64.210
2015    5        8    13  31    4.8336   405.4   10.223      64.151
2015    5        8    13  36    4.8571   405.4   10.250      64.089
2015    5        8    13  42    4.8811   405.3   10.276      64.024
2015    5        8    13  48    4.9055   405.3   10.301      63.955
2015    5        8    13  53    4.9305   405.3   10.324      63.883
2015    5        8    13  59    4.9558   405.2   10.346      63.808
2015    5        8    14   5    4.9817   405.2   10.367      63.730
2015    5        8    14  11    5.0078   405.2   10.387      63.650
2015    5        8    14  16    5.0343   405.1   10.405      63.566
2015    5        8    14  22    5.0609   405.1   10.422      63.479
2015    5        8    14  28    5.0878   405.1   10.438      63.390
2015    5        8    14  33    5.1146   405.1   10.453      63.299
2015    5        8    14  39    5.1415   405.1   10.466      63.206
2015    5        8    14  45    5.1683   405.1   10.479      63.110
2015    5        8    14  50    5.1951   405.1   10.490      63.013
2015    5        8    14  56    5.2216   405.1   10.500      62.914
2015    5        8    15   2    5.2481   405.1   10.509      62.813
2015    5        8    15   8    5.2744   405.1   10.517      62.710
2015    5        8    15  13    5.3006   405.1   10.524      62.606
2015    5        8    15  19    5.3266   405.2   10.530      62.501
2015    5        8    15  25    5.3526   405.2   10.535      62.395
2015    5        8    15  30    5.3783   405.3   10.538      62.288
2015    5        8    15  36    5.4040   405.3   10.541      62.180
2015    5        8    15  42    5.4293   405.3   10.543      62.072
2015    5        8    15  47    5.4546   405.4   10.543      61.963
2015    5        8    15  53    5.4797   405.5   10.543      61.855
2015    5        8    15  59    5.5047   405.5   10.542      61.746
2015    5        8    16   5    5.5294   405.6   10.540      61.638
2015    5        8    16  10    5.5541   405.7   10.538      61.528
2015    5        8    16  16    5.5785   405.7   10.534      61.419
2015    5        8    16  22    5.6028   405.8   10.530      61.308
2015    5        8    16  27    5.6268   405.9   10.524      61.197
2015    5        8    16  33    5.6508   406.0   10.519      61.085
2015    5        8    16  39    5.6744   406.1   10.512      60.971
2015    5        8    16  45    5.6979   406.2   10.505      60.857
2015    5        8    16  50    5.7210   406.3   10.497      60.740
2015    5        8    16  56    5.7440   406.4   10.488      60.621
2015    5        8    17   2    5.7667   406.5   10.479      60.502
2015    5        8    17   7    5.7892   406.6   10.469      60.380
2015    5        8    17  13    5.8113   406.7   10.459      60.256
2015    5        8    17  19    5.8332   406.8   10.448      60.130
2015    5        8    17  24    5.8547   407.0   10.437      60.002
2015    5        8    17  30    5.8759   407.1   10.425      59.871
2015    5        8    17  36    5.8967   407.2   10.413      59.736
2015    5        8    17  42    5.9172   407.3   10.400      59.598
2015    5        8    17  47    5.9373   407.5   10.387      59.455
2015    5        8    17  53    5.9570   407.6   10.374      59.306
2015    5        8    17  59    5.9762   407.7   10.360      59.152
2015    5        8    18   4    5.9951   407.9   10.346      58.992
2015    5        8    18  10    6.0134   408.0   10.332      58.828
2015    5        8    18  16    6.0314   408.2   10.317      58.658
2015    5        8    18  21    6.0488   408.3   10.302      58.484
2015    5        8    18  27    6.0658   408.4   10.287      58.305
2015    5        8    18  33    6.0822   408.6   10.272      58.123
2015    5        8    18  39    6.0981   408.8   10.256      57.937
2015    5        8    18  44    6.1135   408.9   10.240      57.748
2015    5        8    18  50    6.1284   409.1   10.224      57.556
2015    5        8    18  56    6.1427   409.2   10.208      57.359
2015    5        8    19   1    6.1566   409.4   10.192      57.159
2015    5        8    19   7    6.1699   409.6   10.175      56.955
2015    5        8    19  13    6.1827   409.7   10.159      56.748
2015    5        8    19  19    6.1949   409.9   10.142      56.539
2015    5        8    19  24    6.2067   410.1   10.125      56.326
2015    5        8    19  30    6.2179   410.2   10.108      56.113
2015    5        8    19  36    6.2286   410.4   10.091      55.899
2015    5        8    19  41    6.2388   410.6   10.074      55.686
2015    5        8    19  47    6.2486   410.8   10.056      55.475
2015    5        8    19  53    6.2578   410.9   10.039      55.267
2015    5        8    19  58    6.2666   411.1   10.021      55.063
2015    5        8    20   4    6.2748   411.3   10.004      54.862
2015    5        8    20  10    6.2827   411.5    9.986      54.667
2015    5        8    20  16    6.2901   411.7    9.968      54.478
2015    5        8    20  21    6.2972   411.9    9.949      54.294
2015    5        8    20  27    6.3037   412.1    9.931      54.115
2015    5        8    20  33    6.3099   412.3    9.912      53.943
2015    5        8    20  38    6.3157   412.6    9.892      53.776
2015    5        8    20  44    6.3212   412.8    9.873      53.615
2015    5        8    20  50    6.3263   413.1    9.852      53.459
2015    5        8    20  55    6.3310   413.3    9.832      53.307
2015    5        8    21   1    6.3353   413.6    9.810      53.162
2015    5        8    21   7    6.3392   413.9    9.788      53.020
2015    5        8    21  13    6.3424   414.2    9.765      52.882
2015    5        8    21  18    6.3451   414.4    9.742      52.748
2015    5        8    21  24    6.3471   414.7    9.717      52.615
2015    5        8    21  30    6.3484   415.0    9.691      52.483
2015    5        8    21  35    6.3489   415.4    9.663      52.353
2015    5        8    21  41    6.3486   415.7    9.634      52.224
2015    5        8    21  47    6.3474   416.0    9.603      52.097
2015    5        8    21  53    6.3454   416.3    9.572      51.971
2015    5        8    21  58    6.3423   416.6    9.539      51.846
2015    5        8    22   4    6.3383   416.9    9.506      51.725
2015    5        8    22  10    6.3335   417.3    9.472      51.606
2015    5        8    22  15    6.3280   417.6    9.437      51.491
2015    5        8    22  21    6.3219   417.9    9.403      51.381
2015    5        8    22  27    6.3153   418.2    9.369      51.275
2015    5        8    22  32    6.3084   418.6    9.335      51.173
2015    5        8    22  38    6.3012   418.9    9.301      51.075
2015    5        8    22  44    6.2938   419.3    9.268      50.981
2015    5        8    22  50    6.2862   419.7    9.234      50.891
2015    5        8    22  55    6.2786   420.1    9.200      50.804
2015    5        8    23   1    6.2706   420.5    9.165      50.717
2015    5        8    23   7    6.2623   420.9    9.130      50.631
2015    5        8    23  12    6.2535   421.3    9.093      50.548
2015    5        8    23  18    6.2442   421.7    9.056      50.467
2015    5        8    23  24    6.2343   422.2    9.018      50.386
2015    5        8    23  29    6.2238   422.6    8.979      50.306
2015    5        8    23  35    6.2125   423.0    8.940      50.226
2015    5        8    23  41    6.2004   423.4    8.901      50.147
2015    5        8    23  47    6.1874   423.8    8.861      50.069
2015    5        8    23  52    6.1738   424.2    8.822      49.993
2015    5        8    23  58    6.1596   424.5    8.784      49.919
2015    5        9     0   4    6.1451   424.9    8.746      49.843
2015    5        9     0   9    6.1303   425.2    8.709      49.769
2015    5        9     0  15    6.1154   425.5    8.674      49.697
2015    5        9     0  21    6.1003   425.8    8.639      49.626
2015    5        9     0  27    6.0856   426.2    8.605      49.556
2015    5        9     0  32    6.0712   426.5    8.573      49.487
2015    5        9     0  38    6.0574   426.8    8.541      49.419
2015    5        9     0  44    6.0439   427.1    8.510      49.353
2015    5        9     0  49    6.0310   427.4    8.480      49.288
2015    5        9     0  55    6.0184   427.7    8.451      49.224
2015    5        9     1   1    6.0063   427.9    8.423      49.162
2015    5        9     1   6    5.9945   428.2    8.396      49.101
2015    5        9     1  12    5.9832   428.4    8.369      49.041
2015    5        9     1  18    5.9722   428.7    8.344      48.982
2015    5        9     1  24    5.9617   428.9    8.320      48.925
2015    5        9     1  29    5.9517   429.2    8.296      48.870
2015    5        9     1  35    5.9421   429.4    8.273      48.817
2015    5        9     1  41    5.9329   429.6    8.251      48.765
2015    5        9     1  46    5.9241   429.8    8.230      48.715
2015    5        9     1  52    5.9157   430.0    8.210      48.666
2015    5        9     1  58    5.9077   430.2    8.191      48.620
2015    5        9     2   3    5.9000   430.4    8.172      48.575
2015    5        9     2   9    5.8927   430.6    8.154      48.533
2015    5        9     2  15    5.8857   430.8    8.136      48.493
2015    5        9     2  21    5.8790   431.0    8.120      48.456
2015    5        9     2  26    5.8726   431.2    8.104      48.421
2015    5        9     2  32    5.8666   431.4    8.089      48.388
2015    5        9     2  38    5.8607   431.7    8.074      48.358
2015    5        9     2  43    5.8552   431.9    8.060      48.330
2015    5        9     2  49    5.8500   432.1    8.046      48.303
2015    5        9     2  55    5.8451   432.3    8.033      48.278
2015    5        9     3   1    5.8403   432.5    8.020      48.253
2015    5        9     3   6    5.8358   432.7    8.008      48.229
2015    5        9     3  12    5.8315   432.9    7.996      48.207
2015    5        9     3  18    5.8274   433.1    7.985      48.184
2015    5        9     3  23    5.8235   433.3    7.973      48.163
2015    5        9     3  29    5.8197   433.5    7.962      48.142
2015    5        9     3  35    5.8160   433.8    7.951      48.122
2015    5        9     3  40    5.8124   434.0    7.941      48.104
2015    5        9     3  46    5.8089   434.2    7.930      48.087
2015    5        9     3  52    5.8056   434.4    7.920      48.072
2015    5        9     3  58    5.8023   434.7    7.909      48.058
2015    5        9     4   3    5.7992   434.9    7.899      48.046
2015    5        9     4   9    5.7961   435.2    7.888      48.034
2015    5        9     4  15    5.7931   435.4    7.878      48.022
2015    5        9     4  20    5.7902   435.7    7.867      48.011
2015    5        9     4  26    5.7874   436.0    7.857      47.999
2015    5        9     4  32    5.7846   436.3    7.846      47.987
2015    5        9     4  37    5.7819   436.5    7.835      47.974
2015    5        9     4  43    5.7792   436.8    7.824      47.958
2015    5        9     4  49    5.7765   437.1    7.813      47.942
2015    5        9     4  55    5.7740   437.3    7.802      47.926
2015    5        9     5   0    5.7714   437.6    7.791      47.909
2015    5        9     5   6    5.7690   437.8    7.779      47.892
2015    5        9     5  12    5.7667   438.1    7.768      47.875
2015    5        9     5  17    5.7645   438.3    7.756      47.858
2015    5        9     5  23    5.7623   438.6    7.745      47.840
2015    5        9     5  29    5.7603   438.8    7.734      47.823
2015    5        9     5  35    5.7585   439.0    7.723      47.806
2015    5        9     5  40    5.7568   439.3    7.712      47.789
2015    5        9     5  46    5.7552   439.5    7.701      47.773
2015    5        9     5  52    5.7538   439.7    7.691      47.756
2015    5        9     5  57    5.7525   439.9    7.681      47.741
2015    5        9     6   3    5.7513   440.1    7.671      47.727
2015    5        9     6   9    5.7502   440.3    7.661      47.714
2015    5        9     6  14    5.7493   440.5    7.652      47.704
2015    5        9     6  20    5.7485   440.7    7.642      47.696
2015    5        9     6  26    5.7477   440.9    7.634      47.690
2015    5        9     6  32    5.7471   441.2    7.625      47.687
2015    5        9     6  37    5.7466   441.4    7.617      47.687
2015    5        9     6  43    5.7461   441.6    7.609      47.689
2015    5        9     6  49    5.7457   441.8    7.602      47.694
2015    5        9     6  54    5.7454   442.1    7.595      47.702
2015    5        9     7   0    5.7452   442.3    7.589      47.712
2015    5        9     7   6    5.7451   442.5    7.583      47.725
2015    5        9     7  11    5.7451   442.7    7.577      47.740
2015    5        9     7  17    5.7451   442.9    7.572      47.757
2015    5        9     7  23    5.7453   443.1    7.567      47.777
2015    5        9     7  29    5.7455   443.4    7.562      47.799
2015    5        9     7  34    5.7459   443.6    7.558      47.823
2015    5        9     7  40    5.7465   443.8    7.554      47.849
2015    5        9     7  46    5.7472   444.0    7.550      47.877
2015    5        9     7  51    5.7480   444.2    7.547      47.907
2015    5        9     7  57    5.7489   444.4    7.544      47.938
2015    5        9     8   3    5.7500   444.6    7.541      47.970
2015    5        9     8   9    5.7512   444.7    7.538      48.003
2015    5        9     8  14    5.7526   444.9    7.535      48.037
2015    5        9     8  20    5.7542   445.1    7.532      48.071
2015    5        9     8  26    5.7558   445.3    7.530      48.106
2015    5        9     8  31    5.7575   445.4    7.528      48.142
2015    5        9     8  37    5.7593   445.6    7.526      48.178
2015    5        9     8  43    5.7611   445.8    7.524      48.215
2015    5        9     8  48    5.7630   445.9    7.522      48.253
2015    5        9     8  54    5.7649   446.1    7.521      48.292
2015    5        9     9   0    5.7669   446.2    7.520      48.332
2015    5        9     9   6    5.7689   446.4    7.520      48.373
2015    5        9     9  11    5.7710   446.5    7.519      48.415
2015    5        9     9  17    5.7732   446.7    7.519      48.458
2015    5        9     9  23    5.7755   446.8    7.520      48.503
2015    5        9     9  28    5.7779   446.9    7.521      48.549
2015    5        9     9  34    5.7805   447.1    7.522      48.597
2015    5        9     9  40    5.7832   447.2    7.524      48.646
2015    5        9     9  45    5.7859   447.3    7.525      48.695
2015    5        9     9  51    5.7889   447.4    7.527      48.745
2015    5        9     9  57    5.7920   447.6    7.528      48.795
2015    5        9    10   3    5.7952   447.7    7.530      48.845
2015    5        9    10   8    5.7987   447.8    7.532      48.894
2015    5        9    10  14    5.8022   448.0    7.533      48.942
2015    5        9    10  20    5.8058   448.1    7.534      48.989
2015    5        9    10  25    5.8094   448.2    7.535      49.035
2015    5        9    10  31    5.8131   448.4    7.535      49.080
2015    5        9    10  37    5.8169   448.5    7.536      49.123
2015    5        9    10  43    5.8206   448.6    7.536      49.165
2015    5        9    10  48    5.8243   448.8    7.536      49.206
2015    5        9    10  54    5.8278   448.9    7.535      49.246
2015    5        9    11   0    5.8313   449.0    7.535      49.285
2015    5        9    11   5    5.8348   449.2    7.534      49.323
2015    5        9    11  11    5.8381   449.3    7.534      49.360
2015    5        9    11  17    5.8414   449.5    7.533      49.396
2015    5        9    11  22    5.8446   449.6    7.531      49.431
2015    5        9    11  28    5.8478   449.7    7.530      49.465
2015    5        9    11  34    5.8509   449.9    7.529      49.499
2015    5        9    11  40    5.8540   450.0    7.527      49.532
2015    5        9    11  45    5.8570   450.2    7.526      49.563
2015    5        9    11  51    5.8599   450.3    7.524      49.595
2015    5        9    11  57    5.8628   450.4    7.522      49.626
2015    5        9    12   2    5.8656   450.6    7.520      49.656
2015    5        9    12   8    5.8684   450.7    7.519      49.686
2015    5        9    12  14    5.8712   450.9    7.517      49.715
2015    5        9    12  19    5.8739   451.0    7.515      49.745
2015    5        9    12  25    5.8765   451.2    7.513      49.773
2015    5        9    12  31    5.8792   451.3    7.511      49.802
2015    5        9    12  37    5.8819   451.4    7.510      49.830
2015    5        9    12  42    5.8845   451.6    7.508      49.858
2015    5        9    12  48    5.8871   451.7    7.507      49.887
2015    5        9    12  54    5.8896   451.9    7.505      49.915
2015    5        9    12  59    5.8922   452.0    7.504      49.943
2015    5        9    13   5    5.8948   452.2    7.502      49.971
2015    5        9    13  11    5.8974   452.3    7.501      50.000
2015    5        9    13  16    5.8999   452.4    7.500      50.028
2015    5        9    13  22    5.9025   452.6    7.499      50.058
2015    5        9    13  28    5.9051   452.7    7.499      50.088
2015    5        9    13  34    5.9076   452.9    7.498      50.119
2015    5        9    13  39    5.9102   453.0    7.497      50.150
2015    5        9    13  45    5.9127   453.2    7.497      50.183
2015    5        9    13  51    5.9153   453.3    7.496      50.216
2015    5        9    13  56    5.9179   453.5    7.496      50.250
2015    5        9    14   2    5.9205   453.6    7.496      50.284
2015    5        9    14   8    5.9231   453.8    7.496      50.319
2015    5        9    14  14    5.9256   453.9    7.496      50.354
2015    5        9    14  19    5.9282   454.1    7.496      50.390
2015    5        9    14  25    5.9308   454.3    7.497      50.426
2015    5        9    14  31    5.9334   454.4    7.497      50.462
2015    5        9    14  36    5.9360   454.6    7.498      50.500
2015    5        9    14  42    5.9386   454.7    7.499      50.538
2015    5        9    14  48    5.9412   454.9    7.501      50.578
2015    5        9    14  53    5.9438   455.1    7.502      50.618
2015    5        9    14  59    5.9464   455.2    7.504      50.660
2015    5        9    15   5    5.9490   455.4    7.505      50.703
2015    5        9    15  11    5.9516   455.6    7.507      50.748
2015    5        9    15  16    5.9542   455.7    7.509      50.794
2015    5        9    15  22    5.9567   455.9    7.511      50.841
2015    5        9    15  28    5.9593   456.1    7.512      50.889
2015    5        9    15  33    5.9618   456.3    7.514      50.940
2015    5        9    15  39    5.9643   456.4    7.515      50.991
2015    5        9    15  45    5.9668   456.6    7.517      51.043
2015    5        9    15  50    5.9692   456.8    7.518      51.096
2015    5        9    15  56    5.9715   457.0    7.519      51.149
2015    5        9    16   2    5.9738   457.2    7.519      51.203
2015    5        9    16   8    5.9761   457.4    7.520      51.256
2015    5        9    16  13    5.9783   457.6    7.520      51.308
2015    5        9    16  19    5.9805   457.8    7.519      51.359
2015    5        9    16  25    5.9826   458.0    7.519      51.408
2015    5        9    16  30    5.9847   458.1    7.518      51.457
2015    5        9    16  36    5.9867   458.3    7.517      51.505
2015    5        9    16  42    5.9887   458.5    7.516      51.552
2015    5        9    16  48    5.9907   458.7    7.514      51.597
2015    5        9    16  53    5.9927   458.9    7.513      51.642
2015    5        9    16  59    5.9946   459.1    7.511      51.685
2015    5        9    17   5    5.9965   459.3    7.509      51.728
2015    5        9    17  10    5.9984   459.5    7.507      51.770
2015    5        9    17  16    6.0003   459.6    7.505      51.811
2015    5        9    17  22    6.0022   459.8    7.502      51.852
2015    5        9    17  27    6.0041   460.0    7.500      51.892
2015    5        9    17  33    6.0060   460.2    7.498      51.931
2015    5        9    17  39    6.0079   460.4    7.495      51.970
2015    5        9    17  45    6.0098   460.6    7.492      52.009
2015    5        9    17  50    6.0118   460.8    7.490      52.047
2015    5        9    17  56    6.0137   460.9    7.487      52.086
2015    5        9    18   2    6.0156   461.1    7.484      52.123
2015    5        9    18   7    6.0175   461.3    7.481      52.161
2015    5        9    18  13    6.0195   461.5    7.478      52.198
2015    5        9    18  19    6.0214   461.7    7.475      52.235
2015    5        9    18  24    6.0233   461.9    7.471      52.272
2015    5        9    18  30    6.0252   462.1    7.468      52.307
2015    5        9    18  36    6.0271   462.3    7.464      52.343
2015    5        9    18  42    6.0289   462.5    7.461      52.378
2015    5        9    18  47    6.0308   462.7    7.457      52.412
2015    5        9    18  53    6.0326   462.8    7.453      52.446
2015    5        9    18  59    6.0344   463.0    7.449      52.479
2015    5        9    19   4    6.0362   463.2    7.445      52.512
2015    5        9    19  10    6.0380   463.4    7.441      52.544
2015    5        9    19  16    6.0398   463.6    7.436      52.575
2015    5        9    19  22    6.0415   463.8    7.432      52.606
2015    5        9    19  27    6.0432   464.0    7.428      52.637
2015    5        9    19  33    6.0449   464.2    7.423      52.667
2015    5        9    19  39    6.0466   464.4    7.418      52.696
2015    5        9    19  44    6.0483   464.5    7.414      52.725
2015    5        9    19  50    6.0500   464.7    7.409      52.753
2015    5        9    19  56    6.0516   464.9    7.404      52.781
2015    5        9    20   1    6.0533   465.1    7.400      52.809
2015    5        9    20   7    6.0549   465.3    7.395      52.835
2015    5        9    20  13    6.0565   465.5    7.390      52.862
2015    5        9    20  19    6.0582   465.6    7.385      52.888
2015    5        9    20  24    6.0598   465.8    7.380      52.914
2015    5        9    20  30    6.0614   466.0    7.376      52.940
2015    5        9    20  36    6.0630   466.2    7.371      52.965
2015    5        9    20  41    6.0647   466.4    7.366      52.990
2015    5        9    20  47    6.0663   466.5    7.362      53.015
2015    5        9    20  53    6.0679   466.7    7.358      53.040
2015    5        9    20  58    6.0696   466.9    7.353      53.066
2015    5        9    21   4    6.0713   467.1    7.349      53.091
2015    5        9    21  10    6.0729   467.3    7.345      53.116
2015    5        9    21  16    6.0746   467.4    7.341      53.142
2015    5        9    21  21    6.0764   467.6    7.337      53.167
2015    5        9    21  27    6.0781   467.8    7.334      53.194
2015    5        9    21  33    6.0799   468.0    7.331      53.220
2015    5        9    21  38    6.0817   468.1    7.328      53.248
2015    5        9    21  44    6.0836   468.3    7.325      53.276
2015    5        9    21  50    6.0854   468.5    7.322      53.304
2015    5        9    21  56    6.0874   468.7    7.320      53.333
2015    5        9    22   1    6.0893   468.8    7.318      53.363
2015    5        9    22   7    6.0913   469.0    7.316      53.395
2015    5        9    22  13    6.0934   469.2    7.314      53.427
2015    5        9    22  18    6.0954   469.4    7.313      53.461
2015    5        9    22  24    6.0975   469.5    7.311      53.496
2015    5        9    22  30    6.0996   469.7    7.310      53.532
2015    5        9    22  35    6.1018   469.9    7.310      53.568
2015    5        9    22  41    6.1040   470.1    7.309      53.605
2015    5        9    22  47    6.1062   470.2    7.309      53.644
2015    5        9    22  53    6.1084   470.4    7.309      53.684
2015    5        9    22  58    6.1106   470.6    7.308      53.726
2015    5        9    23   4    6.1129   470.8    7.308      53.769
2015    5        9    23  10    6.1151   471.0    7.308      53.814
2015    5        9    23  15    6.1174   471.2    7.308      53.860
2015    5        9    23  21    6.1197   471.4    7.308      53.908
2015    5        9    23  27    6.1219   471.6    7.308      53.956
2015    5        9    23  32    6.1241   471.8    7.307      54.004
2015    5        9    23  38    6.1263   472.0    7.307      54.052
2015    5        9    23  44    6.1285   472.2    7.306      54.101
2015    5        9    23  50    6.1306   472.4    7.305      54.150
2015    5        9    23  55    6.1327   472.6    7.304      54.199
2015    5       10     0   1    6.1348   472.8    7.304      54.248
2015    5       10     0   7    6.1369   473.0    7.302      54.296
2015    5       10     0  12    6.1390   473.2    7.301      54.344
2015    5       10     0  18    6.1411   473.4    7.300      54.392
2015    5       10     0  24    6.1432   473.6    7.299      54.438
2015    5       10     0  29    6.1453   473.8    7.298      54.485
2015    5       10     0  35    6.1474   474.0    7.297      54.532
2015    5       10     0  41    6.1495   474.2    7.295      54.581
2015    5       10     0  47    6.1517   474.4    7.294      54.629
2015    5       10     0  52    6.1538   474.6    7.292      54.679
2015    5       10     0  58    6.1559   474.8    7.291      54.729
2015    5       10     1   4    6.1579   475.1    7.289      54.780
2015    5       10     1   9    6.1600   475.3    7.287      54.832
2015    5       10     1  15    6.1620   475.5    7.285      54.883
2015    5       10     1  21    6.1640   475.7    7.282      54.933
2015    5       10     1  27    6.1660   475.9    7.280      54.982
2015    5       10     1  32    6.1679   476.1    7.277      55.031
2015    5       10     1  38    6.1698   476.4    7.274      55.080
2015    5       10     1  44    6.1717   476.6    7.271      55.127
2015    5       10     1  49    6.1735   476.8    7.267      55.175
2015    5       10     1  55    6.1753   477.0    7.264      55.221
2015    5       10     2   1    6.1771   477.3    7.260      55.267
2015    5       10     2   6    6.1789   477.5    7.256      55.312
2015    5       10     2  12    6.1806   477.7    7.252      55.356
2015    5       10     2  18    6.1823   477.9    7.247      55.399
2015    5       10     2  24    6.1840   478.2    7.243      55.441
2015    5       10     2  29    6.1856   478.4    7.238      55.483
2015    5       10     2  35    6.1872   478.6    7.233      55.525
2015    5       10     2  41    6.1888   478.8    7.228      55.565
2015    5       10     2  46    6.1904   479.1    7.223      55.605
2015    5       10     2  52    6.1919   479.3    7.218      55.644
2015    5       10     2  58    6.1935   479.5    7.213      55.682
2015    5       10     3   3    6.1949   479.7    7.207      55.719
2015    5       10     3   9    6.1964   480.0    7.201      55.756
2015    5       10     3  15    6.1978   480.2    7.196      55.792
2015    5       10     3  21    6.1993   480.4    7.190      55.828
2015    5       10     3  26    6.2007   480.7    7.184      55.863
2015    5       10     3  32    6.2020   480.9    7.178      55.897
2015    5       10     3  38    6.2034   481.1    7.171      55.931
2015    5       10     3  43    6.2047   481.4    7.165      55.964
2015    5       10     3  49    6.2060   481.6    7.159      55.996
2015    5       10     3  55    6.2073   481.8    7.152      56.028
2015    5       10     4   0    6.2085   482.1    7.146      56.059
2015    5       10     4   6    6.2098   482.3    7.139      56.090
2015    5       10     4  12    6.2110   482.5    7.133      56.120
2015    5       10     4  18    6.2122   482.7    7.126      56.150
2015    5       10     4  23    6.2134   483.0    7.119      56.179
2015    5       10     4  29    6.2146   483.2    7.112      56.208
2015    5       10     4  35    6.2158   483.4    7.106      56.237
2015    5       10     4  40    6.2169   483.7    7.099      56.265
2015    5       10     4  46    6.2180   483.9    7.092      56.293
2015    5       10     4  52    6.2191   484.1    7.085      56.321
2015    5       10     4  58    6.2202   484.4    7.079      56.349
2015    5       10     5   3    6.2213   484.6    7.072      56.376
2015    5       10     5   9    6.2224   484.8    7.065      56.403
2015    5       10     5  15    6.2234   485.1    7.058      56.430
2015    5       10     5  20    6.2245   485.3    7.051      56.456
2015    5       10     5  26    6.2255   485.5    7.045      56.483
2015    5       10     5  32    6.2265   485.8    7.038      56.509
2015    5       10     5  37    6.2275   486.0    7.031      56.535
2015    5       10     5  43    6.2284   486.2    7.025      56.561
2015    5       10     5  49    6.2294   486.5    7.018      56.587
2015    5       10     5  55    6.2303   486.7    7.012      56.613
2015    5       10     6   0    6.2312   486.9    7.005      56.639
2015    5       10     6   6    6.2322   487.2    6.999      56.665
2015    5       10     6  12    6.2331   487.4    6.993      56.691
2015    5       10     6  17    6.2340   487.6    6.987      56.718
2015    5       10     6  23    6.2349   487.9    6.981      56.745
2015    5       10     6  29    6.2358   488.1    6.975      56.772
2015    5       10     6  34    6.2367   488.3    6.969      56.800
2015    5       10     6  40    6.2377   488.5    6.963      56.827
2015    5       10     6  46    6.2386   488.8    6.958      56.856
2015    5       10     6  52    6.2396   489.0    6.953      56.885
2015    5       10     6  57    6.2405   489.2    6.948      56.916
2015    5       10     7   3    6.2415   489.4    6.943      56.948
2015    5       10     7   9    6.2425   489.7    6.939      56.981
2015    5       10     7  14    6.2435   489.9    6.934      57.016
2015    5       10     7  20    6.2446   490.1    6.930      57.053
2015    5       10     7  26    6.2456   490.3    6.925      57.091
2015    5       10     7  32    6.2467   490.6    6.921      57.129
2015    5       10     7  37    6.2478   490.8    6.917      57.169
2015    5       10     7  43    6.2489   491.0    6.914      57.210
2015    5       10     7  49    6.2500   491.2    6.910      57.253
2015    5       10     7  54    6.2511   491.5    6.906      57.298
2015    5       10     8   0    6.2523   491.7    6.903      57.344
2015    5       10     8   6    6.2533   491.9    6.899      57.392
2015    5       10     8  11    6.2544   492.2    6.895      57.440
2015    5       10     8  17    6.2555   492.4    6.892      57.490
2015    5       10     8  23    6.2565   492.6    6.888      57.540
2015    5       10     8  29    6.2576   492.9    6.884      57.589
2015    5       10     8  34    6.2586   493.1    6.880      57.638
2015    5       10     8  40    6.2596   493.3    6.876      57.687
2015    5       10     8  46    6.2606   493.6    6.872      57.736
2015    5       10     8  51    6.2616   493.8    6.868      57.786
2015    5       10     8  57    6.2626   494.1    6.863      57.836
2015    5       10     9   3    6.2635   494.3    6.859      57.886
2015    5       10     9   8    6.2645   494.6    6.854      57.936
2015    5       10     9  14    6.2654   494.8    6.850      57.986
2015    5       10     9  20    6.2663   495.1    6.845      58.036
2015    5       10     9  26    6.2672   495.3    6.840      58.085
2015    5       10     9  31    6.2680   495.6    6.834      58.133
2015    5       10     9  37    6.2688   495.8    6.829      58.180
2015    5       10     9  43    6.2696   496.1    6.823      58.226
2015    5       10     9  48    6.2704   496.3    6.817      58.272
2015    5       10     9  54    6.2711   496.6    6.812      58.316
2015    5       10    10   0    6.2718   496.8    6.806      58.360
2015    5       10    10   6    6.2725   497.1    6.799      58.404
2015    5       10    10  11    6.2731   497.3    6.793      58.446
2015    5       10    10  17    6.2737   497.6    6.787      58.487
2015    5       10    10  23    6.2743   497.8    6.780      58.529
2015    5       10    10  28    6.2749   498.1    6.774      58.569
2015    5       10    10  34    6.2754   498.3    6.767      58.608
2015    5       10    10  40    6.2760   498.6    6.761      58.648
2015    5       10    10  45    6.2764   498.8    6.754      58.686
2015    5       10    10  51    6.2769   499.1    6.747      58.724
2015    5       10    10  57    6.2774   499.4    6.740      58.762
2015    5       10    11   3    6.2778   499.6    6.733      58.799
2015    5       10    11   8    6.2782   499.9    6.726      58.836
2015    5       10    11  14    6.2786   500.1    6.720      58.872
2015    5       10    11  20    6.2789   500.4    6.713      58.908
2015    5       10    11  25    6.2793   500.7    6.706      58.943
2015    5       10    11  31    6.2796   500.9    6.699      58.978
2015    5       10    11  37    6.2799   501.2    6.692      59.014
2015    5       10    11  42    6.2801   501.5    6.685      59.048
2015    5       10    11  48    6.2804   501.7    6.678      59.083
2015    5       10    11  54    6.2806   502.0    6.671      59.118
2015    5       10    12   0    6.2808   502.2    6.664      59.152
2015    5       10    12   5    6.2810   502.5    6.658      59.187
2015    5       10    12  11    6.2811   502.8    6.651      59.222
2015    5       10    12  17    6.2813   503.0    6.644      59.257
2015    5       10    12  22    6.2814   503.3    6.638      59.292
2015    5       10    12  28    6.2815   503.6    6.631      59.327
2015    5       10    12  34    6.2816   503.8    6.625      59.362
2015    5       10    12  40    6.2816   504.1    6.619      59.398
2015    5       10    12  45    6.2817   504.4    6.613      59.435
2015    5       10    12  51    6.2817   504.7    6.606      59.473
2015    5       10    12  57    6.2817   504.9    6.600      59.512
2015    5       10    13   2    6.2816   505.2    6.594      59.552
2015    5       10    13   8    6.2816   505.5    6.587      59.593
2015    5       10    13  14    6.2815   505.8    6.581      59.633
2015    5       10    13  19    6.2814   506.1    6.575      59.675
2015    5       10    13  25    6.2812   506.3    6.568      59.715
2015    5       10    13  31    6.2811   506.6    6.562      59.756
2015    5       10    13  37    6.2809   506.9    6.555      59.796
2015    5       10    13  42    6.2806   507.2    6.548      59.836
2015    5       10    13  48    6.2804   507.4    6.542      59.876
2015    5       10    13  54    6.2802   507.7    6.535      59.916
2015    5       10    13  59    6.2799   508.0    6.528      59.955
2015    5       10    14   5    6.2797   508.3    6.521      59.995
2015    5       10    14  11    6.2794   508.5    6.515      60.034
2015    5       10    14  16    6.2791   508.8    6.508      60.073
2015    5       10    14  22    6.2788   509.1    6.501      60.113
2015    5       10    14  28    6.2785   509.4    6.495      60.153
2015    5       10    14  34    6.2782   509.6    6.488      60.194
2015    5       10    14  39    6.2779   509.9    6.482      60.234
2015    5       10    14  45    6.2776   510.2    6.475      60.276
2015    5       10    14  51    6.2773   510.5    6.469      60.317
2015    5       10    14  56    6.2770   510.7    6.462      60.358
2015    5       10    15   2    6.2767   511.0    6.456      60.400
2015    5       10    15   8    6.2764   511.3    6.449      60.441
2015    5       10    15  13    6.2761   511.5    6.443      60.483
2015    5       10    15  19    6.2757   511.8    6.437      60.524
2015    5       10    15  25    6.2755   512.1    6.431      60.567
2015    5       10    15  31    6.2752   512.3    6.425      60.609
2015    5       10    15  36    6.2749   512.6    6.419      60.652
2015    5       10    15  42    6.2747   512.9    6.413      60.695
2015    5       10    15  48    6.2744   513.1    6.408      60.739
2015    5       10    15  53    6.2742   513.4    6.402      60.784
2015    5       10    15  59    6.2740   513.7    6.396      60.830
2015    5       10    16   5    6.2738   514.0    6.391      60.877
2015    5       10    16  11    6.2736   514.2    6.385      60.924
2015    5       10    16  16    6.2735   514.5    6.380      60.973
2015    5       10    16  22    6.2733   514.8    6.374      61.022
2015    5       10    16  28    6.2731   515.1    6.368      61.072
2015    5       10    16  33    6.2729   515.3    6.363      61.121
2015    5       10    16  39    6.2726   515.6    6.357      61.169
2015    5       10    16  45    6.2724   515.9    6.351      61.218
2015    5       10    16  50    6.2721   516.2    6.345      61.266
2015    5       10    16  56    6.2718   516.5    6.339      61.314
2015    5       10    17   2    6.2715   516.8    6.333      61.362
2015    5       10    17   8    6.2712   517.0    6.327      61.409
2015    5       10    17  13    6.2709   517.3    6.322      61.456
2015    5       10    17  19    6.2705   517.6    6.316      61.503
2015    5       10    17  25    6.2702   517.9    6.310      61.550
2015    5       10    17  30    6.2698   518.2    6.304      61.597
2015    5       10    17  36    6.2694   518.5    6.298      61.643
2015    5       10    17  42    6.2690   518.8    6.293      61.690
2015    5       10    17  47    6.2686   519.1    6.287      61.737
2015    5       10    17  53    6.2682   519.4    6.281      61.785
2015    5       10    17  59    6.2677   519.7    6.276      61.834
2015    5       10    18   5    6.2672   520.0    6.270      61.884
2015    5       10    18  10    6.2666   520.3    6.264      61.934
2015    5       10    18  16    6.2661   520.6    6.259      61.986
2015    5       10    18  22    6.2655   520.9    6.253      62.036
2015    5       10    18  27    6.2649   521.2    6.247      62.087
2015    5       10    18  33    6.2642   521.5    6.241      62.137
2015    5       10    18  39    6.2636   521.8    6.235      62.187
2015    5       10    18  45    6.2628   522.1    6.228      62.237
2015    5       10    18  50    6.2621   522.4    6.222      62.287
2015    5       10    18  56    6.2613   522.7    6.216      62.336
2015    5       10    19   2    6.2606   523.0    6.210      62.385
2015    5       10    19   7    6.2598   523.3    6.203      62.433
2015    5       10    19  13    6.2589   523.6    6.197      62.482
2015    5       10    19  19    6.2581   523.9    6.191      62.530
2015    5       10    19  24    6.2573   524.2    6.184      62.579
2015    5       10    19  30    6.2564   524.5    6.178      62.627
2015    5       10    19  36    6.2555   524.8    6.172      62.675
2015    5       10    19  42    6.2547   525.1    6.166      62.724
2015    5       10    19  47    6.2538   525.4    6.160      62.773
2015    5       10    19  53    6.2529   525.7    6.154      62.822
2015    5       10    19  59    6.2520   526.0    6.148      62.871
2015    5       10    20   4    6.2511   526.4    6.142      62.921
2015    5       10    20  10    6.2502   526.7    6.137      62.971
2015    5       10    20  16    6.2493   527.0    6.131      63.023
2015    5       10    20  21    6.2484   527.3    6.126      63.076
2015    5       10    20  27    6.2476   527.6    6.120      63.130
2015    5       10    20  33    6.2467   527.9    6.115      63.185
2015    5       10    20  39    6.2458   528.2    6.109      63.242
2015    5       10    20  44    6.2450   528.5    6.104      63.299
2015    5       10    20  50    6.2443   528.9    6.098      63.357
2015    5       10    20  56    6.2435   529.2    6.093      63.416
2015    5       10    21   1    6.2428   529.5    6.088      63.476
2015    5       10    21   7    6.2421   529.8    6.082      63.538
2015    5       10    21  13    6.2414   530.2    6.077      63.602
2015    5       10    21  18    6.2408   530.5    6.071      63.667
2015    5       10    21  24    6.2402   530.8    6.066      63.733
2015    5       10    21  30    6.2396   531.2    6.060      63.800
2015    5       10    21  36    6.2389   531.5    6.054      63.868
2015    5       10    21  41    6.2383   531.9    6.048      63.935
2015    5       10    21  47    6.2376   532.2    6.042      64.001
2015    5       10    21  53    6.2368   532.5    6.036      64.065
2015    5       10    21  58    6.2360   532.9    6.029      64.129
2015    5       10    22   4    6.2352   533.2    6.023      64.191
2015    5       10    22  10    6.2343   533.6    6.016      64.252
2015    5       10    22  16    6.2334   533.9    6.009      64.312
2015    5       10    22  21    6.2324   534.3    6.002      64.370
2015    5       10    22  27    6.2314   534.6    5.994      64.427
2015    5       10    22  33    6.2304   535.0    5.987      64.484
2015    5       10    22  38    6.2294   535.3    5.979      64.538
2015    5       10    22  44    6.2283   535.7    5.972      64.593
2015    5       10    22  50    6.2273   536.0    5.964      64.646
2015    5       10    22  55    6.2262   536.4    5.956      64.698
2015    5       10    23   1    6.2251   536.8    5.948      64.749
2015    5       10    23   7    6.2239   537.1    5.940      64.800
2015    5       10    23  13    6.2228   537.5    5.932      64.849
2015    5       10    23  18    6.2216   537.8    5.923      64.898
2015    5       10    23  24    6.2205   538.2    5.915      64.945
2015    5       10    23  30    6.2192   538.5    5.907      64.992
2015    5       10    23  35    6.2180   538.9    5.899      65.038
2015    5       10    23  41    6.2168   539.2    5.890      65.084
2015    5       10    23  47    6.2155   539.6    5.882      65.129
2015    5       10    23  52    6.2142   539.9    5.873      65.174
2015    5       10    23  58    6.2129   540.3    5.865      65.219
2015    5       11     0   4    6.2116   540.6    5.857      65.264
2015    5       11     0  10    6.2103   541.0    5.848      65.308
2015    5       11     0  15    6.2089   541.4    5.840      65.353
2015    5       11     0  21    6.2075   541.7    5.832      65.397
2015    5       11     0  27    6.2061   542.1    5.823      65.441
2015    5       11     0  32    6.2047   542.4    5.815      65.484
2015    5       11     0  38    6.2033   542.8    5.807      65.528
2015    5       11     0  44    6.2018   543.1    5.798      65.572
2015    5       11     0  49    6.2003   543.5    5.790      65.615
2015    5       11     0  55    6.1988   543.9    5.782      65.659
2015    5       11     1   1    6.1972   544.2    5.774      65.702
2015    5       11     1   7    6.1956   544.6    5.766      65.745
2015    5       11     1  12    6.1938   545.0    5.758      65.789
2015    5       11     1  18    6.1921   545.3    5.750      65.833
2015    5       11     1  24    6.1902   545.7    5.742      65.878
2015    5       11     1  29    6.1883   546.1    5.734      65.924
2015    5       11     1  35    6.1864   546.4    5.726      65.971
2015    5       11     1  41    6.1844   546.8    5.718      66.017
2015    5       11     1  47    6.1824   547.1    5.710      66.064
2015    5       11     1  52    6.1804   547.5    5.702      66.109
2015    5       11     1  58    6.1783   547.8    5.693      66.155
2015    5       11     2   4    6.1762   548.2    5.685      66.201
2015    5       11     2   9    6.1741   548.6    5.677      66.247
2015    5       11     2  15    6.1720   548.9    5.668      66.294
2015    5       11     2  21    6.1698   549.3    5.660      66.342
2015    5       11     2  26    6.1677   549.7    5.652      66.392
2015    5       11     2  32    6.1655   550.0    5.643      66.442
2015    5       11     2  38    6.1633   550.4    5.635      66.494
2015    5       11     2  44    6.1611   550.8    5.626      66.546
2015    5       11     2  49    6.1588   551.2    5.618      66.598
2015    5       11     2  55    6.1566   551.5    5.610      66.649
2015    5       11     3   1    6.1543   551.9    5.601      66.699
2015    5       11     3   6    6.1520   552.3    5.592      66.749
2015    5       11     3  12    6.1496   552.7    5.584      66.799
2015    5       11     3  18    6.1473   553.0    5.575      66.849
2015    5       11     3  23    6.1449   553.4    5.567      66.898
2015    5       11     3  29    6.1425   553.8    5.558      66.947
2015    5       11     3  35    6.1402   554.2    5.549      66.995
2015    5       11     3  41    6.1379   554.5    5.541      67.043
2015    5       11     3  46    6.1356   554.9    5.532      67.091
2015    5       11     3  52    6.1333   555.3    5.524      67.139
2015    5       11     3  58    6.1310   555.6    5.516      67.187
2015    5       11     4   3    6.1288   556.0    5.508      67.236
2015    5       11     4   9    6.1266   556.3    5.500      67.286
2015    5       11     4  15    6.1245   556.7    5.493      67.337
2015    5       11     4  21    6.1224   557.1    5.485      67.391
2015    5       11     4  26    6.1203   557.4    5.478      67.447
2015    5       11     4  32    6.1183   557.8    5.470      67.506
2015    5       11     4  38    6.1162   558.2    5.463      67.569
2015    5       11     4  43    6.1142   558.6    5.456      67.633
2015    5       11     4  49    6.1121   559.0    5.449      67.701
2015    5       11     4  55    6.1101   559.4    5.442      67.768
2015    5       11     5   0    6.1079   559.8    5.434      67.835
2015    5       11     5   6    6.1056   560.2    5.427      67.901
2015    5       11     5  12    6.1033   560.6    5.419      67.966
2015    5       11     5  18    6.1010   561.0    5.412      68.028
2015    5       11     5  23    6.0985   561.4    5.404      68.090
2015    5       11     5  29    6.0960   561.9    5.396      68.149
2015    5       11     5  35    6.0934   562.3    5.387      68.207
2015    5       11     5  40    6.0908   562.7    5.379      68.263
2015    5       11     5  46    6.0881   563.1    5.370      68.317
2015    5       11     5  52    6.0854   563.5    5.361      68.369
2015    5       11     5  57    6.0826   563.9    5.352      68.419
2015    5       11     6   3    6.0798   564.3    5.343      68.468
2015    5       11     6   9    6.0769   564.7    5.333      68.515
2015    5       11     6  15    6.0740   565.1    5.324      68.561
2015    5       11     6  20    6.0711   565.6    5.314      68.606
2015    5       11     6  26    6.0681   566.0    5.304      68.649
2015    5       11     6  32    6.0651   566.4    5.295      68.692
2015    5       11     6  37    6.0620   566.8    5.285      68.733
2015    5       11     6  43    6.0589   567.2    5.275      68.773
2015    5       11     6  49    6.0558   567.6    5.265      68.813
2015    5       11     6  54    6.0526   568.0    5.255      68.851
2015    5       11     7   0    6.0494   568.4    5.245      68.888
2015    5       11     7   6    6.0461   568.8    5.234      68.925
2015    5       11     7  12    6.0428   569.3    5.224      68.962
2015    5       11     7  17    6.0395   569.7    5.214      68.997
2015    5       11     7  23    6.0361   570.1    5.203      69.032
2015    5       11     7  29    6.0327   570.5    5.193      69.067
2015    5       11     7  34    6.0292   570.9    5.183      69.101
2015    5       11     7  40    6.0257   571.3    5.172      69.135
2015    5       11     7  46    6.0222   571.7    5.162      69.168
2015    5       11     7  52    6.0186   572.1    5.151      69.200
2015    5       11     7  57    6.0149   572.5    5.140      69.231
2015    5       11     8   3    6.0112   573.0    5.130      69.262
2015    5       11     8   9    6.0075   573.4    5.119      69.293
2015    5       11     8  14    6.0037   573.8    5.108      69.322
2015    5       11     8  20    5.9998   574.2    5.097      69.350
2015    5       11     8  26    5.9959   574.6    5.086      69.377
2015    5       11     8  31    5.9919   575.0    5.074      69.403
2015    5       11     8  37    5.9878   575.4    5.063      69.427
2015    5       11     8  43    5.9837   575.8    5.052      69.450
2015    5       11     8  49    5.9794   576.2    5.040      69.471
2015    5       11     8  54    5.9751   576.6    5.028      69.490
2015    5       11     9   0    5.9707   577.0    5.017      69.508
2015    5       11     9   6    5.9662   577.4    5.005      69.524
2015    5       11     9  11    5.9617   577.8    4.993      69.537
2015    5       11     9  17    5.9572   578.2    4.981      69.546
2015    5       11     9  23    5.9526   578.5    4.970      69.554
2015    5       11     9  28    5.9482   578.9    4.958      69.559
2015    5       11     9  34    5.9437   579.2    4.947      69.562
2015    5       11     9  40    5.9394   579.5    4.936      69.566
2015    5       11     9  46    5.9351   579.8    4.925      69.571
2015    5       11     9  51    5.9309   580.2    4.915      69.580
2015    5       11     9  57    5.9268   580.5    4.905      69.593
2015    5       11    10   3    5.9228   580.8    4.895      69.610
2015    5       11    10   8    5.9188   581.2    4.885      69.634
2015    5       11    10  14    5.9149   581.5    4.875      69.665
2015    5       11    10  20    5.9109   581.9    4.865      69.698
2015    5       11    10  25    5.9070   582.3    4.856      69.733
2015    5       11    10  31    5.9031   582.7    4.846      69.770
2015    5       11    10  37    5.8992   583.1    4.837      69.808
2015    5       11    10  43    5.8953   583.5    4.827      69.843
2015    5       11    10  48    5.8913   583.9    4.818      69.874
2015    5       11    10  54    5.8873   584.3    4.808      69.903
2015    5       11    11   0    5.8832   584.6    4.798      69.930
2015    5       11    11   5    5.8790   585.0    4.788      69.956
2015    5       11    11  11    5.8748   585.4    4.779      69.981
2015    5       11    11  17    5.8705   585.7    4.769      70.004
2015    5       11    11  23    5.8662   586.1    4.759      70.028
2015    5       11    11  28    5.8618   586.5    4.750      70.051
2015    5       11    11  34    5.8575   586.8    4.740      70.073
2015    5       11    11  40    5.8531   587.2    4.731      70.096
2015    5       11    11  45    5.8488   587.5    4.722      70.118
2015    5       11    11  51    5.8445   587.9    4.713      70.142
2015    5       11    11  57    5.8402   588.2    4.704      70.167
2015    5       11    12   2    5.8358   588.6    4.695      70.193
2015    5       11    12   8    5.8315   589.0    4.687      70.221
2015    5       11    12  14    5.8272   589.3    4.678      70.251
2015    5       11    12  20    5.8229   589.7    4.670      70.282
2015    5       11    12  25    5.8185   590.1    4.662      70.313
2015    5       11    12  31    5.8142   590.5    4.654      70.345
2015    5       11    12  37    5.8098   590.9    4.646      70.376
2015    5       11    12  42    5.8054   591.2    4.638      70.407
2015    5       11    12  48    5.8009   591.6    4.630      70.438
2015    5       11    12  54    5.7965   592.0    4.622      70.468
2015    5       11    12  59    5.7919   592.4    4.614      70.496
2015    5       11    13   5    5.7874   592.8    4.606      70.524
2015    5       11    13  11    5.7828   593.1    4.597      70.550
2015    5       11    13  17    5.7782   593.5    4.589      70.574
2015    5       11    13  22    5.7736   593.9    4.581      70.597
2015    5       11    13  28    5.7690   594.2    4.573      70.619
2015    5       11    13  34    5.7643   594.6    4.564      70.641
2015    5       11    13  39    5.7597   594.9    4.556      70.661
2015    5       11    13  45    5.7551   595.3    4.548      70.682
2015    5       11    13  51    5.7505   595.6    4.540      70.702
2015    5       11    13  57    5.7459   596.0    4.532      70.723
2015    5       11    14   2    5.7413   596.3    4.524      70.745
2015    5       11    14   8    5.7367   596.6    4.516      70.766
2015    5       11    14  14    5.7321   597.0    4.508      70.787
2015    5       11    14  19    5.7274   597.3    4.500      70.810
2015    5       11    14  25    5.7228   597.7    4.492      70.834
2015    5       11    14  31    5.7182   598.0    4.484      70.858
2015    5       11    14  36    5.7136   598.3    4.476      70.883
2015    5       11    14  42    5.7090   598.7    4.469      70.907
2015    5       11    14  48    5.7044   599.0    4.461      70.932
2015    5       11    14  54    5.6997   599.3    4.453      70.956
2015    5       11    14  59    5.6951   599.7    4.445      70.980
2015    5       11    15   5    5.6905   600.0    4.437      71.002
2015    5       11    15  11    5.6858   600.4    4.429      71.024
2015    5       11    15  16    5.6812   600.7    4.420      71.044
2015    5       11    15  22    5.6765   601.0    4.412      71.063
2015    5       11    15  28    5.6718   601.4    4.404      71.080
2015    5       11    15  33    5.6671   601.7    4.395      71.096
2015    5       11    15  39    5.6623   602.1    4.387      71.110
2015    5       11    15  45    5.6576   602.4    4.378      71.123
2015    5       11    15  51    5.6528   602.7    4.369      71.134
2015    5       11    15  56    5.6480   603.1    4.360      71.143
2015    5       11    16   2    5.6431   603.4    4.351      71.151
2015    5       11    16   8    5.6381   603.8    4.342      71.157
2015    5       11    16  13    5.6331   604.1    4.332      71.162
2015    5       11    16  19    5.6280   604.5    4.323      71.165
2015    5       11    16  25    5.6229   604.8    4.313      71.165
2015    5       11    16  30    5.6177   605.1    4.304      71.161
2015    5       11    16  36    5.6126   605.4    4.295      71.153
2015    5       11    16  42    5.6075   605.7    4.285      71.141
2015    5       11    16  48    5.6025   606.0    4.276      71.128
2015    5       11    16  53    5.5975   606.3    4.267      71.114
2015    5       11    16  59    5.5926   606.5    4.258      71.101
2015    5       11    17   5    5.5878   606.8    4.250      71.089
2015    5       11    17  10    5.5830   607.0    4.241      71.079
2015    5       11    17  16    5.5783   607.3    4.233      71.075
2015    5       11    17  22    5.5736   607.6    4.225      71.076
2015    5       11    17  28    5.5690   607.9    4.217      71.084
2015    5       11    17  33    5.5643   608.2    4.209      71.094
2015    5       11    17  39    5.5597   608.5    4.201      71.107
2015    5       11    17  45    5.5551   608.8    4.193      71.121
2015    5       11    17  50    5.5505   609.2    4.186      71.133
2015    5       11    17  56    5.5459   609.5    4.178      71.142
2015    5       11    18   2    5.5412   609.8    4.170      71.147
2015    5       11    18   7    5.5365   610.1    4.162      71.150
2015    5       11    18  13    5.5317   610.4    4.154      71.152
2015    5       11    18  19    5.5269   610.7    4.146      71.153
2015    5       11    18  25    5.5219   611.0    4.138      71.153
2015    5       11    18  30    5.5170   611.3    4.130      71.151
2015    5       11    18  36    5.5120   611.6    4.121      71.150
2015    5       11    18  42    5.5069   611.9    4.113      71.147
2015    5       11    18  47    5.5019   612.2    4.105      71.142
2015    5       11    18  53    5.4970   612.5    4.098      71.137
2015    5       11    18  59    5.4921   612.8    4.090      71.131
2015    5       11    19   4    5.4872   613.1    4.082      71.126
2015    5       11    19  10    5.4823   613.3    4.075      71.121
2015    5       11    19  16    5.4775   613.6    4.067      71.117
2015    5       11    19  22    5.4726   613.9    4.060      71.114
2015    5       11    19  27    5.4678   614.2    4.052      71.111
2015    5       11    19  33    5.4631   614.5    4.045      71.110
2015    5       11    19  39    5.4583   614.8    4.038      71.110
2015    5       11    19  44    5.4536   615.1    4.031      71.111
2015    5       11    19  50    5.4488   615.4    4.024      71.113
2015    5       11    19  56    5.4441   615.7    4.017      71.115
2015    5       11    20   1    5.4394   615.9    4.011      71.117
2015    5       11    20   7    5.4346   616.2    4.004      71.119
2015    5       11    20  13    5.4299   616.5    3.997      71.121
2015    5       11    20  19    5.4252   616.8    3.991      71.122
2015    5       11    20  24    5.4205   617.1    3.984      71.122
2015    5       11    20  30    5.4158   617.4    3.978      71.122
2015    5       11    20  36    5.4111   617.7    3.971      71.121
2015    5       11    20  41    5.4065   617.9    3.965      71.120
2015    5       11    20  47    5.4018   618.2    3.959      71.118
2015    5       11    20  53    5.3973   618.5    3.952      71.116
2015    5       11    20  59    5.3927   618.7    3.946      71.114
2015    5       11    21   4    5.3882   619.0    3.940      71.113
2015    5       11    21  10    5.3837   619.2    3.934      71.113
2015    5       11    21  16    5.3792   619.5    3.928      71.113
2015    5       11    21  21    5.3748   619.7    3.922      71.115
2015    5       11    21  27    5.3704   619.9    3.916      71.117
2015    5       11    21  33    5.3660   620.2    3.911      71.120
2015    5       11    21  38    5.3617   620.4    3.905      71.125
2015    5       11    21  44    5.3574   620.6    3.900      71.133
2015    5       11    21  50    5.3531   620.8    3.895      71.142
2015    5       11    21  56    5.3488   621.1    3.890      71.152
2015    5       11    22   1    5.3446   621.3    3.885      71.163
2015    5       11    22   7    5.3404   621.5    3.880      71.175
2015    5       11    22  13    5.3362   621.8    3.875      71.188
2015    5       11    22  18    5.3320   622.0    3.870      71.201
2015    5       11    22  24    5.3279   622.2    3.865      71.213
2015    5       11    22  30    5.3237   622.5    3.860      71.225
2015    5       11    22  35    5.3196   622.7    3.855      71.236
2015    5       11    22  41    5.3155   623.0    3.849      71.246
2015    5       11    22  47    5.3114   623.2    3.844      71.256
2015    5       11    22  53    5.3072   623.4    3.839      71.265
2015    5       11    22  58    5.3031   623.7    3.834      71.273
2015    5       11    23   4    5.2989   623.9    3.829      71.281
2015    5       11    23  10    5.2948   624.2    3.824      71.287
2015    5       11    23  15    5.2906   624.4    3.818      71.293
2015    5       11    23  21    5.2864   624.6    3.813      71.298
2015    5       11    23  27    5.2822   624.9    3.808      71.303
2015    5       11    23  32    5.2779   625.1    3.802      71.306
2015    5       11    23  38    5.2737   625.4    3.797      71.309
2015    5       11    23  44    5.2694   625.6    3.791      71.311
2015    5       11    23  50    5.2651   625.8    3.786      71.312
2015    5       11    23  55    5.2608   626.1    3.781      71.313
2015    5       12     0   1    5.2565   626.3    3.775      71.313
2015    5       12     0   7    5.2522   626.6    3.770      71.313
2015    5       12     0  12    5.2478   626.8    3.764      71.312
2015    5       12     0  18    5.2435   627.0    3.759      71.310
2015    5       12     0  24    5.2392   627.3    3.753      71.308
2015    5       12     0  30    5.2348   627.5    3.747      71.305
2015    5       12     0  35    5.2304   627.7    3.742      71.301
2015    5       12     0  41    5.2260   628.0    3.736      71.297
2015    5       12     0  47    5.2217   628.2    3.731      71.292
2015    5       12     0  52    5.2173   628.4    3.725      71.287
2015    5       12     0  58    5.2129   628.7    3.720      71.281
2015    5       12     1   4    5.2085   628.9    3.714      71.275
2015    5       12     1   9    5.2041   629.1    3.708      71.268
2015    5       12     1  15    5.1997   629.3    3.703      71.261
2015    5       12     1  21    5.1953   629.6    3.697      71.253
2015    5       12     1  27    5.1909   629.8    3.692      71.245
2015    5       12     1  32    5.1865   630.0    3.686      71.236
2015    5       12     1  38    5.1821   630.2    3.681      71.227
2015    5       12     1  44    5.1777   630.5    3.675      71.217
2015    5       12     1  49    5.1734   630.7    3.670      71.207
2015    5       12     1  55    5.1690   630.9    3.664      71.197
2015    5       12     2   1    5.1646   631.1    3.659      71.186
2015    5       12     2   6    5.1603   631.3    3.653      71.174
2015    5       12     2  12    5.1559   631.5    3.648      71.163
2015    5       12     2  18    5.1516   631.8    3.642      71.151
2015    5       12     2  24    5.1473   632.0    3.637      71.138
2015    5       12     2  29    5.1430   632.2    3.632      71.126
2015    5       12     2  35    5.1388   632.4    3.626      71.113
2015    5       12     2  41    5.1345   632.6    3.621      71.100
2015    5       12     2  46    5.1303   632.8    3.616      71.087
2015    5       12     2  52    5.1261   633.0    3.611      71.074
2015    5       12     2  58    5.1219   633.2    3.605      71.060
2015    5       12     3   4    5.1177   633.4    3.600      71.047
2015    5       12     3   9    5.1135   633.6    3.595      71.033
2015    5       12     3  15    5.1094   633.8    3.590      71.020
2015    5       12     3  21    5.1053   634.0    3.585      71.006
2015    5       12     3  26    5.1012   634.2    3.580      70.993
2015    5       12     3  32    5.0971   634.4    3.575      70.979
2015    5       12     3  38    5.0930   634.6    3.570      70.966
2015    5       12     3  43    5.0890   634.8    3.565      70.953
2015    5       12     3  49    5.0849   635.0    3.560      70.940
2015    5       12     3  55    5.0809   635.2    3.556      70.927
2015    5       12     4   1    5.0769   635.4    3.551      70.914
2015    5       12     4   6    5.0729   635.6    3.546      70.902
2015    5       12     4  12    5.0690   635.7    3.541      70.890
2015    5       12     4  18    5.0650   635.9    3.537      70.879
2015    5       12     4  23    5.0611   636.1    3.532      70.867
2015    5       12     4  29    5.0572   636.3    3.528      70.857
2015    5       12     4  35    5.0532   636.5    3.523      70.846
2015    5       12     4  40    5.0493   636.7    3.519      70.837
2015    5       12     4  46    5.0455   636.9    3.514      70.827
2015    5       12     4  52    5.0416   637.0    3.510      70.818
2015    5       12     4  58    5.0378   637.2    3.505      70.810
2015    5       12     5   3    5.0339   637.4    3.501      70.802
2015    5       12     5   9    5.0301   637.6    3.497      70.795
2015    5       12     5  15    5.0264   637.8    3.493      70.788
2015    5       12     5  20    5.0226   637.9    3.489      70.781
2015    5       12     5  26    5.0189   638.1    3.485      70.775
2015    5       12     5  32    5.0152   638.3    3.481      70.770
2015    5       12     5  37    5.0114   638.5    3.477      70.765
2015    5       12     5  43    5.0077   638.6    3.473      70.760
2015    5       12     5  49    5.0041   638.8    3.469      70.755
2015    5       12     5  55    5.0004   639.0    3.465      70.751
2015    5       12     6   0    4.9967   639.2    3.461      70.747
2015    5       12     6   6    4.9930   639.3    3.457      70.743
2015    5       12     6  12    4.9893   639.5    3.453      70.740
2015    5       12     6  17    4.9856   639.7    3.450      70.736
2015    5       12     6  23    4.9819   639.8    3.446      70.733
2015    5       12     6  29    4.9782   640.0    3.442      70.729
2015    5       12     6  35    4.9745   640.2    3.439      70.725
2015    5       12     6  40    4.9708   640.4    3.435      70.720
2015    5       12     6  46    4.9670   640.5    3.432      70.716
2015    5       12     6  52    4.9633   640.7    3.428      70.711
2015    5       12     6  57    4.9595   640.9    3.424      70.706
2015    5       12     7   3    4.9558   641.0    3.421      70.700
2015    5       12     7   9    4.9520   641.2    3.417      70.694
2015    5       12     7  14    4.9482   641.3    3.414      70.688
2015    5       12     7  20    4.9444   641.5    3.410      70.681
2015    5       12     7  26    4.9406   641.7    3.407      70.674
2015    5       12     7  32    4.9368   641.8    3.403      70.666
2015    5       12     7  37    4.9330   642.0    3.400      70.658
2015    5       12     7  43    4.9292   642.1    3.396      70.649
2015    5       12     7  49    4.9254   642.3    3.393      70.639
2015    5       12     7  54    4.9215   642.4    3.389      70.629
2015    5       12     8   0    4.9177   642.6    3.385      70.619
2015    5       12     8   6    4.9139   642.7    3.382      70.607
2015    5       12     8  11    4.9100   642.9    3.378      70.596
2015    5       12     8  17    4.9062   643.0    3.375      70.583
2015    5       12     8  23    4.9024   643.2    3.371      70.570
2015    5       12     8  29    4.8985   643.3    3.367      70.556
2015    5       12     8  34    4.8947   643.4    3.364      70.542
2015    5       12     8  40    4.8908   643.6    3.360      70.527
2015    5       12     8  46    4.8870   643.7    3.357      70.511
2015    5       12     8  51    4.8832   643.9    3.353      70.495
2015    5       12     8  57    4.8794   644.0    3.349      70.479
2015    5       12     9   3    4.8755   644.1    3.346      70.462
2015    5       12     9   8    4.8717   644.3    3.342      70.444
2015    5       12     9  14    4.8679   644.4    3.338      70.426
2015    5       12     9  20    4.8641   644.5    3.335      70.408
2015    5       12     9  26    4.8604   644.6    3.331      70.389
2015    5       12     9  31    4.8566   644.8    3.328      70.370
2015    5       12     9  37    4.8528   644.9    3.324      70.350
2015    5       12     9  43    4.8491   645.0    3.320      70.330
2015    5       12     9  48    4.8453   645.1    3.317      70.309
2015    5       12     9  54    4.8416   645.3    3.313      70.288
2015    5       12    10   0    4.8379   645.4    3.310      70.267
2015    5       12    10   6    4.8342   645.5    3.306      70.245
2015    5       12    10  11    4.8305   645.6    3.302      70.223
2015    5       12    10  17    4.8269   645.7    3.299      70.201
2015    5       12    10  23    4.8232   645.8    3.295      70.179
2015    5       12    10  28    4.8196   645.9    3.292      70.156
2015    5       12    10  34    4.8159   646.1    3.288      70.133
2015    5       12    10  40    4.8123   646.2    3.285      70.110
2015    5       12    10  45    4.8087   646.3    3.281      70.087
2015    5       12    10  51    4.8052   646.4    3.278      70.064
2015    5       12    10  57    4.8016   646.5    3.274      70.041
2015    5       12    11   3    4.7981   646.6    3.271      70.018
2015    5       12    11   8    4.7945   646.7    3.267      69.995
2015    5       12    11  14    4.7910   646.8    3.264      69.972
2015    5       12    11  20    4.7875   646.9    3.261      69.949
2015    5       12    11  25    4.7840   647.0    3.257      69.927
2015    5       12    11  31    4.7806   647.1    3.254      69.905
2015    5       12    11  37    4.7771   647.2    3.251      69.883
2015    5       12    11  42    4.7737   647.3    3.247      69.862
2015    5       12    11  48    4.7703   647.4    3.244      69.840
2015    5       12    11  54    4.7669   647.5    3.241      69.820
2015    5       12    12   0    4.7635   647.6    3.238      69.800
2015    5       12    12   5    4.7601   647.7    3.235      69.780
2015    5       12    12  11    4.7568   647.8    3.232      69.761
2015    5       12    12  17    4.7534   647.9    3.229      69.742
2015    5       12    12  22    4.7501   648.0    3.226      69.724
2015    5       12    12  28    4.7468   648.1    3.223      69.707
2015    5       12    12  34    4.7435   648.2    3.220      69.690
2015    5       12    12  39    4.7403   648.3    3.217      69.673
2015    5       12    12  45    4.7371   648.4    3.215      69.658
2015    5       12    12  51    4.7338   648.5    3.212      69.642
2015    5       12    12  57    4.7306   648.6    3.209      69.628
2015    5       12    13   2    4.7275   648.7    3.207      69.614
2015    5       12    13   8    4.7243   648.8    3.204      69.600
2015    5       12    13  14    4.7212   648.9    3.202      69.587
2015    5       12    13  19    4.7181   649.0    3.199      69.575
2015    5       12    13  25    4.7149   649.1    3.197      69.563
2015    5       12    13  31    4.7119   649.1    3.195      69.551
2015    5       12    13  37    4.7088   649.2    3.192      69.540
2015    5       12    13  42    4.7057   649.3    3.190      69.529
2015    5       12    13  48    4.7026   649.4    3.188      69.518
2015    5       12    13  54    4.6995   649.5    3.186      69.507
2015    5       12    13  59    4.6963   649.6    3.184      69.497
2015    5       12    14   5    4.6932   649.7    3.182      69.487
2015    5       12    14  11    4.6901   649.8    3.180      69.477
2015    5       12    14  16    4.6870   649.8    3.178      69.467
2015    5       12    14  22    4.6838   649.9    3.176      69.457
2015    5       12    14  28    4.6807   650.0    3.174      69.446
2015    5       12    14  34    4.6775   650.1    3.172      69.436
2015    5       12    14  39    4.6743   650.2    3.170      69.425
2015    5       12    14  45    4.6711   650.2    3.168      69.414
2015    5       12    14  51    4.6679   650.3    3.166      69.402
2015    5       12    14  56    4.6647   650.4    3.164      69.390
2015    5       12    15   2    4.6615   650.5    3.162      69.378
2015    5       12    15   8    4.6583   650.5    3.160      69.365
2015    5       12    15  13    4.6550   650.6    3.158      69.352
2015    5       12    15  19    4.6518   650.7    3.156      69.338
2015    5       12    15  25    4.6486   650.8    3.153      69.324
2015    5       12    15  31    4.6453   650.8    3.151      69.309
2015    5       12    15  36    4.6421   650.9    3.149      69.294
2015    5       12    15  42    4.6389   650.9    3.147      69.278
2015    5       12    15  48    4.6356   651.0    3.145      69.262
2015    5       12    15  53    4.6324   651.1    3.143      69.245
2015    5       12    15  59    4.6292   651.1    3.141      69.227
2015    5       12    16   5    4.6259   651.2    3.139      69.209
2015    5       12    16  10    4.6227   651.2    3.136      69.190
2015    5       12    16  16    4.6194   651.3    3.134      69.171
2015    5       12    16  22    4.6162   651.4    3.132      69.151
2015    5       12    16  28    4.6130   651.4    3.130      69.131
2015    5       12    16  33    4.6098   651.5    3.127      69.109
2015    5       12    16  39    4.6066   651.5    3.125      69.086
2015    5       12    16  45    4.6034   651.6    3.123      69.063
2015    5       12    16  50    4.6002   651.6    3.120      69.038
2015    5       12    16  56    4.5970   651.7    3.118      69.013
2015    5       12    17   2    4.5938   651.7    3.115      68.987
2015    5       12    17   8    4.5906   651.8    3.113      68.960
2015    5       12    17  13    4.5874   651.8    3.110      68.932
2015    5       12    17  19    4.5842   651.8    3.108      68.903
2015    5       12    17  25    4.5810   651.9    3.105      68.874
2015    5       12    17  30    4.5778   651.9    3.103      68.844
2015    5       12    17  36    4.5747   652.0    3.100      68.813
2015    5       12    17  42    4.5715   652.0    3.098      68.782
2015    5       12    17  47    4.5683   652.0    3.095      68.750
2015    5       12    17  53    4.5652   652.1    3.092      68.717
2015    5       12    17  59    4.5621   652.1    3.090      68.684
2015    5       12    18   5    4.5589   652.1    3.087      68.651
2015    5       12    18  10    4.5558   652.2    3.085      68.617
2015    5       12    18  16    4.5527   652.2    3.082      68.583
2015    5       12    18  22    4.5496   652.2    3.079      68.548
2015    5       12    18  27    4.5465   652.3    3.077      68.514
2015    5       12    18  33    4.5434   652.3    3.074      68.479
2015    5       12    18  39    4.5403   652.3    3.071      68.444
2015    5       12    18  44    4.5373   652.3    3.069      68.410
2015    5       12    18  50    4.5342   652.4    3.066      68.375
2015    5       12    18  56    4.5312   652.4    3.064      68.341
2015    5       12    19   2    4.5282   652.4    3.062      68.308
2015    5       12    19   7    4.5252   652.4    3.059      68.275
2015    5       12    19  13    4.5223   652.4    3.057      68.242
2015    5       12    19  19    4.5194   652.5    3.055      68.211
2015    5       12    19  24    4.5164   652.5    3.053      68.180
2015    5       12    19  30    4.5136   652.5    3.051      68.150
2015    5       12    19  36    4.5107   652.5    3.049      68.122
2015    5       12    19  41    4.5079   652.5    3.047      68.095
2015    5       12    19  47    4.5052   652.5    3.045      68.069
2015    5       12    19  53    4.5024   652.6    3.044      68.044
2015    5       12    19  59    4.4997   652.6    3.042      68.021
2015    5       12    20   4    4.4971   652.6    3.041      68.000
2015    5       12    20  10    4.4944   652.6    3.039      67.980
2015    5       12    20  16    4.4918   652.6    3.038      67.961
2015    5       12    20  21    4.4893   652.6    3.037      67.944
2015    5       12    20  27    4.4867   652.7    3.036      67.928
2015    5       12    20  33    4.4842   652.7    3.035      67.914
2015    5       12    20  39    4.4816   652.7    3.034      67.902
2015    5       12    20  44    4.4791   652.7    3.033      67.891
2015    5       12    20  50    4.4766   652.7    3.032      67.883
2015    5       12    20  56    4.4740   652.8    3.031      67.875
2015    5       12    21   1    4.4715   652.8    3.030      67.869
2015    5       12    21   7    4.4689   652.8    3.029      67.862
2015    5       12    21  13    4.4663   652.8    3.028      67.855
2015    5       12    21  18    4.4637   652.9    3.027      67.848
2015    5       12    21  24    4.4610   652.9    3.026      67.841
2015    5       12    21  30    4.4584   652.9    3.025      67.833
2015    5       12    21  36    4.4557   652.9    3.024      67.825
2015    5       12    21  41    4.4531   653.0    3.023      67.816
2015    5       12    21  47    4.4504   653.0    3.022      67.806
2015    5       12    21  53    4.4477   653.0    3.021      67.796
2015    5       12    21  58    4.4449   653.0    3.020      67.785
2015    5       12    22   4    4.4422   653.0    3.018      67.772
2015    5       12    22  10    4.4395   653.0    3.017      67.759
2015    5       12    22  15    4.4367   653.1    3.016      67.745
2015    5       12    22  21    4.4340   653.1    3.014      67.730
2015    5       12    22  27    4.4312   653.1    3.013      67.715
2015    5       12    22  33    4.4284   653.1    3.011      67.698
2015    5       12    22  38    4.4257   653.1    3.010      67.680
2015    5       12    22  44    4.4229   653.1    3.008      67.662
2015    5       12    22  50    4.4201   653.1    3.007      67.642
2015    5       12    22  55    4.4173   653.1    3.005      67.622
2015    5       12    23   1    4.4145   653.1    3.004      67.601
2015    5       12    23   7    4.4117   653.1    3.002      67.579
2015    5       12    23  12    4.4089   653.2    3.000      67.556
2015    5       12    23  18    4.4060   653.2    2.999      67.532
2015    5       12    23  24    4.4032   653.2    2.997      67.507
2015    5       12    23  30    4.4004   653.2    2.995      67.482
2015    5       12    23  35    4.3975   653.2    2.994      67.456
2015    5       12    23  41    4.3947   653.2    2.992      67.429
2015    5       12    23  47    4.3918   653.2    2.990      67.400
2015    5       12    23  52    4.3890   653.2    2.988      67.371
2015    5       12    23  58    4.3861   653.2    2.986      67.340
2015    5       13     0   4    4.3832   653.2    2.984      67.308
