year    month   day   hour  minute  B_enl V_enl   n_enl       T_enl
[year] [month] [day] [hour][minute] [nT]  [km/s]  [cm-3]      [kK]
2015    5        4     0   2    4.1521   494.6    4.217      42.139
2015    5        4     0   8    4.1506   494.5    4.216      42.109
2015    5        4     0  14    4.1492   494.3    4.216      42.079
2015    5        4     0  20    4.1477   494.2    4.216      42.049
2015    5        4     0  25    4.1463   494.1    4.215      42.019
2015    5        4     0  31    4.1448   494.0    4.215      41.989
2015    5        4     0  37    4.1434   493.8    4.214      41.959
2015    5        4     0  42    4.1419   493.7    4.214      41.929
2015    5        4     0  48    4.1405   493.6    4.214      41.898
2015    5        4     0  54    4.1390   493.4    4.214      41.868
2015    5        4     1   0    4.1376   493.3    4.213      41.837
2015    5        4     1   5    4.1361   493.1    4.213      41.806
2015    5        4     1  11    4.1347   493.0    4.213      41.776
2015    5        4     1  17    4.1333   492.9    4.213      41.745
2015    5        4     1  22    4.1318   492.7    4.213      41.714
2015    5        4     1  28    4.1304   492.6    4.213      41.683
2015    5        4     1  34    4.1290   492.5    4.213      41.653
2015    5        4     1  40    4.1276   492.3    4.213      41.622
2015    5        4     1  45    4.1262   492.2    4.213      41.591
2015    5        4     1  51    4.1249   492.0    4.213      41.561
2015    5        4     1  57    4.1235   491.9    4.213      41.531
2015    5        4     2   3    4.1222   491.7    4.214      41.500
2015    5        4     2   8    4.1209   491.6    4.214      41.471
2015    5        4     2  14    4.1196   491.4    4.215      41.441
2015    5        4     2  20    4.1183   491.3    4.215      41.411
2015    5        4     2  25    4.1171   491.2    4.216      41.382
2015    5        4     2  31    4.1158   491.0    4.217      41.353
2015    5        4     2  37    4.1146   490.9    4.218      41.325
2015    5        4     2  43    4.1135   490.7    4.219      41.297
2015    5        4     2  48    4.1123   490.6    4.220      41.269
2015    5        4     2  54    4.1112   490.4    4.221      41.242
2015    5        4     3   0    4.1101   490.3    4.222      41.215
2015    5        4     3   5    4.1090   490.1    4.223      41.190
2015    5        4     3  11    4.1080   490.0    4.224      41.164
2015    5        4     3  17    4.1069   489.8    4.226      41.139
2015    5        4     3  23    4.1059   489.7    4.227      41.115
2015    5        4     3  28    4.1049   489.5    4.229      41.091
2015    5        4     3  34    4.1040   489.4    4.231      41.068
2015    5        4     3  40    4.1030   489.2    4.232      41.045
2015    5        4     3  46    4.1021   489.1    4.234      41.023
2015    5        4     3  51    4.1012   488.9    4.236      41.002
2015    5        4     3  57    4.1003   488.8    4.238      40.982
2015    5        4     4   3    4.0994   488.6    4.240      40.961
2015    5        4     4   8    4.0985   488.5    4.241      40.941
2015    5        4     4  14    4.0976   488.3    4.243      40.921
2015    5        4     4  20    4.0967   488.2    4.245      40.902
2015    5        4     4  26    4.0959   488.0    4.247      40.882
2015    5        4     4  31    4.0950   487.9    4.249      40.862
2015    5        4     4  37    4.0941   487.7    4.251      40.843
2015    5        4     4  43    4.0933   487.6    4.253      40.824
2015    5        4     4  48    4.0924   487.5    4.255      40.804
2015    5        4     4  54    4.0916   487.3    4.258      40.785
2015    5        4     5   0    4.0907   487.2    4.260      40.765
2015    5        4     5   6    4.0899   487.0    4.262      40.745
2015    5        4     5  11    4.0890   486.9    4.264      40.725
2015    5        4     5  17    4.0881   486.7    4.266      40.705
2015    5        4     5  23    4.0872   486.6    4.268      40.685
2015    5        4     5  29    4.0864   486.4    4.269      40.665
2015    5        4     5  34    4.0855   486.3    4.271      40.644
2015    5        4     5  40    4.0846   486.1    4.273      40.623
2015    5        4     5  46    4.0836   486.0    4.275      40.602
2015    5        4     5  51    4.0827   485.8    4.277      40.581
2015    5        4     5  57    4.0818   485.7    4.279      40.560
2015    5        4     6   3    4.0809   485.5    4.280      40.538
2015    5        4     6   9    4.0799   485.4    4.282      40.516
2015    5        4     6  14    4.0790   485.2    4.283      40.494
2015    5        4     6  20    4.0781   485.1    4.285      40.471
2015    5        4     6  26    4.0771   484.9    4.286      40.449
2015    5        4     6  31    4.0762   484.8    4.288      40.426
2015    5        4     6  37    4.0752   484.6    4.289      40.403
2015    5        4     6  43    4.0743   484.5    4.291      40.380
2015    5        4     6  49    4.0733   484.3    4.292      40.356
2015    5        4     6  54    4.0724   484.2    4.293      40.332
2015    5        4     7   0    4.0715   484.0    4.295      40.308
2015    5        4     7   6    4.0706   483.8    4.296      40.284
2015    5        4     7  12    4.0696   483.7    4.297      40.260
2015    5        4     7  17    4.0687   483.5    4.299      40.235
2015    5        4     7  23    4.0678   483.4    4.300      40.210
2015    5        4     7  29    4.0669   483.2    4.301      40.185
2015    5        4     7  34    4.0660   483.1    4.302      40.160
2015    5        4     7  40    4.0652   482.9    4.303      40.135
2015    5        4     7  46    4.0643   482.8    4.304      40.109
2015    5        4     7  52    4.0634   482.6    4.305      40.083
2015    5        4     7  57    4.0626   482.4    4.306      40.057
2015    5        4     8   3    4.0617   482.3    4.308      40.031
2015    5        4     8   9    4.0609   482.1    4.309      40.005
2015    5        4     8  14    4.0600   482.0    4.310      39.979
2015    5        4     8  20    4.0591   481.8    4.311      39.952
2015    5        4     8  26    4.0583   481.7    4.312      39.926
2015    5        4     8  32    4.0575   481.5    4.313      39.899
2015    5        4     8  37    4.0566   481.3    4.314      39.871
2015    5        4     8  43    4.0558   481.2    4.315      39.844
2015    5        4     8  49    4.0549   481.0    4.316      39.816
2015    5        4     8  55    4.0541   480.8    4.317      39.788
2015    5        4     9   0    4.0533   480.7    4.318      39.761
2015    5        4     9   6    4.0525   480.5    4.319      39.732
2015    5        4     9  12    4.0517   480.4    4.320      39.704
2015    5        4     9  17    4.0509   480.2    4.321      39.675
2015    5        4     9  23    4.0502   480.0    4.322      39.647
2015    5        4     9  29    4.0494   479.9    4.323      39.618
2015    5        4     9  35    4.0486   479.7    4.324      39.589
2015    5        4     9  40    4.0479   479.5    4.325      39.560
2015    5        4     9  46    4.0472   479.4    4.326      39.531
2015    5        4     9  52    4.0464   479.2    4.328      39.502
2015    5        4     9  57    4.0457   479.0    4.329      39.473
2015    5        4    10   3    4.0450   478.8    4.330      39.444
2015    5        4    10   9    4.0444   478.7    4.332      39.415
2015    5        4    10  15    4.0437   478.5    4.333      39.386
2015    5        4    10  20    4.0431   478.3    4.335      39.358
2015    5        4    10  26    4.0424   478.2    4.337      39.330
2015    5        4    10  32    4.0418   478.0    4.338      39.302
2015    5        4    10  38    4.0412   477.8    4.340      39.274
2015    5        4    10  43    4.0407   477.6    4.342      39.247
2015    5        4    10  49    4.0401   477.5    4.344      39.219
2015    5        4    10  55    4.0396   477.3    4.346      39.193
2015    5        4    11   0    4.0391   477.1    4.348      39.166
2015    5        4    11   6    4.0386   477.0    4.351      39.140
2015    5        4    11  12    4.0381   476.8    4.353      39.115
2015    5        4    11  18    4.0377   476.6    4.355      39.090
2015    5        4    11  23    4.0372   476.4    4.358      39.065
2015    5        4    11  29    4.0368   476.3    4.360      39.040
2015    5        4    11  35    4.0364   476.1    4.363      39.016
2015    5        4    11  40    4.0361   475.9    4.366      38.992
2015    5        4    11  46    4.0357   475.8    4.369      38.969
2015    5        4    11  52    4.0354   475.6    4.372      38.945
2015    5        4    11  58    4.0350   475.4    4.375      38.922
2015    5        4    12   3    4.0347   475.3    4.378      38.900
2015    5        4    12   9    4.0344   475.1    4.381      38.877
2015    5        4    12  15    4.0340   474.9    4.384      38.855
2015    5        4    12  20    4.0338   474.7    4.387      38.833
2015    5        4    12  26    4.0335   474.6    4.390      38.811
2015    5        4    12  32    4.0332   474.4    4.393      38.789
2015    5        4    12  38    4.0329   474.2    4.397      38.767
2015    5        4    12  43    4.0326   474.1    4.400      38.746
2015    5        4    12  49    4.0323   473.9    4.403      38.724
2015    5        4    12  55    4.0321   473.7    4.407      38.703
2015    5        4    13   1    4.0318   473.5    4.410      38.682
2015    5        4    13   6    4.0316   473.4    4.413      38.661
2015    5        4    13  12    4.0314   473.2    4.417      38.640
2015    5        4    13  18    4.0312   473.0    4.420      38.620
2015    5        4    13  23    4.0310   472.8    4.424      38.599
2015    5        4    13  29    4.0308   472.6    4.427      38.579
2015    5        4    13  35    4.0306   472.5    4.431      38.559
2015    5        4    13  41    4.0305   472.3    4.434      38.540
2015    5        4    13  46    4.0303   472.1    4.438      38.520
2015    5        4    13  52    4.0302   471.9    4.442      38.501
2015    5        4    13  58    4.0301   471.8    4.445      38.482
2015    5        4    14   3    4.0300   471.6    4.449      38.464
2015    5        4    14   9    4.0299   471.4    4.453      38.445
2015    5        4    14  15    4.0299   471.2    4.456      38.427
2015    5        4    14  21    4.0298   471.1    4.460      38.409
2015    5        4    14  26    4.0298   470.9    4.464      38.391
2015    5        4    14  32    4.0298   470.7    4.468      38.373
2015    5        4    14  38    4.0299   470.5    4.472      38.356
2015    5        4    14  44    4.0299   470.4    4.476      38.339
2015    5        4    14  49    4.0300   470.2    4.480      38.322
2015    5        4    14  55    4.0301   470.0    4.484      38.306
2015    5        4    15   1    4.0301   469.9    4.488      38.290
2015    5        4    15   6    4.0302   469.7    4.492      38.274
2015    5        4    15  12    4.0303   469.5    4.496      38.258
2015    5        4    15  18    4.0304   469.4    4.500      38.242
2015    5        4    15  24    4.0305   469.2    4.504      38.227
2015    5        4    15  29    4.0307   469.0    4.508      38.211
2015    5        4    15  35    4.0308   468.9    4.512      38.195
2015    5        4    15  41    4.0309   468.7    4.516      38.180
2015    5        4    15  46    4.0310   468.5    4.520      38.164
2015    5        4    15  52    4.0311   468.4    4.524      38.148
2015    5        4    15  58    4.0312   468.2    4.528      38.132
2015    5        4    16   4    4.0313   468.0    4.532      38.116
2015    5        4    16   9    4.0314   467.9    4.536      38.100
2015    5        4    16  15    4.0316   467.7    4.540      38.083
2015    5        4    16  21    4.0317   467.5    4.544      38.066
2015    5        4    16  27    4.0318   467.4    4.548      38.048
2015    5        4    16  32    4.0319   467.2    4.551      38.031
2015    5        4    16  38    4.0320   467.1    4.555      38.013
2015    5        4    16  44    4.0321   466.9    4.558      37.995
2015    5        4    16  49    4.0323   466.7    4.562      37.976
2015    5        4    16  55    4.0324   466.6    4.566      37.957
2015    5        4    17   1    4.0325   466.4    4.569      37.938
2015    5        4    17   7    4.0327   466.2    4.573      37.919
2015    5        4    17  12    4.0328   466.1    4.576      37.899
2015    5        4    17  18    4.0329   465.9    4.580      37.879
2015    5        4    17  24    4.0331   465.7    4.583      37.859
2015    5        4    17  29    4.0332   465.6    4.586      37.839
2015    5        4    17  35    4.0334   465.4    4.590      37.819
2015    5        4    17  41    4.0335   465.2    4.593      37.798
2015    5        4    17  47    4.0337   465.1    4.596      37.778
2015    5        4    17  52    4.0339   464.9    4.600      37.757
2015    5        4    17  58    4.0341   464.7    4.603      37.736
2015    5        4    18   4    4.0343   464.6    4.606      37.715
2015    5        4    18  10    4.0345   464.4    4.610      37.694
2015    5        4    18  15    4.0347   464.3    4.613      37.673
2015    5        4    18  21    4.0349   464.1    4.616      37.652
2015    5        4    18  27    4.0352   463.9    4.620      37.631
2015    5        4    18  32    4.0354   463.8    4.623      37.610
2015    5        4    18  38    4.0357   463.6    4.627      37.589
2015    5        4    18  44    4.0360   463.4    4.630      37.568
2015    5        4    18  50    4.0362   463.3    4.633      37.547
2015    5        4    18  55    4.0366   463.1    4.637      37.526
2015    5        4    19   1    4.0369   462.9    4.640      37.505
2015    5        4    19   7    4.0372   462.8    4.644      37.484
2015    5        4    19  12    4.0376   462.6    4.647      37.463
2015    5        4    19  18    4.0379   462.5    4.651      37.443
2015    5        4    19  24    4.0383   462.3    4.655      37.422
2015    5        4    19  30    4.0387   462.1    4.658      37.402
2015    5        4    19  35    4.0392   462.0    4.662      37.381
2015    5        4    19  41    4.0396   461.8    4.666      37.361
2015    5        4    19  47    4.0400   461.6    4.669      37.341
2015    5        4    19  53    4.0405   461.5    4.673      37.322
2015    5        4    19  58    4.0410   461.3    4.677      37.302
2015    5        4    20   4    4.0415   461.2    4.681      37.283
2015    5        4    20  10    4.0421   461.0    4.685      37.264
2015    5        4    20  15    4.0426   460.8    4.689      37.245
2015    5        4    20  21    4.0432   460.7    4.693      37.226
2015    5        4    20  27    4.0438   460.5    4.697      37.207
2015    5        4    20  33    4.0444   460.4    4.701      37.189
2015    5        4    20  38    4.0450   460.2    4.706      37.171
2015    5        4    20  44    4.0456   460.0    4.710      37.154
2015    5        4    20  50    4.0462   459.9    4.714      37.136
2015    5        4    20  55    4.0469   459.7    4.719      37.119
2015    5        4    21   1    4.0476   459.6    4.723      37.102
2015    5        4    21   7    4.0482   459.4    4.728      37.085
2015    5        4    21  13    4.0489   459.2    4.732      37.069
2015    5        4    21  18    4.0496   459.1    4.737      37.053
2015    5        4    21  24    4.0504   458.9    4.741      37.037
2015    5        4    21  30    4.0511   458.8    4.746      37.022
2015    5        4    21  36    4.0518   458.6    4.751      37.007
2015    5        4    21  41    4.0526   458.5    4.756      36.992
2015    5        4    21  47    4.0534   458.3    4.761      36.978
2015    5        4    21  53    4.0542   458.2    4.765      36.964
2015    5        4    21  58    4.0550   458.0    4.770      36.950
2015    5        4    22   4    4.0558   457.9    4.776      36.936
2015    5        4    22  10    4.0567   457.7    4.781      36.923
2015    5        4    22  16    4.0575   457.5    4.786      36.910
2015    5        4    22  21    4.0584   457.4    4.791      36.898
2015    5        4    22  27    4.0593   457.2    4.796      36.886
2015    5        4    22  33    4.0602   457.1    4.801      36.873
2015    5        4    22  38    4.0611   457.0    4.807      36.862
2015    5        4    22  44    4.0620   456.8    4.812      36.850
2015    5        4    22  50    4.0629   456.7    4.817      36.839
2015    5        4    22  56    4.0638   456.5    4.822      36.828
2015    5        4    23   1    4.0647   456.4    4.828      36.817
2015    5        4    23   7    4.0656   456.2    4.833      36.806
2015    5        4    23  13    4.0666   456.1    4.838      36.795
2015    5        4    23  18    4.0675   455.9    4.844      36.784
2015    5        4    23  24    4.0684   455.8    4.849      36.773
2015    5        4    23  30    4.0693   455.7    4.854      36.763
2015    5        4    23  36    4.0703   455.5    4.860      36.752
2015    5        4    23  41    4.0712   455.4    4.865      36.741
2015    5        4    23  47    4.0721   455.2    4.870      36.730
2015    5        4    23  53    4.0731   455.1    4.875      36.719
2015    5        4    23  59    4.0740   454.9    4.881      36.708
2015    5        5     0   4    4.0750   454.8    4.886      36.697
2015    5        5     0  10    4.0759   454.7    4.891      36.686
2015    5        5     0  16    4.0768   454.5    4.896      36.675
2015    5        5     0  21    4.0778   454.4    4.901      36.664
2015    5        5     0  27    4.0787   454.3    4.906      36.654
2015    5        5     0  33    4.0797   454.1    4.911      36.642
2015    5        5     0  39    4.0806   454.0    4.916      36.631
2015    5        5     0  44    4.0816   453.8    4.921      36.620
2015    5        5     0  50    4.0826   453.7    4.926      36.609
2015    5        5     0  56    4.0835   453.6    4.931      36.598
2015    5        5     1   1    4.0845   453.4    4.936      36.587
2015    5        5     1   7    4.0854   453.3    4.940      36.575
2015    5        5     1  13    4.0864   453.2    4.945      36.564
2015    5        5     1  19    4.0874   453.0    4.950      36.553
2015    5        5     1  24    4.0884   452.9    4.955      36.541
2015    5        5     1  30    4.0893   452.8    4.959      36.530
2015    5        5     1  36    4.0903   452.6    4.964      36.518
2015    5        5     1  42    4.0913   452.5    4.969      36.507
2015    5        5     1  47    4.0923   452.4    4.973      36.495
2015    5        5     1  53    4.0933   452.2    4.978      36.483
2015    5        5     1  59    4.0943   452.1    4.983      36.471
2015    5        5     2   4    4.0953   452.0    4.987      36.460
2015    5        5     2  10    4.0963   451.8    4.992      36.448
2015    5        5     2  16    4.0973   451.7    4.996      36.436
2015    5        5     2  22    4.0983   451.6    5.001      36.423
2015    5        5     2  27    4.0993   451.4    5.005      36.411
2015    5        5     2  33    4.1003   451.3    5.010      36.399
2015    5        5     2  39    4.1014   451.2    5.014      36.386
2015    5        5     2  44    4.1024   451.1    5.018      36.374
2015    5        5     2  50    4.1034   450.9    5.023      36.361
2015    5        5     2  56    4.1045   450.8    5.027      36.349
2015    5        5     3   2    4.1055   450.7    5.032      36.336
2015    5        5     3   7    4.1066   450.6    5.036      36.323
2015    5        5     3  13    4.1077   450.4    5.040      36.310
2015    5        5     3  19    4.1087   450.3    5.045      36.297
2015    5        5     3  25    4.1098   450.2    5.049      36.285
2015    5        5     3  30    4.1109   450.0    5.053      36.272
2015    5        5     3  36    4.1120   449.9    5.058      36.259
2015    5        5     3  42    4.1131   449.8    5.062      36.246
2015    5        5     3  47    4.1142   449.7    5.066      36.233
2015    5        5     3  53    4.1153   449.5    5.070      36.220
2015    5        5     3  59    4.1164   449.4    5.075      36.207
2015    5        5     4   5    4.1175   449.3    5.079      36.194
2015    5        5     4  10    4.1186   449.2    5.083      36.181
2015    5        5     4  16    4.1198   449.0    5.088      36.169
2015    5        5     4  22    4.1209   448.9    5.092      36.156
2015    5        5     4  27    4.1221   448.8    5.096      36.143
2015    5        5     4  33    4.1232   448.7    5.101      36.131
2015    5        5     4  39    4.1244   448.6    5.105      36.119
2015    5        5     4  45    4.1256   448.4    5.110      36.106
2015    5        5     4  50    4.1268   448.3    5.114      36.094
2015    5        5     4  56    4.1280   448.2    5.119      36.083
2015    5        5     5   2    4.1292   448.1    5.123      36.071
2015    5        5     5   8    4.1304   447.9    5.128      36.059
2015    5        5     5  13    4.1316   447.8    5.132      36.048
2015    5        5     5  19    4.1329   447.7    5.137      36.037
2015    5        5     5  25    4.1341   447.6    5.141      36.026
2015    5        5     5  30    4.1354   447.5    5.146      36.015
2015    5        5     5  36    4.1366   447.4    5.151      36.005
2015    5        5     5  42    4.1379   447.2    5.155      35.994
2015    5        5     5  48    4.1392   447.1    5.160      35.984
2015    5        5     5  53    4.1405   447.0    5.165      35.974
2015    5        5     5  59    4.1417   446.9    5.169      35.964
2015    5        5     6   5    4.1430   446.8    5.174      35.954
2015    5        5     6  10    4.1443   446.7    5.179      35.945
2015    5        5     6  16    4.1456   446.6    5.184      35.936
2015    5        5     6  22    4.1470   446.4    5.189      35.926
2015    5        5     6  28    4.1483   446.3    5.193      35.917
2015    5        5     6  33    4.1496   446.2    5.198      35.909
2015    5        5     6  39    4.1509   446.1    5.203      35.900
2015    5        5     6  45    4.1522   446.0    5.208      35.891
2015    5        5     6  51    4.1536   445.9    5.213      35.883
2015    5        5     6  56    4.1549   445.8    5.218      35.875
2015    5        5     7   2    4.1562   445.7    5.222      35.866
2015    5        5     7   8    4.1575   445.6    5.227      35.858
2015    5        5     7  13    4.1589   445.5    5.232      35.850
2015    5        5     7  19    4.1602   445.3    5.237      35.843
2015    5        5     7  25    4.1615   445.2    5.242      35.835
2015    5        5     7  31    4.1629   445.1    5.247      35.827
2015    5        5     7  36    4.1642   445.0    5.252      35.819
2015    5        5     7  42    4.1656   444.9    5.257      35.812
2015    5        5     7  48    4.1669   444.8    5.261      35.804
2015    5        5     7  53    4.1682   444.7    5.266      35.797
2015    5        5     7  59    4.1696   444.6    5.271      35.790
2015    5        5     8   5    4.1710   444.5    5.276      35.783
2015    5        5     8  11    4.1723   444.4    5.281      35.775
2015    5        5     8  16    4.1737   444.3    5.286      35.768
2015    5        5     8  22    4.1750   444.2    5.290      35.761
2015    5        5     8  28    4.1764   444.1    5.295      35.754
2015    5        5     8  33    4.1778   444.0    5.300      35.747
2015    5        5     8  39    4.1791   443.9    5.305      35.740
2015    5        5     8  45    4.1805   443.8    5.310      35.733
2015    5        5     8  51    4.1819   443.7    5.315      35.726
2015    5        5     8  56    4.1832   443.6    5.320      35.719
2015    5        5     9   2    4.1846   443.5    5.324      35.713
2015    5        5     9   8    4.1860   443.4    5.329      35.706
2015    5        5     9  14    4.1873   443.3    5.334      35.699
2015    5        5     9  19    4.1887   443.2    5.339      35.692
2015    5        5     9  25    4.1900   443.1    5.344      35.685
2015    5        5     9  31    4.1914   443.0    5.349      35.678
2015    5        5     9  36    4.1927   442.9    5.353      35.671
2015    5        5     9  42    4.1941   442.8    5.358      35.664
2015    5        5     9  48    4.1954   442.7    5.363      35.656
2015    5        5     9  54    4.1968   442.6    5.368      35.649
2015    5        5     9  59    4.1981   442.5    5.372      35.642
2015    5        5    10   5    4.1994   442.4    5.377      35.634
2015    5        5    10  11    4.2008   442.3    5.382      35.627
2015    5        5    10  16    4.2021   442.2    5.386      35.619
2015    5        5    10  22    4.2035   442.1    5.391      35.611
2015    5        5    10  28    4.2048   442.0    5.395      35.604
2015    5        5    10  34    4.2062   441.9    5.400      35.596
2015    5        5    10  39    4.2075   441.8    5.405      35.588
2015    5        5    10  45    4.2089   441.7    5.409      35.580
2015    5        5    10  51    4.2102   441.6    5.414      35.572
2015    5        5    10  57    4.2116   441.5    5.418      35.563
2015    5        5    11   2    4.2129   441.4    5.423      35.555
2015    5        5    11   8    4.2143   441.3    5.427      35.547
2015    5        5    11  14    4.2157   441.2    5.431      35.539
2015    5        5    11  19    4.2170   441.1    5.436      35.531
2015    5        5    11  25    4.2184   441.0    5.440      35.523
2015    5        5    11  31    4.2198   440.9    5.445      35.514
2015    5        5    11  37    4.2212   440.8    5.449      35.506
2015    5        5    11  42    4.2225   440.7    5.453      35.498
2015    5        5    11  48    4.2239   440.6    5.458      35.490
2015    5        5    11  54    4.2253   440.5    5.462      35.482
2015    5        5    11  59    4.2267   440.4    5.466      35.474
2015    5        5    12   5    4.2281   440.3    5.471      35.466
2015    5        5    12  11    4.2295   440.2    5.475      35.458
2015    5        5    12  17    4.2309   440.1    5.479      35.451
2015    5        5    12  22    4.2324   440.0    5.484      35.443
2015    5        5    12  28    4.2338   439.9    5.488      35.436
2015    5        5    12  34    4.2352   439.8    5.492      35.428
2015    5        5    12  40    4.2367   439.7    5.496      35.421
2015    5        5    12  45    4.2381   439.7    5.501      35.414
2015    5        5    12  51    4.2396   439.6    5.505      35.407
2015    5        5    12  57    4.2411   439.5    5.509      35.401
2015    5        5    13   2    4.2425   439.4    5.514      35.394
2015    5        5    13   8    4.2440   439.3    5.518      35.388
2015    5        5    13  14    4.2455   439.2    5.522      35.381
2015    5        5    13  20    4.2470   439.1    5.527      35.375
2015    5        5    13  25    4.2485   439.0    5.531      35.370
2015    5        5    13  31    4.2500   438.9    5.535      35.364
2015    5        5    13  37    4.2515   438.8    5.539      35.358
2015    5        5    13  42    4.2530   438.7    5.544      35.353
2015    5        5    13  48    4.2546   438.6    5.548      35.348
2015    5        5    13  54    4.2561   438.6    5.553      35.343
2015    5        5    14   0    4.2577   438.5    5.557      35.339
2015    5        5    14   5    4.2592   438.4    5.561      35.334
2015    5        5    14  11    4.2608   438.3    5.566      35.330
2015    5        5    14  17    4.2624   438.2    5.570      35.326
2015    5        5    14  23    4.2640   438.1    5.575      35.322
2015    5        5    14  28    4.2656   438.0    5.579      35.318
2015    5        5    14  34    4.2672   437.9    5.584      35.315
2015    5        5    14  40    4.2688   437.9    5.588      35.311
2015    5        5    14  45    4.2704   437.8    5.593      35.308
2015    5        5    14  51    4.2721   437.7    5.597      35.305
2015    5        5    14  57    4.2737   437.6    5.602      35.302
2015    5        5    15   3    4.2754   437.5    5.606      35.300
2015    5        5    15   8    4.2771   437.4    5.611      35.297
2015    5        5    15  14    4.2787   437.4    5.615      35.295
2015    5        5    15  20    4.2804   437.3    5.620      35.293
2015    5        5    15  25    4.2821   437.2    5.625      35.291
2015    5        5    15  31    4.2839   437.1    5.629      35.289
2015    5        5    15  37    4.2856   437.0    5.634      35.287
2015    5        5    15  43    4.2873   436.9    5.639      35.285
2015    5        5    15  48    4.2890   436.9    5.644      35.284
2015    5        5    15  54    4.2908   436.8    5.648      35.282
2015    5        5    16   0    4.2925   436.7    5.653      35.281
2015    5        5    16   5    4.2943   436.6    5.658      35.280
2015    5        5    16  11    4.2960   436.6    5.663      35.279
2015    5        5    16  17    4.2977   436.5    5.668      35.277
2015    5        5    16  23    4.2995   436.4    5.673      35.276
2015    5        5    16  28    4.3012   436.3    5.677      35.275
2015    5        5    16  34    4.3029   436.2    5.682      35.274
2015    5        5    16  40    4.3046   436.2    5.687      35.273
2015    5        5    16  46    4.3063   436.1    5.692      35.272
2015    5        5    16  51    4.3080   436.0    5.697      35.270
2015    5        5    16  57    4.3097   436.0    5.701      35.269
2015    5        5    17   3    4.3114   435.9    5.706      35.267
2015    5        5    17   8    4.3131   435.8    5.711      35.266
2015    5        5    17  14    4.3148   435.7    5.716      35.264
2015    5        5    17  20    4.3165   435.7    5.720      35.262
2015    5        5    17  26    4.3182   435.6    5.725      35.260
2015    5        5    17  31    4.3198   435.5    5.730      35.258
2015    5        5    17  37    4.3215   435.4    5.734      35.256
2015    5        5    17  43    4.3232   435.4    5.739      35.253
2015    5        5    17  48    4.3248   435.3    5.743      35.251
2015    5        5    17  54    4.3265   435.2    5.748      35.248
2015    5        5    18   0    4.3281   435.1    5.752      35.245
2015    5        5    18   6    4.3298   435.1    5.757      35.242
2015    5        5    18  11    4.3314   435.0    5.761      35.239
2015    5        5    18  17    4.3331   434.9    5.765      35.236
2015    5        5    18  23    4.3347   434.9    5.770      35.233
2015    5        5    18  29    4.3364   434.8    5.774      35.230
2015    5        5    18  34    4.3380   434.7    5.779      35.226
2015    5        5    18  40    4.3397   434.6    5.783      35.223
2015    5        5    18  46    4.3413   434.6    5.787      35.219
2015    5        5    18  51    4.3430   434.5    5.791      35.216
2015    5        5    18  57    4.3446   434.4    5.796      35.212
2015    5        5    19   3    4.3463   434.4    5.800      35.209
2015    5        5    19   9    4.3479   434.3    5.804      35.205
2015    5        5    19  14    4.3496   434.2    5.808      35.201
2015    5        5    19  20    4.3513   434.1    5.812      35.198
2015    5        5    19  26    4.3529   434.1    5.817      35.194
2015    5        5    19  31    4.3546   434.0    5.821      35.191
2015    5        5    19  37    4.3563   433.9    5.825      35.187
2015    5        5    19  43    4.3580   433.9    5.829      35.184
2015    5        5    19  49    4.3597   433.8    5.833      35.181
2015    5        5    19  54    4.3613   433.7    5.837      35.177
2015    5        5    20   0    4.3630   433.6    5.841      35.174
2015    5        5    20   6    4.3647   433.6    5.845      35.171
2015    5        5    20  12    4.3664   433.5    5.849      35.169
2015    5        5    20  17    4.3681   433.4    5.853      35.166
2015    5        5    20  23    4.3698   433.4    5.858      35.163
2015    5        5    20  29    4.3716   433.3    5.862      35.161
2015    5        5    20  34    4.3733   433.2    5.866      35.159
2015    5        5    20  40    4.3750   433.2    5.870      35.157
2015    5        5    20  46    4.3767   433.1    5.874      35.155
2015    5        5    20  52    4.3785   433.0    5.878      35.153
2015    5        5    20  57    4.3802   433.0    5.882      35.152
2015    5        5    21   3    4.3820   432.9    5.886      35.151
2015    5        5    21   9    4.3838   432.8    5.890      35.150
2015    5        5    21  14    4.3855   432.7    5.894      35.149
2015    5        5    21  20    4.3873   432.7    5.898      35.148
2015    5        5    21  26    4.3891   432.6    5.902      35.148
2015    5        5    21  32    4.3909   432.5    5.906      35.148
2015    5        5    21  37    4.3927   432.5    5.911      35.148
2015    5        5    21  43    4.3945   432.4    5.915      35.149
2015    5        5    21  49    4.3964   432.3    5.919      35.149
2015    5        5    21  55    4.3982   432.3    5.923      35.150
2015    5        5    22   0    4.4001   432.2    5.927      35.151
2015    5        5    22   6    4.4019   432.2    5.932      35.153
2015    5        5    22  12    4.4038   432.1    5.936      35.154
2015    5        5    22  17    4.4057   432.0    5.940      35.156
2015    5        5    22  23    4.4076   432.0    5.944      35.158
2015    5        5    22  29    4.4095   431.9    5.949      35.160
2015    5        5    22  35    4.4114   431.8    5.953      35.162
2015    5        5    22  40    4.4133   431.8    5.957      35.165
2015    5        5    22  46    4.4152   431.7    5.962      35.167
2015    5        5    22  52    4.4172   431.6    5.966      35.170
2015    5        5    22  57    4.4191   431.6    5.970      35.173
2015    5        5    23   3    4.4211   431.5    5.975      35.176
2015    5        5    23   9    4.4230   431.5    5.979      35.179
2015    5        5    23  15    4.4250   431.4    5.984      35.182
2015    5        5    23  20    4.4269   431.3    5.988      35.185
2015    5        5    23  26    4.4289   431.3    5.992      35.188
2015    5        5    23  32    4.4309   431.2    5.997      35.191
2015    5        5    23  37    4.4329   431.2    6.001      35.195
2015    5        5    23  43    4.4348   431.1    6.005      35.198
2015    5        5    23  49    4.4368   431.1    6.010      35.201
2015    5        5    23  55    4.4388   431.0    6.014      35.205
2015    5        6     0   0    4.4407   430.9    6.018      35.208
2015    5        6     0   6    4.4427   430.9    6.023      35.211
2015    5        6     0  12    4.4447   430.8    6.027      35.214
2015    5        6     0  18    4.4466   430.8    6.031      35.218
2015    5        6     0  23    4.4486   430.7    6.035      35.221
2015    5        6     0  29    4.4506   430.7    6.039      35.224
2015    5        6     0  35    4.4525   430.6    6.044      35.227
2015    5        6     0  40    4.4545   430.5    6.048      35.230
2015    5        6     0  46    4.4565   430.5    6.052      35.233
2015    5        6     0  52    4.4584   430.4    6.056      35.235
2015    5        6     0  58    4.4604   430.4    6.060      35.238
2015    5        6     1   3    4.4623   430.3    6.064      35.241
2015    5        6     1   9    4.4643   430.3    6.068      35.243
2015    5        6     1  15    4.4663   430.2    6.072      35.246
2015    5        6     1  20    4.4683   430.2    6.076      35.248
2015    5        6     1  26    4.4702   430.1    6.080      35.251
2015    5        6     1  32    4.4722   430.1    6.084      35.253
2015    5        6     1  38    4.4742   430.0    6.088      35.255
2015    5        6     1  43    4.4761   430.0    6.092      35.258
2015    5        6     1  49    4.4781   429.9    6.096      35.260
2015    5        6     1  55    4.4801   429.8    6.100      35.262
2015    5        6     2   1    4.4821   429.8    6.104      35.264
2015    5        6     2   6    4.4841   429.7    6.108      35.267
2015    5        6     2  12    4.4861   429.7    6.112      35.269
2015    5        6     2  18    4.4881   429.6    6.116      35.271
2015    5        6     2  23    4.4901   429.6    6.120      35.273
2015    5        6     2  29    4.4920   429.5    6.124      35.275
2015    5        6     2  35    4.4941   429.5    6.128      35.277
2015    5        6     2  41    4.4961   429.4    6.132      35.280
2015    5        6     2  46    4.4981   429.4    6.136      35.282
2015    5        6     2  52    4.5001   429.3    6.140      35.284
2015    5        6     2  58    4.5021   429.3    6.144      35.286
2015    5        6     3   3    4.5042   429.2    6.148      35.289
2015    5        6     3   9    4.5062   429.2    6.152      35.291
2015    5        6     3  15    4.5082   429.1    6.156      35.294
2015    5        6     3  21    4.5103   429.1    6.160      35.297
2015    5        6     3  26    4.5123   429.0    6.164      35.299
2015    5        6     3  32    4.5144   429.0    6.168      35.302
2015    5        6     3  38    4.5164   428.9    6.172      35.305
2015    5        6     3  44    4.5185   428.9    6.176      35.308
2015    5        6     3  49    4.5205   428.8    6.179      35.311
2015    5        6     3  55    4.5226   428.8    6.184      35.314
2015    5        6     4   1    4.5247   428.7    6.188      35.317
2015    5        6     4   6    4.5267   428.7    6.192      35.321
2015    5        6     4  12    4.5288   428.6    6.196      35.324
2015    5        6     4  18    4.5309   428.6    6.200      35.328
2015    5        6     4  24    4.5330   428.5    6.204      35.331
2015    5        6     4  29    4.5351   428.5    6.208      35.335
2015    5        6     4  35    4.5372   428.4    6.212      35.339
2015    5        6     4  41    4.5393   428.4    6.216      35.343
2015    5        6     4  46    4.5414   428.4    6.220      35.348
2015    5        6     4  52    4.5435   428.3    6.224      35.352
2015    5        6     4  58    4.5456   428.3    6.228      35.357
2015    5        6     5   4    4.5477   428.2    6.232      35.361
2015    5        6     5   9    4.5498   428.2    6.236      35.366
2015    5        6     5  15    4.5520   428.1    6.240      35.371
2015    5        6     5  21    4.5541   428.1    6.244      35.376
2015    5        6     5  26    4.5563   428.0    6.248      35.381
2015    5        6     5  32    4.5584   428.0    6.252      35.387
2015    5        6     5  38    4.5606   427.9    6.257      35.392
2015    5        6     5  44    4.5627   427.9    6.261      35.398
2015    5        6     5  49    4.5649   427.8    6.265      35.404
2015    5        6     5  55    4.5671   427.8    6.269      35.409
2015    5        6     6   1    4.5692   427.8    6.273      35.415
2015    5        6     6   7    4.5714   427.7    6.277      35.422
2015    5        6     6  12    4.5736   427.7    6.281      35.428
2015    5        6     6  18    4.5758   427.6    6.285      35.434
2015    5        6     6  24    4.5780   427.6    6.289      35.440
2015    5        6     6  29    4.5802   427.5    6.293      35.447
2015    5        6     6  35    4.5824   427.5    6.297      35.453
2015    5        6     6  41    4.5847   427.5    6.301      35.460
2015    5        6     6  47    4.5869   427.4    6.305      35.467
2015    5        6     6  52    4.5891   427.4    6.309      35.474
2015    5        6     6  58    4.5914   427.3    6.313      35.481
2015    5        6     7   4    4.5936   427.3    6.317      35.488
2015    5        6     7   9    4.5959   427.2    6.321      35.495
2015    5        6     7  15    4.5981   427.2    6.325      35.502
2015    5        6     7  21    4.6004   427.2    6.328      35.509
2015    5        6     7  27    4.6027   427.1    6.332      35.516
2015    5        6     7  32    4.6050   427.1    6.336      35.524
2015    5        6     7  38    4.6073   427.0    6.340      35.531
2015    5        6     7  44    4.6096   427.0    6.344      35.538
2015    5        6     7  50    4.6119   427.0    6.348      35.546
2015    5        6     7  55    4.6142   426.9    6.351      35.553
2015    5        6     8   1    4.6165   426.9    6.355      35.561
2015    5        6     8   7    4.6189   426.9    6.359      35.569
2015    5        6     8  12    4.6212   426.8    6.363      35.576
2015    5        6     8  18    4.6236   426.8    6.367      35.584
2015    5        6     8  24    4.6259   426.7    6.370      35.592
2015    5        6     8  30    4.6283   426.7    6.374      35.599
2015    5        6     8  35    4.6307   426.7    6.378      35.607
2015    5        6     8  41    4.6331   426.6    6.382      35.615
2015    5        6     8  47    4.6355   426.6    6.385      35.623
2015    5        6     8  52    4.6379   426.6    6.389      35.631
2015    5        6     8  58    4.6403   426.5    6.393      35.639
2015    5        6     9   4    4.6428   426.5    6.396      35.647
2015    5        6     9  10    4.6452   426.5    6.400      35.655
2015    5        6     9  15    4.6476   426.4    6.404      35.663
2015    5        6     9  21    4.6501   426.4    6.408      35.672
2015    5        6     9  27    4.6526   426.4    6.412      35.680
2015    5        6     9  33    4.6551   426.3    6.415      35.688
2015    5        6     9  38    4.6575   426.3    6.419      35.697
2015    5        6     9  44    4.6600   426.3    6.423      35.706
2015    5        6     9  50    4.6625   426.2    6.427      35.714
2015    5        6     9  55    4.6650   426.2    6.430      35.723
2015    5        6    10   1    4.6676   426.2    6.434      35.732
2015    5        6    10   7    4.6701   426.1    6.438      35.741
2015    5        6    10  13    4.6726   426.1    6.442      35.750
2015    5        6    10  18    4.6752   426.1    6.446      35.759
2015    5        6    10  24    4.6777   426.0    6.450      35.768
2015    5        6    10  30    4.6803   426.0    6.454      35.777
2015    5        6    10  35    4.6828   426.0    6.457      35.787
2015    5        6    10  41    4.6854   426.0    6.461      35.796
2015    5        6    10  47    4.6880   425.9    6.465      35.806
2015    5        6    10  53    4.6905   425.9    6.469      35.816
2015    5        6    10  58    4.6931   425.9    6.473      35.826
2015    5        6    11   4    4.6957   425.9    6.477      35.836
2015    5        6    11  10    4.6983   425.8    6.481      35.846
2015    5        6    11  16    4.7009   425.8    6.485      35.856
2015    5        6    11  21    4.7035   425.8    6.489      35.866
2015    5        6    11  27    4.7061   425.8    6.493      35.877
2015    5        6    11  33    4.7087   425.7    6.496      35.887
2015    5        6    11  38    4.7113   425.7    6.500      35.898
2015    5        6    11  44    4.7139   425.7    6.504      35.908
2015    5        6    11  50    4.7165   425.7    6.508      35.919
2015    5        6    11  56    4.7191   425.7    6.512      35.929
2015    5        6    12   1    4.7217   425.6    6.516      35.940
2015    5        6    12   7    4.7243   425.6    6.520      35.951
2015    5        6    12  13    4.7269   425.6    6.523      35.962
2015    5        6    12  18    4.7296   425.6    6.527      35.973
2015    5        6    12  24    4.7322   425.5    6.531      35.984
2015    5        6    12  30    4.7348   425.5    6.535      35.995
2015    5        6    12  36    4.7374   425.5    6.539      36.007
2015    5        6    12  41    4.7400   425.5    6.543      36.018
2015    5        6    12  47    4.7426   425.5    6.546      36.029
2015    5        6    12  53    4.7453   425.4    6.550      36.041
2015    5        6    12  58    4.7479   425.4    6.554      36.053
2015    5        6    13   4    4.7505   425.4    6.558      36.064
2015    5        6    13  10    4.7532   425.4    6.561      36.076
2015    5        6    13  16    4.7558   425.4    6.565      36.088
2015    5        6    13  21    4.7584   425.3    6.569      36.100
2015    5        6    13  27    4.7611   425.3    6.572      36.112
2015    5        6    13  33    4.7637   425.3    6.576      36.124
2015    5        6    13  39    4.7664   425.3    6.580      36.137
2015    5        6    13  44    4.7690   425.3    6.583      36.149
2015    5        6    13  50    4.7717   425.3    6.587      36.162
2015    5        6    13  56    4.7743   425.2    6.591      36.175
2015    5        6    14   1    4.7770   425.2    6.594      36.187
2015    5        6    14   7    4.7797   425.2    6.598      36.200
2015    5        6    14  13    4.7823   425.2    6.602      36.214
2015    5        6    14  19    4.7850   425.2    6.605      36.227
2015    5        6    14  24    4.7877   425.2    6.609      36.240
2015    5        6    14  30    4.7904   425.2    6.612      36.253
2015    5        6    14  36    4.7931   425.1    6.616      36.267
2015    5        6    14  41    4.7957   425.1    6.619      36.280
2015    5        6    14  47    4.7984   425.1    6.623      36.294
2015    5        6    14  53    4.8011   425.1    6.626      36.307
2015    5        6    14  59    4.8038   425.1    6.630      36.321
2015    5        6    15   4    4.8065   425.1    6.633      36.334
2015    5        6    15  10    4.8093   425.1    6.637      36.348
2015    5        6    15  16    4.8120   425.0    6.640      36.362
2015    5        6    15  22    4.8147   425.0    6.643      36.375
2015    5        6    15  27    4.8174   425.0    6.647      36.389
2015    5        6    15  33    4.8202   425.0    6.650      36.403
2015    5        6    15  39    4.8229   425.0    6.654      36.416
2015    5        6    15  44    4.8257   425.0    6.657      36.430
2015    5        6    15  50    4.8284   425.0    6.660      36.444
2015    5        6    15  56    4.8312   425.0    6.664      36.458
2015    5        6    16   2    4.8339   425.0    6.667      36.472
2015    5        6    16   7    4.8367   424.9    6.670      36.486
2015    5        6    16  13    4.8395   424.9    6.673      36.501
2015    5        6    16  19    4.8422   424.9    6.676      36.515
2015    5        6    16  24    4.8450   424.9    6.679      36.529
2015    5        6    16  30    4.8478   424.9    6.683      36.543
2015    5        6    16  36    4.8506   424.9    6.686      36.558
2015    5        6    16  42    4.8534   424.9    6.689      36.572
2015    5        6    16  47    4.8562   424.9    6.692      36.586
2015    5        6    16  53    4.8590   424.9    6.695      36.600
2015    5        6    16  59    4.8619   424.9    6.698      36.615
2015    5        6    17   5    4.8647   424.9    6.701      36.629
2015    5        6    17  10    4.8676   424.9    6.704      36.643
2015    5        6    17  16    4.8704   424.9    6.707      36.658
2015    5        6    17  22    4.8733   424.9    6.710      36.672
2015    5        6    17  27    4.8761   424.9    6.713      36.687
2015    5        6    17  33    4.8790   424.9    6.716      36.701
2015    5        6    17  39    4.8819   424.8    6.719      36.716
2015    5        6    17  45    4.8848   424.8    6.722      36.730
2015    5        6    17  50    4.8878   424.8    6.725      36.745
2015    5        6    17  56    4.8907   424.8    6.728      36.760
2015    5        6    18   2    4.8936   424.8    6.731      36.775
2015    5        6    18   7    4.8966   424.8    6.734      36.790
2015    5        6    18  13    4.8996   424.8    6.738      36.805
2015    5        6    18  19    4.9026   424.8    6.741      36.820
2015    5        6    18  25    4.9056   424.8    6.744      36.836
2015    5        6    18  30    4.9086   424.8    6.747      36.851
2015    5        6    18  36    4.9116   424.8    6.750      36.867
2015    5        6    18  42    4.9146   424.8    6.753      36.883
2015    5        6    18  48    4.9177   424.9    6.756      36.898
2015    5        6    18  53    4.9207   424.9    6.760      36.915
2015    5        6    18  59    4.9238   424.9    6.763      36.931
2015    5        6    19   5    4.9269   424.9    6.766      36.947
2015    5        6    19  10    4.9299   424.9    6.769      36.964
2015    5        6    19  16    4.9330   424.9    6.773      36.981
2015    5        6    19  22    4.9361   424.9    6.776      36.998
2015    5        6    19  28    4.9392   424.9    6.780      37.015
2015    5        6    19  33    4.9423   424.9    6.783      37.032
2015    5        6    19  39    4.9454   424.9    6.786      37.050
2015    5        6    19  45    4.9485   424.9    6.790      37.068
2015    5        6    19  50    4.9516   424.9    6.793      37.086
2015    5        6    19  56    4.9547   424.9    6.797      37.104
2015    5        6    20   2    4.9578   424.9    6.801      37.123
2015    5        6    20   8    4.9609   425.0    6.804      37.142
2015    5        6    20  13    4.9640   425.0    6.808      37.162
2015    5        6    20  19    4.9671   425.0    6.811      37.181
2015    5        6    20  25    4.9702   425.0    6.815      37.201
2015    5        6    20  30    4.9733   425.0    6.819      37.221
2015    5        6    20  36    4.9763   425.0    6.822      37.242
2015    5        6    20  42    4.9794   425.0    6.826      37.262
2015    5        6    20  48    4.9824   425.0    6.829      37.283
2015    5        6    20  53    4.9854   425.1    6.833      37.305
2015    5        6    20  59    4.9884   425.1    6.836      37.327
2015    5        6    21   5    4.9914   425.1    6.839      37.350
2015    5        6    21  11    4.9944   425.1    6.843      37.373
2015    5        6    21  16    4.9974   425.1    6.846      37.395
2015    5        6    21  22    5.0003   425.2    6.849      37.419
2015    5        6    21  28    5.0032   425.2    6.852      37.442
2015    5        6    21  33    5.0061   425.2    6.855      37.465
2015    5        6    21  39    5.0091   425.2    6.858      37.488
2015    5        6    21  45    5.0119   425.2    6.861      37.511
2015    5        6    21  51    5.0148   425.3    6.864      37.534
2015    5        6    21  56    5.0177   425.3    6.866      37.557
2015    5        6    22   2    5.0206   425.3    6.869      37.579
2015    5        6    22   8    5.0234   425.3    6.872      37.602
2015    5        6    22  13    5.0263   425.3    6.874      37.624
2015    5        6    22  19    5.0291   425.4    6.877      37.646
2015    5        6    22  25    5.0320   425.4    6.880      37.668
2015    5        6    22  31    5.0348   425.4    6.882      37.690
2015    5        6    22  36    5.0377   425.4    6.885      37.711
2015    5        6    22  42    5.0405   425.4    6.887      37.733
2015    5        6    22  48    5.0434   425.5    6.889      37.754
2015    5        6    22  54    5.0462   425.5    6.892      37.776
2015    5        6    22  59    5.0490   425.5    6.894      37.797
2015    5        6    23   5    5.0518   425.5    6.896      37.818
2015    5        6    23  11    5.0547   425.5    6.899      37.840
2015    5        6    23  16    5.0575   425.6    6.901      37.861
2015    5        6    23  22    5.0603   425.6    6.903      37.882
2015    5        6    23  28    5.0631   425.6    6.905      37.903
2015    5        6    23  34    5.0660   425.6    6.907      37.924
2015    5        6    23  39    5.0688   425.7    6.909      37.945
2015    5        6    23  45    5.0716   425.7    6.911      37.966
2015    5        6    23  51    5.0744   425.7    6.914      37.987
2015    5        6    23  56    5.0773   425.7    6.916      38.008
2015    5        7     0   2    5.0801   425.8    6.918      38.028
2015    5        7     0   8    5.0830   425.8    6.920      38.049
2015    5        7     0  14    5.0858   425.8    6.922      38.070
2015    5        7     0  19    5.0887   425.8    6.924      38.090
2015    5        7     0  25    5.0915   425.8    6.925      38.111
2015    5        7     0  31    5.0944   425.9    6.927      38.132
2015    5        7     0  37    5.0973   425.9    6.929      38.153
2015    5        7     0  42    5.1002   425.9    6.931      38.174
2015    5        7     0  48    5.1031   425.9    6.933      38.195
2015    5        7     0  54    5.1060   426.0    6.935      38.216
2015    5        7     0  59    5.1089   426.0    6.938      38.238
2015    5        7     1   5    5.1119   426.0    6.940      38.259
2015    5        7     1  11    5.1148   426.1    6.942      38.281
2015    5        7     1  17    5.1178   426.1    6.944      38.303
2015    5        7     1  22    5.1208   426.1    6.946      38.325
2015    5        7     1  28    5.1238   426.2    6.948      38.348
2015    5        7     1  34    5.1268   426.2    6.950      38.370
2015    5        7     1  39    5.1298   426.2    6.953      38.393
2015    5        7     1  45    5.1329   426.2    6.955      38.416
2015    5        7     1  51    5.1359   426.3    6.957      38.440
2015    5        7     1  57    5.1390   426.3    6.960      38.464
2015    5        7     2   2    5.1421   426.3    6.962      38.488
2015    5        7     2   8    5.1451   426.4    6.965      38.512
2015    5        7     2  14    5.1482   426.4    6.967      38.537
2015    5        7     2  20    5.1513   426.5    6.970      38.562
2015    5        7     2  25    5.1545   426.5    6.972      38.587
2015    5        7     2  31    5.1576   426.5    6.975      38.613
2015    5        7     2  37    5.1607   426.6    6.978      38.638
2015    5        7     2  42    5.1638   426.6    6.981      38.664
2015    5        7     2  48    5.1670   426.7    6.983      38.691
2015    5        7     2  54    5.1701   426.7    6.986      38.718
2015    5        7     3   0    5.1732   426.7    6.989      38.745
2015    5        7     3   5    5.1763   426.8    6.992      38.772
2015    5        7     3  11    5.1794   426.8    6.996      38.800
2015    5        7     3  17    5.1826   426.9    6.999      38.829
2015    5        7     3  22    5.1857   426.9    7.002      38.857
2015    5        7     3  28    5.1887   427.0    7.005      38.886
2015    5        7     3  34    5.1918   427.0    7.008      38.916
2015    5        7     3  40    5.1949   427.1    7.012      38.946
2015    5        7     3  45    5.1979   427.1    7.015      38.976
2015    5        7     3  51    5.2009   427.2    7.019      39.006
2015    5        7     3  57    5.2039   427.2    7.022      39.038
2015    5        7     4   3    5.2069   427.3    7.025      39.070
2015    5        7     4   8    5.2099   427.3    7.029      39.103
2015    5        7     4  14    5.2128   427.4    7.032      39.138
2015    5        7     4  20    5.2157   427.4    7.035      39.172
2015    5        7     4  25    5.2186   427.5    7.038      39.207
2015    5        7     4  31    5.2214   427.6    7.041      39.243
2015    5        7     4  37    5.2242   427.6    7.044      39.278
2015    5        7     4  43    5.2270   427.7    7.047      39.313
2015    5        7     4  48    5.2298   427.7    7.050      39.348
2015    5        7     4  54    5.2325   427.8    7.053      39.383
2015    5        7     5   0    5.2352   427.9    7.055      39.417
2015    5        7     5   5    5.2379   427.9    7.058      39.451
2015    5        7     5  11    5.2406   428.0    7.060      39.484
2015    5        7     5  17    5.2432   428.0    7.063      39.517
2015    5        7     5  23    5.2458   428.1    7.065      39.550
2015    5        7     5  28    5.2485   428.2    7.067      39.583
2015    5        7     5  34    5.2511   428.2    7.070      39.615
2015    5        7     5  40    5.2536   428.3    7.072      39.647
2015    5        7     5  45    5.2562   428.4    7.074      39.680
2015    5        7     5  51    5.2588   428.4    7.076      39.713
2015    5        7     5  57    5.2613   428.5    7.078      39.746
2015    5        7     6   3    5.2638   428.5    7.080      39.780
2015    5        7     6   8    5.2663   428.6    7.081      39.813
2015    5        7     6  14    5.2688   428.7    7.083      39.846
2015    5        7     6  20    5.2713   428.7    7.084      39.880
2015    5        7     6  26    5.2737   428.8    7.086      39.913
2015    5        7     6  31    5.2762   428.9    7.087      39.946
2015    5        7     6  37    5.2786   428.9    7.088      39.978
2015    5        7     6  43    5.2810   429.0    7.089      40.011
2015    5        7     6  48    5.2834   429.1    7.090      40.043
2015    5        7     6  54    5.2858   429.1    7.091      40.075
2015    5        7     7   0    5.2882   429.2    7.092      40.106
2015    5        7     7   6    5.2906   429.3    7.093      40.138
2015    5        7     7  11    5.2929   429.3    7.094      40.169
2015    5        7     7  17    5.2953   429.4    7.094      40.200
2015    5        7     7  23    5.2976   429.5    7.095      40.230
2015    5        7     7  28    5.3000   429.6    7.095      40.261
2015    5        7     7  34    5.3023   429.6    7.096      40.291
2015    5        7     7  40    5.3046   429.7    7.096      40.321
2015    5        7     7  46    5.3069   429.8    7.096      40.351
2015    5        7     7  51    5.3093   429.8    7.097      40.380
2015    5        7     7  57    5.3116   429.9    7.097      40.410
2015    5        7     8   3    5.3139   430.0    7.097      40.440
2015    5        7     8   9    5.3162   430.0    7.097      40.469
2015    5        7     8  14    5.3185   430.1    7.097      40.498
2015    5        7     8  20    5.3208   430.2    7.098      40.528
2015    5        7     8  26    5.3232   430.3    7.098      40.557
2015    5        7     8  31    5.3255   430.3    7.098      40.586
2015    5        7     8  37    5.3278   430.4    7.098      40.615
2015    5        7     8  43    5.3301   430.5    7.098      40.645
2015    5        7     8  49    5.3324   430.6    7.098      40.674
2015    5        7     8  54    5.3347   430.6    7.098      40.703
2015    5        7     9   0    5.3371   430.7    7.098      40.733
2015    5        7     9   6    5.3394   430.8    7.098      40.762
2015    5        7     9  11    5.3417   430.9    7.098      40.792
2015    5        7     9  17    5.3441   430.9    7.098      40.822
2015    5        7     9  23    5.3464   431.0    7.099      40.852
2015    5        7     9  29    5.3487   431.1    7.099      40.882
2015    5        7     9  34    5.3511   431.2    7.099      40.912
2015    5        7     9  40    5.3534   431.2    7.099      40.942
2015    5        7     9  46    5.3558   431.3    7.100      40.972
2015    5        7     9  52    5.3581   431.4    7.100      41.003
2015    5        7     9  57    5.3605   431.5    7.100      41.034
2015    5        7    10   3    5.3628   431.6    7.101      41.065
2015    5        7    10   9    5.3651   431.6    7.101      41.096
2015    5        7    10  14    5.3674   431.7    7.102      41.127
2015    5        7    10  20    5.3697   431.8    7.102      41.159
2015    5        7    10  26    5.3720   431.9    7.103      41.191
2015    5        7    10  32    5.3743   432.0    7.104      41.223
2015    5        7    10  37    5.3766   432.0    7.105      41.256
2015    5        7    10  43    5.3789   432.1    7.105      41.288
2015    5        7    10  49    5.3812   432.2    7.107      41.321
2015    5        7    10  54    5.3835   432.3    7.108      41.354
2015    5        7    11   0    5.3857   432.4    7.109      41.388
2015    5        7    11   6    5.3880   432.5    7.110      41.422
2015    5        7    11  12    5.3902   432.5    7.112      41.458
2015    5        7    11  17    5.3924   432.6    7.113      41.494
2015    5        7    11  23    5.3946   432.7    7.115      41.530
2015    5        7    11  29    5.3968   432.8    7.116      41.567
2015    5        7    11  35    5.3990   432.9    7.118      41.604
2015    5        7    11  40    5.4012   433.0    7.120      41.642
2015    5        7    11  46    5.4034   433.1    7.122      41.681
2015    5        7    11  52    5.4055   433.2    7.124      41.719
2015    5        7    11  57    5.4077   433.3    7.126      41.758
2015    5        7    12   3    5.4098   433.4    7.127      41.797
2015    5        7    12   9    5.4119   433.5    7.129      41.837
2015    5        7    12  15    5.4140   433.5    7.131      41.876
2015    5        7    12  20    5.4161   433.6    7.133      41.915
2015    5        7    12  26    5.4181   433.7    7.135      41.954
2015    5        7    12  32    5.4202   433.8    7.137      41.992
2015    5        7    12  37    5.4222   433.9    7.139      42.031
2015    5        7    12  43    5.4242   434.0    7.141      42.068
2015    5        7    12  49    5.4261   434.1    7.142      42.106
2015    5        7    12  55    5.4280   434.2    7.144      42.144
2015    5        7    13   0    5.4299   434.3    7.146      42.183
2015    5        7    13   6    5.4318   434.4    7.148      42.222
2015    5        7    13  12    5.4337   434.6    7.149      42.261
2015    5        7    13  17    5.4355   434.7    7.151      42.300
2015    5        7    13  23    5.4373   434.8    7.153      42.339
2015    5        7    13  29    5.4391   434.9    7.154      42.377
2015    5        7    13  35    5.4408   435.0    7.156      42.417
2015    5        7    13  40    5.4426   435.1    7.157      42.456
2015    5        7    13  46    5.4443   435.2    7.158      42.495
2015    5        7    13  52    5.4459   435.3    7.160      42.535
2015    5        7    13  58    5.4476   435.4    7.161      42.574
2015    5        7    14   3    5.4492   435.5    7.162      42.613
2015    5        7    14   9    5.4508   435.6    7.162      42.652
2015    5        7    14  15    5.4524   435.7    7.163      42.691
2015    5        7    14  20    5.4540   435.8    7.163      42.730
2015    5        7    14  26    5.4556   436.0    7.164      42.768
2015    5        7    14  32    5.4571   436.1    7.164      42.805
2015    5        7    14  38    5.4586   436.2    7.164      42.842
2015    5        7    14  43    5.4601   436.3    7.163      42.878
2015    5        7    14  49    5.4615   436.4    7.163      42.914
2015    5        7    14  55    5.4630   436.5    7.162      42.949
2015    5        7    15   0    5.4644   436.7    7.162      42.983
2015    5        7    15   6    5.4658   436.8    7.161      43.017
2015    5        7    15  12    5.4672   436.9    7.160      43.051
2015    5        7    15  18    5.4686   437.0    7.159      43.084
2015    5        7    15  23    5.4700   437.1    7.157      43.117
2015    5        7    15  29    5.4714   437.3    7.156      43.149
2015    5        7    15  35    5.4727   437.4    7.154      43.181
2015    5        7    15  41    5.4741   437.5    7.153      43.212
2015    5        7    15  46    5.4754   437.6    7.151      43.243
2015    5        7    15  52    5.4767   437.8    7.149      43.274
2015    5        7    15  58    5.4781   437.9    7.148      43.305
2015    5        7    16   3    5.4794   438.0    7.146      43.335
2015    5        7    16   9    5.4807   438.1    7.144      43.366
2015    5        7    16  15    5.4821   438.3    7.142      43.396
2015    5        7    16  21    5.4834   438.4    7.140      43.426
2015    5        7    16  26    5.4848   438.5    7.138      43.456
2015    5        7    16  32    5.4861   438.6    7.136      43.486
2015    5        7    16  38    5.4875   438.8    7.134      43.516
2015    5        7    16  43    5.4888   438.9    7.132      43.546
2015    5        7    16  49    5.4902   439.0    7.130      43.577
2015    5        7    16  55    5.4916   439.1    7.129      43.607
2015    5        7    17   1    5.4929   439.3    7.127      43.638
2015    5        7    17   6    5.4943   439.4    7.125      43.669
2015    5        7    17  12    5.4956   439.5    7.124      43.700
2015    5        7    17  18    5.4969   439.7    7.122      43.732
2015    5        7    17  24    5.4982   439.8    7.120      43.764
2015    5        7    17  29    5.4995   439.9    7.119      43.797
2015    5        7    17  35    5.5008   440.1    7.117      43.830
2015    5        7    17  41    5.5021   440.2    7.116      43.862
2015    5        7    17  46    5.5034   440.3    7.114      43.895
2015    5        7    17  52    5.5046   440.5    7.112      43.928
2015    5        7    17  58    5.5059   440.6    7.111      43.960
2015    5        7    18   4    5.5071   440.7    7.109      43.992
2015    5        7    18   9    5.5083   440.9    7.108      44.024
2015    5        7    18  15    5.5095   441.0    7.106      44.056
2015    5        7    18  21    5.5107   441.1    7.105      44.088
2015    5        7    18  26    5.5119   441.3    7.104      44.120
2015    5        7    18  32    5.5131   441.4    7.102      44.152
2015    5        7    18  38    5.5143   441.5    7.101      44.184
2015    5        7    18  44    5.5156   441.7    7.100      44.217
2015    5        7    18  49    5.5168   441.8    7.100      44.249
2015    5        7    18  55    5.5180   441.9    7.099      44.283
2015    5        7    19   1    5.5193   442.1    7.098      44.317
2015    5        7    19   7    5.5206   442.2    7.098      44.352
2015    5        7    19  12    5.5218   442.4    7.097      44.386
2015    5        7    19  18    5.5230   442.5    7.097      44.422
2015    5        7    19  24    5.5242   442.6    7.097      44.458
2015    5        7    19  29    5.5254   442.8    7.097      44.495
2015    5        7    19  35    5.5265   442.9    7.097      44.532
2015    5        7    19  41    5.5276   443.1    7.097      44.569
2015    5        7    19  47    5.5286   443.2    7.097      44.606
2015    5        7    19  52    5.5296   443.4    7.097      44.644
2015    5        7    19  58    5.5306   443.5    7.096      44.682
2015    5        7    20   4    5.5315   443.7    7.096      44.720
2015    5        7    20   9    5.5323   443.9    7.096      44.757
2015    5        7    20  15    5.5331   444.0    7.095      44.793
2015    5        7    20  21    5.5338   444.2    7.095      44.829
2015    5        7    20  27    5.5345   444.3    7.094      44.864
2015    5        7    20  32    5.5351   444.5    7.093      44.899
2015    5        7    20  38    5.5357   444.6    7.093      44.933
2015    5        7    20  44    5.5362   444.8    7.092      44.967
2015    5        7    20  50    5.5366   444.9    7.091      45.000
2015    5        7    20  55    5.5370   445.1    7.089      45.033
2015    5        7    21   1    5.5374   445.3    7.088      45.066
2015    5        7    21   7    5.5377   445.4    7.087      45.099
2015    5        7    21  12    5.5380   445.6    7.085      45.132
2015    5        7    21  18    5.5383   445.7    7.083      45.164
2015    5        7    21  24    5.5385   445.9    7.081      45.196
2015    5        7    21  30    5.5386   446.1    7.079      45.227
2015    5        7    21  35    5.5388   446.2    7.076      45.258
2015    5        7    21  41    5.5389   446.4    7.074      45.287
2015    5        7    21  47    5.5389   446.6    7.071      45.316
2015    5        7    21  52    5.5389   446.7    7.068      45.345
2015    5        7    21  58    5.5389   446.9    7.065      45.373
2015    5        7    22   4    5.5388   447.1    7.062      45.401
2015    5        7    22  10    5.5387   447.2    7.058      45.427
2015    5        7    22  15    5.5386   447.4    7.055      45.453
2015    5        7    22  21    5.5384   447.6    7.051      45.479
2015    5        7    22  27    5.5382   447.7    7.047      45.504
2015    5        7    22  32    5.5380   447.9    7.043      45.528
2015    5        7    22  38    5.5377   448.1    7.038      45.551
2015    5        7    22  44    5.5373   448.2    7.034      45.574
2015    5        7    22  50    5.5370   448.4    7.029      45.597
2015    5        7    22  55    5.5366   448.6    7.025      45.618
2015    5        7    23   1    5.5362   448.7    7.020      45.640
2015    5        7    23   7    5.5357   448.9    7.015      45.660
2015    5        7    23  13    5.5352   449.1    7.010      45.681
2015    5        7    23  18    5.5347   449.2    7.005      45.700
2015    5        7    23  24    5.5341   449.4    7.000      45.719
2015    5        7    23  30    5.5336   449.6    6.995      45.738
2015    5        7    23  35    5.5329   449.7    6.990      45.757
2015    5        7    23  41    5.5323   449.9    6.984      45.775
2015    5        7    23  47    5.5317   450.1    6.979      45.792
2015    5        7    23  53    5.5310   450.3    6.974      45.810
2015    5        7    23  58    5.5303   450.4    6.968      45.827
2015    5        8     0   4    5.5296   450.6    6.963      45.844
2015    5        8     0  10    5.5289   450.8    6.957      45.861
2015    5        8     0  15    5.5281   450.9    6.952      45.877
2015    5        8     0  21    5.5273   451.1    6.947      45.894
2015    5        8     0  27    5.5265   451.3    6.941      45.910
2015    5        8     0  33    5.5257   451.4    6.936      45.926
2015    5        8     0  38    5.5248   451.6    6.930      45.943
2015    5        8     0  44    5.5239   451.8    6.925      45.959
2015    5        8     0  50    5.5229   451.9    6.920      45.976
2015    5        8     0  56    5.5219   452.1    6.914      45.992
2015    5        8     1   1    5.5209   452.3    6.908      46.008
2015    5        8     1   7    5.5199   452.5    6.903      46.024
2015    5        8     1  13    5.5188   452.6    6.897      46.039
2015    5        8     1  18    5.5176   452.8    6.891      46.054
2015    5        8     1  24    5.5165   453.0    6.885      46.069
2015    5        8     1  30    5.5153   453.2    6.880      46.083
2015    5        8     1  36    5.5141   453.3    6.874      46.096
2015    5        8     1  41    5.5128   453.5    6.868      46.109
2015    5        8     1  47    5.5115   453.7    6.861      46.122
2015    5        8     1  53    5.5101   453.8    6.855      46.134
2015    5        8     1  58    5.5088   454.0    6.849      46.145
2015    5        8     2   4    5.5074   454.2    6.843      46.157
2015    5        8     2  10    5.5060   454.4    6.837      46.167
2015    5        8     2  16    5.5046   454.5    6.831      46.178
2015    5        8     2  21    5.5032   454.7    6.824      46.188
2015    5        8     2  27    5.5017   454.9    6.818      46.199
2015    5        8     2  33    5.5002   455.0    6.812      46.209
2015    5        8     2  39    5.4986   455.2    6.806      46.218
2015    5        8     2  44    5.4970   455.3    6.800      46.227
2015    5        8     2  50    5.4954   455.5    6.794      46.237
2015    5        8     2  56    5.4937   455.7    6.788      46.247
2015    5        8     3   1    5.4919   455.8    6.782      46.257
2015    5        8     3   7    5.4901   456.0    6.776      46.268
2015    5        8     3  13    5.4882   456.2    6.769      46.278
2015    5        8     3  19    5.4863   456.4    6.763      46.288
2015    5        8     3  24    5.4842   456.5    6.757      46.299
2015    5        8     3  30    5.4821   456.7    6.750      46.309
2015    5        8     3  36    5.4799   456.9    6.743      46.318
2015    5        8     3  41    5.4777   457.1    6.736      46.327
2015    5        8     3  47    5.4754   457.2    6.729      46.334
2015    5        8     3  53    5.4730   457.4    6.722      46.341
2015    5        8     3  59    5.4705   457.6    6.714      46.347
2015    5        8     4   4    5.4680   457.7    6.706      46.352
2015    5        8     4  10    5.4653   457.9    6.699      46.357
2015    5        8     4  16    5.4626   458.1    6.691      46.361
2015    5        8     4  22    5.4599   458.2    6.682      46.363
2015    5        8     4  27    5.4570   458.4    6.674      46.366
2015    5        8     4  33    5.4541   458.5    6.666      46.367
2015    5        8     4  39    5.4512   458.7    6.657      46.368
2015    5        8     4  44    5.4482   458.9    6.649      46.368
2015    5        8     4  50    5.4451   459.0    6.640      46.367
2015    5        8     4  56    5.4420   459.2    6.631      46.365
2015    5        8     5   2    5.4388   459.3    6.623      46.363
2015    5        8     5   7    5.4356   459.5    6.614      46.361
2015    5        8     5  13    5.4323   459.6    6.605      46.357
2015    5        8     5  19    5.4290   459.8    6.595      46.353
2015    5        8     5  24    5.4257   460.0    6.586      46.349
2015    5        8     5  30    5.4223   460.1    6.577      46.343
2015    5        8     5  36    5.4190   460.3    6.567      46.337
2015    5        8     5  42    5.4155   460.4    6.558      46.331
2015    5        8     5  47    5.4121   460.6    6.548      46.323
2015    5        8     5  53    5.4086   460.7    6.539      46.315
2015    5        8     5  59    5.4051   460.9    6.529      46.306
2015    5        8     6   4    5.4015   461.0    6.519      46.296
2015    5        8     6  10    5.3980   461.1    6.509      46.285
2015    5        8     6  16    5.3944   461.3    6.499      46.273
2015    5        8     6  22    5.3907   461.4    6.489      46.261
2015    5        8     6  27    5.3871   461.6    6.479      46.248
2015    5        8     6  33    5.3834   461.7    6.469      46.233
2015    5        8     6  39    5.3797   461.9    6.458      46.218
2015    5        8     6  45    5.3759   462.0    6.448      46.203
2015    5        8     6  50    5.3722   462.1    6.437      46.186
2015    5        8     6  56    5.3685   462.3    6.427      46.168
2015    5        8     7   2    5.3647   462.4    6.416      46.150
2015    5        8     7   7    5.3609   462.5    6.406      46.131
2015    5        8     7  13    5.3571   462.7    6.395      46.111
2015    5        8     7  19    5.3534   462.8    6.384      46.090
2015    5        8     7  25    5.3496   462.9    6.373      46.069
2015    5        8     7  30    5.3458   463.0    6.363      46.047
2015    5        8     7  36    5.3420   463.2    6.352      46.024
2015    5        8     7  42    5.3382   463.3    6.341      46.001
2015    5        8     7  47    5.3344   463.4    6.330      45.977
2015    5        8     7  53    5.3306   463.5    6.319      45.952
2015    5        8     7  59    5.3268   463.6    6.308      45.927
2015    5        8     8   5    5.3230   463.7    6.297      45.901
2015    5        8     8  10    5.3193   463.9    6.286      45.875
2015    5        8     8  16    5.3155   464.0    6.275      45.848
2015    5        8     8  22    5.3118   464.1    6.264      45.820
2015    5        8     8  28    5.3081   464.2    6.253      45.792
2015    5        8     8  33    5.3044   464.3    6.242      45.763
2015    5        8     8  39    5.3007   464.4    6.231      45.733
2015    5        8     8  45    5.2970   464.5    6.220      45.703
2015    5        8     8  50    5.2933   464.6    6.209      45.672
2015    5        8     8  56    5.2897   464.7    6.198      45.641
2015    5        8     9   2    5.2860   464.8    6.187      45.609
2015    5        8     9   8    5.2824   464.9    6.176      45.577
2015    5        8     9  13    5.2788   465.0    6.165      45.544
2015    5        8     9  19    5.2752   465.1    6.154      45.512
2015    5        8     9  25    5.2716   465.2    6.143      45.479
2015    5        8     9  30    5.2680   465.3    6.132      45.446
2015    5        8     9  36    5.2644   465.4    6.121      45.413
2015    5        8     9  42    5.2608   465.5    6.110      45.379
2015    5        8     9  48    5.2572   465.6    6.099      45.344
2015    5        8     9  53    5.2536   465.7    6.088      45.309
2015    5        8     9  59    5.2500   465.7    6.077      45.273
2015    5        8    10   5    5.2465   465.8    6.066      45.236
2015    5        8    10  11    5.2430   465.9    6.055      45.199
2015    5        8    10  16    5.2395   466.0    6.045      45.161
2015    5        8    10  22    5.2360   466.0    6.034      45.124
2015    5        8    10  28    5.2326   466.1    6.024      45.087
2015    5        8    10  33    5.2293   466.2    6.014      45.050
2015    5        8    10  39    5.2259   466.2    6.004      45.013
2015    5        8    10  45    5.2227   466.3    5.994      44.977
2015    5        8    10  51    5.2195   466.4    5.985      44.941
2015    5        8    10  56    5.2163   466.4    5.976      44.905
2015    5        8    11   2    5.2132   466.5    5.966      44.870
2015    5        8    11   8    5.2101   466.5    5.957      44.835
2015    5        8    11  13    5.2072   466.6    5.949      44.802
2015    5        8    11  19    5.2043   466.6    5.940      44.769
2015    5        8    11  25    5.2014   466.7    5.932      44.737
2015    5        8    11  31    5.1987   466.7    5.924      44.706
2015    5        8    11  36    5.1959   466.8    5.915      44.677
2015    5        8    11  42    5.1933   466.9    5.908      44.648
2015    5        8    11  48    5.1906   466.9    5.900      44.620
2015    5        8    11  54    5.1880   467.0    5.892      44.593
2015    5        8    11  59    5.1854   467.1    5.885      44.566
2015    5        8    12   5    5.1828   467.1    5.877      44.539
2015    5        8    12  11    5.1801   467.2    5.870      44.513
2015    5        8    12  16    5.1775   467.3    5.863      44.486
2015    5        8    12  22    5.1748   467.3    5.855      44.459
2015    5        8    12  28    5.1722   467.4    5.848      44.433
2015    5        8    12  34    5.1696   467.4    5.841      44.406
2015    5        8    12  39    5.1669   467.5    5.834      44.380
2015    5        8    12  45    5.1643   467.5    5.827      44.353
2015    5        8    12  51    5.1616   467.6    5.820      44.326
2015    5        8    12  56    5.1590   467.6    5.813      44.300
2015    5        8    13   2    5.1564   467.7    5.807      44.273
2015    5        8    13   8    5.1538   467.7    5.800      44.247
2015    5        8    13  14    5.1513   467.8    5.793      44.221
2015    5        8    13  19    5.1487   467.8    5.787      44.195
2015    5        8    13  25    5.1462   467.9    5.781      44.170
2015    5        8    13  31    5.1437   467.9    5.774      44.145
2015    5        8    13  36    5.1413   467.9    5.768      44.120
2015    5        8    13  42    5.1389   468.0    5.762      44.095
2015    5        8    13  48    5.1365   468.0    5.756      44.071
2015    5        8    13  54    5.1341   468.1    5.750      44.047
2015    5        8    13  59    5.1318   468.1    5.745      44.023
2015    5        8    14   5    5.1295   468.1    5.739      44.000
2015    5        8    14  11    5.1273   468.2    5.734      43.977
2015    5        8    14  17    5.1250   468.2    5.728      43.955
2015    5        8    14  22    5.1228   468.2    5.723      43.933
2015    5        8    14  28    5.1206   468.3    5.718      43.912
2015    5        8    14  34    5.1184   468.3    5.713      43.892
2015    5        8    14  39    5.1162   468.3    5.707      43.871
2015    5        8    14  45    5.1140   468.4    5.702      43.852
2015    5        8    14  51    5.1119   468.4    5.697      43.832
2015    5        8    14  57    5.1097   468.4    5.692      43.812
2015    5        8    15   2    5.1075   468.5    5.687      43.793
2015    5        8    15   8    5.1053   468.5    5.682      43.773
2015    5        8    15  14    5.1031   468.5    5.677      43.753
2015    5        8    15  19    5.1010   468.6    5.672      43.732
2015    5        8    15  25    5.0988   468.6    5.667      43.712
2015    5        8    15  31    5.0966   468.6    5.662      43.691
2015    5        8    15  37    5.0945   468.6    5.657      43.670
2015    5        8    15  42    5.0923   468.7    5.652      43.649
2015    5        8    15  48    5.0902   468.7    5.648      43.628
2015    5        8    15  54    5.0880   468.7    5.643      43.607
2015    5        8    16   0    5.0859   468.7    5.639      43.585
2015    5        8    16   5    5.0838   468.7    5.635      43.564
2015    5        8    16  11    5.0817   468.8    5.630      43.542
2015    5        8    16  17    5.0796   468.8    5.626      43.521
2015    5        8    16  22    5.0775   468.8    5.623      43.499
2015    5        8    16  28    5.0755   468.8    5.619      43.477
2015    5        8    16  34    5.0734   468.8    5.615      43.456
2015    5        8    16  40    5.0714   468.8    5.612      43.434
2015    5        8    16  45    5.0693   468.8    5.608      43.413
2015    5        8    16  51    5.0673   468.8    5.605      43.391
2015    5        8    16  57    5.0653   468.8    5.602      43.370
2015    5        8    17   2    5.0633   468.8    5.599      43.348
2015    5        8    17   8    5.0614   468.8    5.596      43.327
2015    5        8    17  14    5.0594   468.8    5.594      43.306
2015    5        8    17  20    5.0575   468.8    5.592      43.285
2015    5        8    17  25    5.0556   468.8    5.589      43.264
2015    5        8    17  31    5.0537   468.8    5.587      43.243
2015    5        8    17  37    5.0519   468.8    5.585      43.223
2015    5        8    17  43    5.0501   468.8    5.584      43.203
2015    5        8    17  48    5.0483   468.8    5.582      43.183
2015    5        8    17  54    5.0466   468.8    5.581      43.164
2015    5        8    18   0    5.0449   468.8    5.580      43.144
2015    5        8    18   5    5.0432   468.8    5.579      43.126
2015    5        8    18  11    5.0416   468.8    5.578      43.107
2015    5        8    18  17    5.0400   468.8    5.577      43.089
2015    5        8    18  23    5.0384   468.8    5.577      43.072
2015    5        8    18  28    5.0369   468.8    5.576      43.054
2015    5        8    18  34    5.0355   468.7    5.576      43.038
2015    5        8    18  40    5.0341   468.7    5.576      43.022
2015    5        8    18  45    5.0327   468.7    5.576      43.006
2015    5        8    18  51    5.0313   468.7    5.577      42.991
2015    5        8    18  57    5.0300   468.7    5.577      42.976
2015    5        8    19   3    5.0287   468.7    5.578      42.962
2015    5        8    19   8    5.0275   468.7    5.578      42.948
2015    5        8    19  14    5.0263   468.7    5.579      42.935
2015    5        8    19  20    5.0251   468.6    5.580      42.923
2015    5        8    19  26    5.0240   468.6    5.581      42.912
2015    5        8    19  31    5.0229   468.6    5.582      42.901
2015    5        8    19  37    5.0218   468.6    5.583      42.890
2015    5        8    19  43    5.0207   468.6    5.584      42.880
2015    5        8    19  48    5.0197   468.6    5.585      42.870
2015    5        8    19  54    5.0187   468.5    5.586      42.860
2015    5        8    20   0    5.0178   468.5    5.588      42.851
2015    5        8    20   6    5.0168   468.5    5.589      42.841
2015    5        8    20  11    5.0159   468.5    5.590      42.832
2015    5        8    20  17    5.0150   468.5    5.592      42.823
2015    5        8    20  23    5.0142   468.4    5.593      42.815
2015    5        8    20  28    5.0134   468.4    5.595      42.806
2015    5        8    20  34    5.0126   468.4    5.597      42.798
2015    5        8    20  40    5.0119   468.4    5.598      42.790
2015    5        8    20  46    5.0112   468.3    5.600      42.782
2015    5        8    20  51    5.0105   468.3    5.602      42.775
2015    5        8    20  57    5.0099   468.3    5.604      42.768
2015    5        8    21   3    5.0093   468.3    5.606      42.762
2015    5        8    21   8    5.0088   468.2    5.608      42.756
2015    5        8    21  14    5.0083   468.2    5.610      42.751
2015    5        8    21  20    5.0079   468.2    5.612      42.746
2015    5        8    21  26    5.0075   468.1    5.614      42.741
2015    5        8    21  31    5.0071   468.1    5.617      42.738
2015    5        8    21  37    5.0068   468.1    5.619      42.735
2015    5        8    21  43    5.0065   468.1    5.621      42.733
2015    5        8    21  49    5.0063   468.0    5.623      42.732
2015    5        8    21  54    5.0061   468.0    5.625      42.731
2015    5        8    22   0    5.0059   468.0    5.627      42.731
2015    5        8    22   6    5.0058   467.9    5.629      42.731
2015    5        8    22  11    5.0057   467.9    5.631      42.732
2015    5        8    22  17    5.0057   467.9    5.633      42.733
2015    5        8    22  23    5.0056   467.9    5.634      42.733
2015    5        8    22  29    5.0057   467.8    5.636      42.734
2015    5        8    22  34    5.0057   467.8    5.638      42.734
2015    5        8    22  40    5.0058   467.8    5.639      42.734
2015    5        8    22  46    5.0058   467.7    5.641      42.734
2015    5        8    22  51    5.0060   467.7    5.643      42.735
2015    5        8    22  57    5.0061   467.7    5.644      42.735
2015    5        8    23   3    5.0062   467.7    5.646      42.735
2015    5        8    23   9    5.0064   467.6    5.647      42.735
2015    5        8    23  14    5.0066   467.6    5.648      42.735
2015    5        8    23  20    5.0068   467.6    5.650      42.735
2015    5        8    23  26    5.0070   467.5    5.651      42.734
2015    5        8    23  32    5.0073   467.5    5.653      42.734
2015    5        8    23  37    5.0075   467.5    5.654      42.734
2015    5        8    23  43    5.0078   467.5    5.655      42.734
2015    5        8    23  49    5.0081   467.4    5.657      42.734
2015    5        8    23  54    5.0084   467.4    5.658      42.734
2015    5        9     0   0    5.0088   467.4    5.659      42.734
2015    5        9     0   6    5.0091   467.3    5.661      42.734
2015    5        9     0  12    5.0095   467.3    5.662      42.734
2015    5        9     0  17    5.0099   467.3    5.664      42.734
2015    5        9     0  23    5.0103   467.3    5.665      42.734
2015    5        9     0  29    5.0108   467.2    5.666      42.734
2015    5        9     0  34    5.0113   467.2    5.668      42.734
2015    5        9     0  40    5.0118   467.2    5.669      42.734
2015    5        9     0  46    5.0123   467.1    5.671      42.734
2015    5        9     0  52    5.0129   467.1    5.672      42.735
2015    5        9     0  57    5.0135   467.1    5.674      42.735
2015    5        9     1   3    5.0141   467.1    5.675      42.735
2015    5        9     1   9    5.0147   467.0    5.677      42.736
2015    5        9     1  15    5.0154   467.0    5.679      42.736
2015    5        9     1  20    5.0161   467.0    5.680      42.737
2015    5        9     1  26    5.0169   466.9    5.682      42.738
2015    5        9     1  32    5.0177   466.9    5.684      42.739
2015    5        9     1  37    5.0185   466.9    5.686      42.740
2015    5        9     1  43    5.0194   466.8    5.688      42.742
2015    5        9     1  49    5.0203   466.8    5.690      42.745
2015    5        9     1  55    5.0212   466.8    5.692      42.748
2015    5        9     2   0    5.0222   466.8    5.694      42.752
2015    5        9     2   6    5.0232   466.7    5.696      42.756
2015    5        9     2  12    5.0242   466.7    5.698      42.760
2015    5        9     2  17    5.0253   466.7    5.700      42.764
2015    5        9     2  23    5.0264   466.7    5.702      42.768
2015    5        9     2  29    5.0275   466.6    5.704      42.772
2015    5        9     2  35    5.0287   466.6    5.706      42.776
2015    5        9     2  40    5.0299   466.6    5.708      42.779
2015    5        9     2  46    5.0312   466.5    5.710      42.783
2015    5        9     2  52    5.0325   466.5    5.712      42.787
2015    5        9     2  58    5.0338   466.5    5.714      42.791
2015    5        9     3   3    5.0352   466.4    5.716      42.794
2015    5        9     3   9    5.0366   466.4    5.719      42.798
2015    5        9     3  15    5.0381   466.4    5.721      42.802
2015    5        9     3  20    5.0396   466.4    5.724      42.806
2015    5        9     3  26    5.0412   466.3    5.726      42.811
2015    5        9     3  32    5.0428   466.3    5.729      42.816
2015    5        9     3  38    5.0445   466.3    5.732      42.821
2015    5        9     3  43    5.0462   466.2    5.735      42.827
2015    5        9     3  49    5.0479   466.2    5.738      42.833
2015    5        9     3  55    5.0497   466.2    5.742      42.840
2015    5        9     4   0    5.0516   466.2    5.745      42.847
2015    5        9     4   6    5.0534   466.1    5.749      42.856
2015    5        9     4  12    5.0553   466.1    5.752      42.865
2015    5        9     4  18    5.0572   466.1    5.756      42.876
2015    5        9     4  23    5.0591   466.1    5.759      42.888
2015    5        9     4  29    5.0610   466.1    5.762      42.901
2015    5        9     4  35    5.0629   466.1    5.766      42.914
2015    5        9     4  41    5.0648   466.0    5.769      42.927
2015    5        9     4  46    5.0668   466.0    5.772      42.940
2015    5        9     4  52    5.0687   466.0    5.775      42.953
2015    5        9     4  58    5.0707   466.0    5.778      42.965
2015    5        9     5   3    5.0727   466.0    5.781      42.977
2015    5        9     5   9    5.0746   466.0    5.784      42.989
2015    5        9     5  15    5.0766   466.0    5.787      43.001
2015    5        9     5  21    5.0786   465.9    5.789      43.012
2015    5        9     5  26    5.0807   465.9    5.792      43.023
2015    5        9     5  32    5.0827   465.9    5.795      43.033
2015    5        9     5  38    5.0848   465.9    5.797      43.043
2015    5        9     5  43    5.0869   465.9    5.800      43.053
2015    5        9     5  49    5.0891   465.8    5.803      43.063
2015    5        9     5  55    5.0912   465.8    5.805      43.072
2015    5        9     6   1    5.0934   465.8    5.808      43.082
2015    5        9     6   6    5.0957   465.8    5.811      43.091
2015    5        9     6  12    5.0979   465.8    5.813      43.101
2015    5        9     6  18    5.1002   465.8    5.816      43.110
2015    5        9     6  23    5.1026   465.7    5.819      43.120
2015    5        9     6  29    5.1050   465.7    5.822      43.129
2015    5        9     6  35    5.1074   465.7    5.825      43.139
2015    5        9     6  41    5.1100   465.7    5.828      43.148
2015    5        9     6  46    5.1125   465.7    5.831      43.158
2015    5        9     6  52    5.1151   465.7    5.834      43.168
2015    5        9     6  58    5.1178   465.6    5.838      43.178
2015    5        9     7   4    5.1205   465.6    5.841      43.189
2015    5        9     7   9    5.1233   465.6    5.845      43.200
2015    5        9     7  15    5.1262   465.6    5.849      43.212
2015    5        9     7  21    5.1291   465.6    5.853      43.224
2015    5        9     7  26    5.1322   465.6    5.857      43.236
2015    5        9     7  32    5.1353   465.6    5.862      43.249
2015    5        9     7  38    5.1385   465.6    5.866      43.263
2015    5        9     7  44    5.1417   465.6    5.871      43.279
2015    5        9     7  49    5.1451   465.6    5.876      43.296
2015    5        9     7  55    5.1484   465.6    5.882      43.314
2015    5        9     8   1    5.1519   465.6    5.887      43.334
2015    5        9     8   6    5.1553   465.6    5.892      43.356
2015    5        9     8  12    5.1588   465.6    5.898      43.378
2015    5        9     8  18    5.1624   465.6    5.903      43.400
2015    5        9     8  24    5.1660   465.6    5.908      43.422
2015    5        9     8  29    5.1696   465.6    5.914      43.444
2015    5        9     8  35    5.1733   465.6    5.919      43.466
2015    5        9     8  41    5.1770   465.6    5.925      43.489
2015    5        9     8  47    5.1808   465.7    5.931      43.511
2015    5        9     8  52    5.1845   465.7    5.937      43.533
2015    5        9     8  58    5.1884   465.7    5.942      43.556
2015    5        9     9   4    5.1924   465.7    5.949      43.580
2015    5        9     9   9    5.1964   465.7    5.955      43.605
2015    5        9     9  15    5.2005   465.7    5.961      43.630
2015    5        9     9  21    5.2046   465.8    5.968      43.655
2015    5        9     9  27    5.2087   465.8    5.974      43.682
2015    5        9     9  32    5.2130   465.8    5.981      43.711
2015    5        9     9  38    5.2172   465.8    5.988      43.742
2015    5        9     9  44    5.2214   465.9    5.995      43.774
2015    5        9     9  49    5.2255   465.9    6.002      43.808
2015    5        9     9  55    5.2297   465.9    6.008      43.844
2015    5        9    10   1    5.2339   466.0    6.015      43.882
2015    5        9    10   7    5.2380   466.0    6.021      43.919
2015    5        9    10  12    5.2421   466.1    6.027      43.955
2015    5        9    10  18    5.2462   466.1    6.033      43.991
2015    5        9    10  24    5.2503   466.2    6.039      44.026
2015    5        9    10  30    5.2543   466.2    6.044      44.060
2015    5        9    10  35    5.2582   466.3    6.050      44.094
2015    5        9    10  41    5.2622   466.3    6.055      44.127
2015    5        9    10  47    5.2661   466.4    6.059      44.158
2015    5        9    10  52    5.2700   466.4    6.064      44.190
2015    5        9    10  58    5.2739   466.4    6.069      44.220
2015    5        9    11   4    5.2778   466.5    6.073      44.250
2015    5        9    11  10    5.2816   466.5    6.077      44.280
2015    5        9    11  15    5.2855   466.6    6.082      44.309
2015    5        9    11  21    5.2894   466.6    6.086      44.338
2015    5        9    11  27    5.2932   466.6    6.090      44.367
2015    5        9    11  32    5.2971   466.7    6.095      44.396
2015    5        9    11  38    5.3009   466.7    6.099      44.425
2015    5        9    11  44    5.3047   466.8    6.103      44.455
2015    5        9    11  50    5.3085   466.8    6.107      44.485
2015    5        9    11  55    5.3123   466.9    6.111      44.516
2015    5        9    12   1    5.3161   466.9    6.114      44.548
2015    5        9    12   7    5.3199   466.9    6.118      44.580
2015    5        9    12  13    5.3237   467.0    6.122      44.612
2015    5        9    12  18    5.3275   467.0    6.125      44.644
2015    5        9    12  24    5.3313   467.1    6.128      44.676
2015    5        9    12  30    5.3351   467.1    6.132      44.708
2015    5        9    12  35    5.3389   467.1    6.135      44.739
2015    5        9    12  41    5.3428   467.2    6.138      44.770
2015    5        9    12  47    5.3466   467.2    6.141      44.801
2015    5        9    12  53    5.3505   467.3    6.144      44.832
2015    5        9    12  58    5.3544   467.3    6.148      44.863
2015    5        9    13   4    5.3583   467.3    6.151      44.893
2015    5        9    13  10    5.3623   467.4    6.154      44.923
2015    5        9    13  15    5.3663   467.4    6.157      44.954
2015    5        9    13  21    5.3703   467.5    6.161      44.984
2015    5        9    13  27    5.3743   467.5    6.164      45.015
2015    5        9    13  33    5.3784   467.5    6.167      45.046
2015    5        9    13  38    5.3826   467.6    6.171      45.077
2015    5        9    13  44    5.3867   467.6    6.174      45.108
2015    5        9    13  50    5.3909   467.7    6.178      45.140
2015    5        9    13  55    5.3952   467.7    6.182      45.172
2015    5        9    14   1    5.3995   467.8    6.186      45.204
2015    5        9    14   7    5.4039   467.8    6.190      45.237
2015    5        9    14  13    5.4083   467.9    6.194      45.271
2015    5        9    14  18    5.4127   467.9    6.199      45.306
2015    5        9    14  24    5.4173   468.0    6.203      45.341
2015    5        9    14  30    5.4219   468.0    6.208      45.378
2015    5        9    14  36    5.4266   468.1    6.213      45.415
2015    5        9    14  41    5.4313   468.1    6.219      45.453
2015    5        9    14  47    5.4362   468.2    6.225      45.493
2015    5        9    14  53    5.4411   468.3    6.231      45.534
2015    5        9    14  58    5.4461   468.3    6.237      45.577
2015    5        9    15   4    5.4511   468.4    6.244      45.622
2015    5        9    15  10    5.4562   468.5    6.251      45.669
2015    5        9    15  16    5.4613   468.6    6.258      45.718
2015    5        9    15  21    5.4664   468.7    6.265      45.769
2015    5        9    15  27    5.4716   468.8    6.272      45.821
2015    5        9    15  33    5.4768   468.9    6.280      45.874
2015    5        9    15  38    5.4820   469.0    6.287      45.928
2015    5        9    15  44    5.4873   469.1    6.295      45.982
2015    5        9    15  50    5.4925   469.2    6.303      46.037
2015    5        9    15  56    5.4978   469.3    6.311      46.092
2015    5        9    16   1    5.5031   469.4    6.319      46.148
2015    5        9    16   7    5.5085   469.5    6.328      46.205
2015    5        9    16  13    5.5139   469.6    6.336      46.263
2015    5        9    16  19    5.5193   469.8    6.345      46.323
2015    5        9    16  24    5.5248   469.9    6.354      46.384
2015    5        9    16  30    5.5304   470.0    6.363      46.446
2015    5        9    16  36    5.5359   470.1    6.372      46.509
2015    5        9    16  41    5.5415   470.2    6.382      46.574
2015    5        9    16  47    5.5471   470.4    6.392      46.642
2015    5        9    16  53    5.5526   470.5    6.402      46.712
2015    5        9    16  59    5.5581   470.6    6.412      46.784
2015    5        9    17   4    5.5636   470.8    6.422      46.858
2015    5        9    17  10    5.5691   471.0    6.431      46.934
2015    5        9    17  16    5.5745   471.1    6.441      47.012
2015    5        9    17  21    5.5798   471.3    6.451      47.090
2015    5        9    17  27    5.5851   471.4    6.460      47.167
2015    5        9    17  33    5.5903   471.6    6.469      47.243
2015    5        9    17  39    5.5954   471.8    6.478      47.318
2015    5        9    17  44    5.6005   471.9    6.486      47.392
2015    5        9    17  50    5.6055   472.1    6.494      47.466
2015    5        9    17  56    5.6104   472.3    6.502      47.539
2015    5        9    18   2    5.6152   472.4    6.509      47.611
2015    5        9    18   7    5.6200   472.6    6.516      47.683
2015    5        9    18  13    5.6247   472.8    6.523      47.755
2015    5        9    18  19    5.6294   472.9    6.529      47.828
2015    5        9    18  24    5.6341   473.1    6.535      47.900
2015    5        9    18  30    5.6387   473.3    6.541      47.973
2015    5        9    18  36    5.6432   473.4    6.546      48.045
2015    5        9    18  42    5.6477   473.6    6.551      48.118
2015    5        9    18  47    5.6522   473.7    6.556      48.190
2015    5        9    18  53    5.6566   473.9    6.560      48.261
2015    5        9    18  59    5.6610   474.0    6.564      48.332
2015    5        9    19   4    5.6654   474.2    6.567      48.402
2015    5        9    19  10    5.6698   474.4    6.571      48.471
2015    5        9    19  16    5.6742   474.5    6.574      48.539
2015    5        9    19  22    5.6785   474.7    6.577      48.606
2015    5        9    19  27    5.6828   474.8    6.579      48.673
2015    5        9    19  33    5.6871   475.0    6.581      48.738
2015    5        9    19  39    5.6914   475.1    6.583      48.802
2015    5        9    19  45    5.6956   475.3    6.585      48.865
2015    5        9    19  50    5.6999   475.4    6.586      48.927
2015    5        9    19  56    5.7041   475.6    6.588      48.987
2015    5        9    20   2    5.7083   475.7    6.588      49.047
2015    5        9    20   7    5.7124   475.9    6.589      49.104
2015    5        9    20  13    5.7165   476.1    6.589      49.161
2015    5        9    20  19    5.7206   476.2    6.589      49.216
2015    5        9    20  25    5.7247   476.4    6.589      49.270
2015    5        9    20  30    5.7287   476.5    6.589      49.322
2015    5        9    20  36    5.7327   476.7    6.588      49.373
2015    5        9    20  42    5.7366   476.8    6.587      49.423
2015    5        9    20  47    5.7406   477.0    6.586      49.471
2015    5        9    20  53    5.7445   477.2    6.585      49.519
2015    5        9    20  59    5.7484   477.3    6.584      49.565
2015    5        9    21   5    5.7523   477.5    6.583      49.610
2015    5        9    21  10    5.7561   477.6    6.581      49.655
2015    5        9    21  16    5.7600   477.8    6.579      49.699
2015    5        9    21  22    5.7638   477.9    6.578      49.742
2015    5        9    21  27    5.7677   478.1    6.576      49.784
2015    5        9    21  33    5.7715   478.3    6.574      49.826
2015    5        9    21  39    5.7754   478.4    6.572      49.867
2015    5        9    21  45    5.7793   478.6    6.570      49.909
2015    5        9    21  50    5.7831   478.7    6.569      49.950
2015    5        9    21  56    5.7870   478.9    6.567      49.990
2015    5        9    22   2    5.7909   479.1    6.565      50.031
2015    5        9    22   8    5.7949   479.2    6.564      50.072
2015    5        9    22  13    5.7988   479.4    6.562      50.112
2015    5        9    22  19    5.8028   479.5    6.561      50.153
2015    5        9    22  25    5.8068   479.7    6.559      50.194
2015    5        9    22  30    5.8107   479.9    6.558      50.235
2015    5        9    22  36    5.8148   480.0    6.557      50.276
2015    5        9    22  42    5.8188   480.2    6.556      50.318
2015    5        9    22  48    5.8228   480.4    6.556      50.360
2015    5        9    22  53    5.8268   480.5    6.555      50.403
2015    5        9    22  59    5.8309   480.7    6.555      50.446
2015    5        9    23   5    5.8350   480.9    6.555      50.490
2015    5        9    23  10    5.8390   481.0    6.555      50.535
2015    5        9    23  16    5.8431   481.2    6.556      50.580
2015    5        9    23  22    5.8472   481.4    6.556      50.625
2015    5        9    23  28    5.8513   481.5    6.557      50.672
2015    5        9    23  33    5.8555   481.7    6.558      50.720
2015    5        9    23  39    5.8596   481.9    6.560      50.769
2015    5        9    23  45    5.8638   482.1    6.561      50.820
2015    5        9    23  51    5.8680   482.2    6.563      50.873
2015    5        9    23  56    5.8722   482.4    6.565      50.927
2015    5       10     0   2    5.8764   482.6    6.568      50.984
2015    5       10     0   8    5.8807   482.8    6.571      51.042
2015    5       10     0  13    5.8850   483.0    6.574      51.102
2015    5       10     0  19    5.8893   483.1    6.577      51.164
2015    5       10     0  25    5.8936   483.3    6.581      51.227
2015    5       10     0  31    5.8980   483.5    6.585      51.292
2015    5       10     0  36    5.9025   483.7    6.590      51.359
2015    5       10     0  42    5.9070   483.9    6.595      51.426
2015    5       10     0  48    5.9114   484.1    6.600      51.497
2015    5       10     0  53    5.9159   484.3    6.606      51.571
2015    5       10     0  59    5.9204   484.5    6.612      51.648
2015    5       10     1   5    5.9250   484.7    6.618      51.726
2015    5       10     1  11    5.9294   484.9    6.625      51.806
2015    5       10     1  16    5.9339   485.1    6.631      51.889
2015    5       10     1  22    5.9383   485.3    6.638      51.972
2015    5       10     1  28    5.9427   485.5    6.645      52.056
2015    5       10     1  34    5.9471   485.8    6.651      52.139
2015    5       10     1  39    5.9514   486.0    6.658      52.224
2015    5       10     1  45    5.9558   486.2    6.664      52.310
2015    5       10     1  51    5.9601   486.4    6.671      52.398
2015    5       10     1  56    5.9645   486.6    6.678      52.488
2015    5       10     2   2    5.9688   486.8    6.684      52.580
2015    5       10     2   8    5.9732   487.1    6.691      52.672
2015    5       10     2  14    5.9776   487.3    6.698      52.768
2015    5       10     2  19    5.9820   487.5    6.705      52.865
2015    5       10     2  25    5.9865   487.7    6.712      52.961
2015    5       10     2  31    5.9911   487.9    6.719      53.057
2015    5       10     2  36    5.9956   488.1    6.727      53.157
2015    5       10     2  42    6.0003   488.4    6.734      53.261
2015    5       10     2  48    6.0049   488.6    6.742      53.368
2015    5       10     2  54    6.0094   488.9    6.749      53.478
2015    5       10     2  59    6.0140   489.1    6.755      53.591
2015    5       10     3   5    6.0184   489.4    6.762      53.706
2015    5       10     3  11    6.0228   489.6    6.767      53.822
2015    5       10     3  16    6.0270   489.9    6.772      53.935
2015    5       10     3  22    6.0311   490.2    6.776      54.045
2015    5       10     3  28    6.0351   490.4    6.779      54.151
2015    5       10     3  34    6.0390   490.7    6.781      54.255
2015    5       10     3  39    6.0428   491.0    6.783      54.355
2015    5       10     3  45    6.0464   491.3    6.784      54.453
2015    5       10     3  51    6.0499   491.5    6.784      54.547
2015    5       10     3  57    6.0534   491.8    6.784      54.637
2015    5       10     4   2    6.0567   492.1    6.783      54.723
2015    5       10     4   8    6.0599   492.4    6.781      54.806
2015    5       10     4  14    6.0631   492.6    6.779      54.886
2015    5       10     4  19    6.0662   492.9    6.776      54.962
2015    5       10     4  25    6.0693   493.2    6.773      55.036
2015    5       10     4  31    6.0723   493.5    6.769      55.107
2015    5       10     4  37    6.0752   493.8    6.765      55.176
2015    5       10     4  42    6.0781   494.0    6.760      55.241
2015    5       10     4  48    6.0810   494.3    6.755      55.304
2015    5       10     4  54    6.0839   494.6    6.750      55.365
2015    5       10     4  59    6.0867   494.9    6.744      55.424
2015    5       10     5   5    6.0895   495.1    6.738      55.481
2015    5       10     5  11    6.0923   495.4    6.732      55.535
2015    5       10     5  17    6.0951   495.7    6.726      55.588
2015    5       10     5  22    6.0978   496.0    6.719      55.639
2015    5       10     5  28    6.1005   496.2    6.712      55.688
2015    5       10     5  34    6.1032   496.5    6.705      55.736
2015    5       10     5  40    6.1059   496.8    6.698      55.782
2015    5       10     5  45    6.1086   497.0    6.691      55.828
2015    5       10     5  51    6.1113   497.3    6.684      55.871
2015    5       10     5  57    6.1139   497.6    6.677      55.914
2015    5       10     6   2    6.1166   497.9    6.669      55.956
2015    5       10     6   8    6.1192   498.1    6.662      55.997
2015    5       10     6  14    6.1218   498.4    6.655      56.037
2015    5       10     6  20    6.1245   498.7    6.648      56.078
2015    5       10     6  25    6.1272   498.9    6.641      56.117
2015    5       10     6  31    6.1298   499.2    6.634      56.157
2015    5       10     6  37    6.1325   499.4    6.627      56.196
2015    5       10     6  42    6.1352   499.7    6.620      56.235
2015    5       10     6  48    6.1379   500.0    6.613      56.274
2015    5       10     6  54    6.1406   500.2    6.607      56.314
2015    5       10     7   0    6.1433   500.5    6.601      56.353
2015    5       10     7   5    6.1461   500.8    6.595      56.394
2015    5       10     7  11    6.1489   501.0    6.589      56.434
2015    5       10     7  17    6.1518   501.3    6.584      56.475
2015    5       10     7  23    6.1547   501.5    6.579      56.517
2015    5       10     7  28    6.1576   501.8    6.574      56.560
2015    5       10     7  34    6.1606   502.1    6.570      56.604
2015    5       10     7  40    6.1637   502.3    6.566      56.649
2015    5       10     7  45    6.1668   502.6    6.563      56.696
2015    5       10     7  51    6.1699   502.8    6.560      56.744
2015    5       10     7  57    6.1731   503.1    6.558      56.793
2015    5       10     8   3    6.1764   503.4    6.557      56.846
2015    5       10     8   8    6.1797   503.6    6.556      56.903
2015    5       10     8  14    6.1831   503.9    6.555      56.964
2015    5       10     8  20    6.1864   504.2    6.555      57.029
2015    5       10     8  25    6.1898   504.5    6.555      57.098
2015    5       10     8  31    6.1932   504.7    6.555      57.171
2015    5       10     8  37    6.1966   505.0    6.556      57.246
2015    5       10     8  43    6.2000   505.3    6.556      57.323
2015    5       10     8  48    6.2033   505.6    6.557      57.401
2015    5       10     8  54    6.2068   505.9    6.559      57.480
2015    5       10     9   0    6.2102   506.2    6.560      57.560
2015    5       10     9   6    6.2136   506.4    6.562      57.642
2015    5       10     9  11    6.2170   506.7    6.564      57.725
2015    5       10     9  17    6.2205   507.0    6.567      57.810
2015    5       10     9  23    6.2239   507.3    6.569      57.898
2015    5       10     9  28    6.2274   507.6    6.572      57.989
2015    5       10     9  34    6.2309   507.9    6.576      58.084
2015    5       10     9  40    6.2345   508.2    6.579      58.181
2015    5       10     9  46    6.2381   508.5    6.583      58.279
2015    5       10     9  51    6.2417   508.8    6.587      58.379
2015    5       10     9  57    6.2454   509.1    6.592      58.485
2015    5       10    10   3    6.2491   509.4    6.597      58.596
2015    5       10    10   8    6.2527   509.7    6.601      58.709
2015    5       10    10  14    6.2564   510.0    6.606      58.826
2015    5       10    10  20    6.2599   510.3    6.610      58.947
2015    5       10    10  26    6.2634   510.6    6.613      59.072
2015    5       10    10  31    6.2668   511.0    6.617      59.196
2015    5       10    10  37    6.2702   511.3    6.619      59.319
2015    5       10    10  43    6.2734   511.6    6.622      59.441
2015    5       10    10  48    6.2767   512.0    6.624      59.561
2015    5       10    10  54    6.2798   512.3    6.625      59.679
2015    5       10    11   0    6.2829   512.7    6.626      59.797
2015    5       10    11   6    6.2860   513.0    6.626      59.913
2015    5       10    11  11    6.2891   513.4    6.626      60.028
2015    5       10    11  17    6.2922   513.7    6.625      60.141
2015    5       10    11  23    6.2953   514.1    6.624      60.252
2015    5       10    11  29    6.2984   514.5    6.622      60.361
2015    5       10    11  34    6.3014   514.8    6.620      60.468
2015    5       10    11  40    6.3043   515.2    6.617      60.573
2015    5       10    11  46    6.3072   515.6    6.614      60.676
2015    5       10    11  51    6.3101   516.0    6.610      60.776
2015    5       10    11  57    6.3128   516.4    6.606      60.873
2015    5       10    12   3    6.3154   516.8    6.601      60.968
2015    5       10    12   9    6.3179   517.2    6.595      61.059
2015    5       10    12  14    6.3203   517.6    6.589      61.148
2015    5       10    12  20    6.3225   518.1    6.582      61.232
2015    5       10    12  26    6.3247   518.5    6.575      61.313
2015    5       10    12  31    6.3267   518.9    6.568      61.391
2015    5       10    12  37    6.3285   519.3    6.560      61.465
2015    5       10    12  43    6.3303   519.7    6.551      61.536
2015    5       10    12  49    6.3319   520.1    6.543      61.603
2015    5       10    12  54    6.3335   520.5    6.534      61.668
2015    5       10    13   0    6.3350   520.9    6.525      61.730
2015    5       10    13   6    6.3365   521.3    6.515      61.790
2015    5       10    13  12    6.3378   521.7    6.506      61.849
2015    5       10    13  17    6.3392   522.1    6.496      61.906
2015    5       10    13  23    6.3405   522.4    6.487      61.961
2015    5       10    13  29    6.3417   522.8    6.477      62.016
2015    5       10    13  34    6.3429   523.2    6.467      62.070
2015    5       10    13  40    6.3441   523.6    6.457      62.122
2015    5       10    13  46    6.3452   524.0    6.447      62.174
2015    5       10    13  52    6.3463   524.3    6.437      62.224
2015    5       10    13  57    6.3473   524.7    6.426      62.274
2015    5       10    14   3    6.3483   525.1    6.416      62.323
2015    5       10    14   9    6.3493   525.5    6.406      62.371
2015    5       10    14  14    6.3503   525.8    6.395      62.418
2015    5       10    14  20    6.3512   526.2    6.385      62.464
2015    5       10    14  26    6.3521   526.6    6.375      62.508
2015    5       10    14  32    6.3530   527.0    6.364      62.552
2015    5       10    14  37    6.3539   527.3    6.354      62.594
2015    5       10    14  43    6.3547   527.7    6.343      62.635
2015    5       10    14  49    6.3555   528.1    6.333      62.676
2015    5       10    14  55    6.3562   528.5    6.323      62.715
2015    5       10    15   0    6.3569   528.9    6.312      62.754
2015    5       10    15   6    6.3576   529.2    6.302      62.792
2015    5       10    15  12    6.3582   529.6    6.292      62.828
2015    5       10    15  17    6.3587   530.0    6.282      62.862
2015    5       10    15  23    6.3593   530.4    6.272      62.897
2015    5       10    15  29    6.3599   530.7    6.262      62.931
2015    5       10    15  35    6.3604   531.1    6.252      62.965
2015    5       10    15  40    6.3610   531.5    6.243      63.001
2015    5       10    15  46    6.3615   531.9    6.233      63.041
2015    5       10    15  52    6.3618   532.3    6.223      63.084
2015    5       10    15  57    6.3622   532.7    6.214      63.127
2015    5       10    16   3    6.3624   533.1    6.204      63.172
2015    5       10    16   9    6.3625   533.5    6.195      63.220
2015    5       10    16  15    6.3627   533.9    6.185      63.269
2015    5       10    16  20    6.3627   534.3    6.176      63.317
2015    5       10    16  26    6.3628   534.7    6.167      63.364
2015    5       10    16  32    6.3629   535.1    6.159      63.412
2015    5       10    16  37    6.3631   535.5    6.151      63.462
2015    5       10    16  43    6.3632   535.9    6.143      63.511
2015    5       10    16  49    6.3633   536.2    6.135      63.561
2015    5       10    16  55    6.3636   536.6    6.128      63.613
2015    5       10    17   0    6.3637   536.9    6.120      63.667
2015    5       10    17   6    6.3639   537.2    6.113      63.724
2015    5       10    17  12    6.3641   537.6    6.105      63.784
2015    5       10    17  18    6.3642   537.9    6.098      63.847
2015    5       10    17  23    6.3643   538.3    6.091      63.915
2015    5       10    17  29    6.3644   538.7    6.083      63.989
2015    5       10    17  35    6.3644   539.1    6.076      64.067
2015    5       10    17  40    6.3644   539.5    6.069      64.148
2015    5       10    17  46    6.3644   539.9    6.062      64.233
2015    5       10    17  52    6.3644   540.3    6.054      64.320
2015    5       10    17  58    6.3644   540.7    6.047      64.409
2015    5       10    18   3    6.3644   541.1    6.040      64.499
2015    5       10    18   9    6.3644   541.4    6.034      64.587
2015    5       10    18  15    6.3644   541.8    6.027      64.674
2015    5       10    18  20    6.3643   542.2    6.020      64.762
2015    5       10    18  26    6.3644   542.6    6.012      64.850
2015    5       10    18  32    6.3644   543.0    6.005      64.939
2015    5       10    18  38    6.3644   543.4    5.998      65.029
2015    5       10    18  43    6.3644   543.8    5.990      65.119
2015    5       10    18  49    6.3644   544.2    5.983      65.211
2015    5       10    18  55    6.3643   544.7    5.975      65.302
2015    5       10    19   1    6.3642   545.1    5.967      65.392
2015    5       10    19   6    6.3639   545.6    5.959      65.481
2015    5       10    19  12    6.3636   546.0    5.950      65.567
2015    5       10    19  18    6.3632   546.5    5.941      65.649
2015    5       10    19  23    6.3627   547.0    5.932      65.727
2015    5       10    19  29    6.3619   547.4    5.922      65.801
2015    5       10    19  35    6.3610   547.9    5.912      65.871
2015    5       10    19  41    6.3600   548.4    5.901      65.937
2015    5       10    19  46    6.3587   548.9    5.890      65.998
2015    5       10    19  52    6.3572   549.4    5.879      66.056
2015    5       10    19  58    6.3555   549.9    5.867      66.114
2015    5       10    20   3    6.3535   550.4    5.854      66.170
2015    5       10    20   9    6.3513   550.9    5.841      66.223
2015    5       10    20  15    6.3487   551.4    5.828      66.271
2015    5       10    20  21    6.3460   551.9    5.814      66.313
2015    5       10    20  26    6.3430   552.4    5.800      66.350
2015    5       10    20  32    6.3399   552.8    5.785      66.381
2015    5       10    20  38    6.3366   553.2    5.771      66.408
2015    5       10    20  44    6.3334   553.6    5.757      66.432
2015    5       10    20  49    6.3302   554.0    5.743      66.455
2015    5       10    20  55    6.3270   554.4    5.730      66.478
2015    5       10    21   1    6.3239   554.8    5.716      66.501
2015    5       10    21   6    6.3209   555.2    5.703      66.523
2015    5       10    21  12    6.3178   555.6    5.690      66.544
2015    5       10    21  18    6.3149   555.9    5.677      66.564
2015    5       10    21  24    6.3119   556.3    5.664      66.583
2015    5       10    21  29    6.3091   556.6    5.652      66.603
2015    5       10    21  35    6.3062   557.0    5.640      66.623
2015    5       10    21  41    6.3034   557.3    5.627      66.643
2015    5       10    21  46    6.3005   557.7    5.615      66.665
2015    5       10    21  52    6.2976   558.1    5.603      66.691
2015    5       10    21  58    6.2947   558.4    5.590      66.718
2015    5       10    22   4    6.2917   558.8    5.578      66.746
2015    5       10    22   9    6.2887   559.2    5.565      66.774
2015    5       10    22  15    6.2857   559.7    5.553      66.802
2015    5       10    22  21    6.2825   560.1    5.540      66.829
2015    5       10    22  27    6.2794   560.5    5.527      66.853
2015    5       10    22  32    6.2762   560.9    5.514      66.871
2015    5       10    22  38    6.2730   561.2    5.502      66.886
2015    5       10    22  44    6.2697   561.6    5.489      66.898
2015    5       10    22  49    6.2663   562.0    5.476      66.909
2015    5       10    22  55    6.2629   562.4    5.463      66.918
2015    5       10    23   1    6.2594   562.8    5.450      66.930
2015    5       10    23   7    6.2558   563.2    5.436      66.944
2015    5       10    23  12    6.2521   563.6    5.423      66.956
2015    5       10    23  18    6.2484   564.0    5.410      66.968
2015    5       10    23  24    6.2448   564.4    5.397      66.980
2015    5       10    23  29    6.2411   564.8    5.384      66.995
2015    5       10    23  35    6.2374   565.2    5.372      67.008
2015    5       10    23  41    6.2338   565.6    5.359      67.021
2015    5       10    23  47    6.2303   566.0    5.348      67.036
2015    5       10    23  52    6.2268   566.4    5.336      67.055
2015    5       10    23  58    6.2233   566.7    5.325      67.072
2015    5       11     0   4    6.2200   567.1    5.314      67.090
2015    5       11     0   9    6.2167   567.5    5.304      67.108
2015    5       11     0  15    6.2134   567.8    5.294      67.127
2015    5       11     0  21    6.2102   568.1    5.284      67.147
2015    5       11     0  27    6.2069   568.5    5.275      67.168
2015    5       11     0  32    6.2036   568.8    5.265      67.191
2015    5       11     0  38    6.2002   569.2    5.255      67.220
2015    5       11     0  44    6.1968   569.5    5.245      67.254
2015    5       11     0  50    6.1933   569.9    5.236      67.293
2015    5       11     0  55    6.1897   570.3    5.226      67.334
2015    5       11     1   1    6.1860   570.7    5.216      67.377
2015    5       11     1   7    6.1824   571.1    5.207      67.422
2015    5       11     1  12    6.1786   571.5    5.197      67.468
2015    5       11     1  18    6.1749   571.9    5.188      67.512
2015    5       11     1  24    6.1710   572.3    5.178      67.553
2015    5       11     1  30    6.1672   572.6    5.168      67.592
2015    5       11     1  35    6.1634   573.0    5.158      67.629
2015    5       11     1  41    6.1596   573.3    5.149      67.666
2015    5       11     1  47    6.1557   573.7    5.139      67.702
2015    5       11     1  52    6.1518   574.0    5.129      67.740
2015    5       11     1  58    6.1479   574.4    5.119      67.777
2015    5       11     2   4    6.1441   574.8    5.109      67.815
2015    5       11     2  10    6.1402   575.1    5.099      67.854
2015    5       11     2  15    6.1363   575.5    5.090      67.892
2015    5       11     2  21    6.1324   575.9    5.080      67.930
2015    5       11     2  27    6.1286   576.3    5.070      67.967
2015    5       11     2  33    6.1246   576.6    5.060      68.003
2015    5       11     2  38    6.1207   577.0    5.051      68.036
2015    5       11     2  44    6.1168   577.4    5.041      68.067
2015    5       11     2  50    6.1128   577.8    5.032      68.096
2015    5       11     2  55    6.1086   578.2    5.022      68.124
2015    5       11     3   1    6.1045   578.5    5.012      68.149
2015    5       11     3   7    6.1002   579.0    5.002      68.175
2015    5       11     3  13    6.0958   579.4    4.992      68.201
2015    5       11     3  18    6.0913   579.8    4.982      68.230
2015    5       11     3  24    6.0866   580.3    4.971      68.260
2015    5       11     3  30    6.0817   580.7    4.959      68.285
2015    5       11     3  35    6.0765   581.2    4.948      68.306
2015    5       11     3  41    6.0712   581.6    4.936      68.322
2015    5       11     3  47    6.0658   582.0    4.924      68.333
2015    5       11     3  53    6.0603   582.4    4.912      68.338
2015    5       11     3  58    6.0547   582.8    4.900      68.339
2015    5       11     4   4    6.0493   583.1    4.889      68.338
2015    5       11     4  10    6.0439   583.5    4.877      68.337
2015    5       11     4  16    6.0386   583.8    4.866      68.337
2015    5       11     4  21    6.0334   584.1    4.855      68.337
2015    5       11     4  27    6.0282   584.5    4.845      68.337
2015    5       11     4  33    6.0232   584.8    4.835      68.335
2015    5       11     4  38    6.0183   585.1    4.825      68.333
2015    5       11     4  44    6.0134   585.3    4.815      68.332
2015    5       11     4  50    6.0086   585.6    4.806      68.333
2015    5       11     4  56    6.0039   585.9    4.796      68.336
2015    5       11     5   1    5.9992   586.2    4.787      68.340
2015    5       11     5   7    5.9945   586.5    4.778      68.350
2015    5       11     5  13    5.9898   586.8    4.769      68.364
2015    5       11     5  18    5.9852   587.1    4.761      68.382
2015    5       11     5  24    5.9805   587.4    4.752      68.401
2015    5       11     5  30    5.9758   587.8    4.743      68.422
2015    5       11     5  36    5.9711   588.1    4.734      68.445
2015    5       11     5  41    5.9664   588.4    4.726      68.467
2015    5       11     5  47    5.9617   588.8    4.717      68.487
2015    5       11     5  53    5.9570   589.1    4.709      68.504
2015    5       11     5  58    5.9523   589.4    4.700      68.520
2015    5       11     6   4    5.9475   589.7    4.692      68.536
2015    5       11     6  10    5.9427   590.0    4.683      68.552
2015    5       11     6  16    5.9378   590.4    4.674      68.567
2015    5       11     6  21    5.9330   590.7    4.666      68.581
2015    5       11     6  27    5.9281   591.0    4.657      68.594
2015    5       11     6  33    5.9234   591.3    4.649      68.607
2015    5       11     6  39    5.9187   591.6    4.640      68.618
2015    5       11     6  44    5.9140   591.9    4.632      68.630
2015    5       11     6  50    5.9095   592.1    4.625      68.643
2015    5       11     6  56    5.9049   592.4    4.617      68.658
2015    5       11     7   1    5.9004   592.7    4.609      68.675
2015    5       11     7   7    5.8960   593.0    4.601      68.695
2015    5       11     7  13    5.8915   593.4    4.594      68.718
2015    5       11     7  19    5.8871   593.7    4.587      68.744
2015    5       11     7  24    5.8827   594.0    4.580      68.771
2015    5       11     7  30    5.8784   594.4    4.573      68.799
2015    5       11     7  36    5.8740   594.7    4.566      68.826
2015    5       11     7  41    5.8696   595.0    4.559      68.853
2015    5       11     7  47    5.8652   595.4    4.551      68.879
2015    5       11     7  53    5.8608   595.7    4.544      68.903
2015    5       11     7  59    5.8563   596.0    4.537      68.926
2015    5       11     8   4    5.8518   596.4    4.530      68.948
2015    5       11     8  10    5.8472   596.7    4.522      68.969
2015    5       11     8  16    5.8425   597.0    4.515      68.989
2015    5       11     8  22    5.8379   597.3    4.507      69.007
2015    5       11     8  27    5.8332   597.7    4.499      69.024
2015    5       11     8  33    5.8285   598.0    4.492      69.040
2015    5       11     8  39    5.8238   598.3    4.484      69.055
2015    5       11     8  44    5.8192   598.6    4.476      69.069
2015    5       11     8  50    5.8146   598.9    4.468      69.082
2015    5       11     8  56    5.8100   599.2    4.460      69.094
2015    5       11     9   2    5.8054   599.5    4.452      69.105
2015    5       11     9   7    5.8009   599.8    4.445      69.116
2015    5       11     9  13    5.7965   600.1    4.437      69.126
2015    5       11     9  19    5.7920   600.4    4.429      69.136
2015    5       11     9  24    5.7876   600.7    4.421      69.146
2015    5       11     9  30    5.7833   601.0    4.414      69.156
2015    5       11     9  36    5.7790   601.3    4.406      69.166
2015    5       11     9  42    5.7747   601.6    4.398      69.177
2015    5       11     9  47    5.7704   601.9    4.391      69.188
2015    5       11     9  53    5.7661   602.2    4.383      69.199
2015    5       11     9  59    5.7619   602.4    4.376      69.211
2015    5       11    10   5    5.7576   602.7    4.369      69.224
2015    5       11    10  10    5.7534   603.0    4.362      69.236
2015    5       11    10  16    5.7492   603.3    4.355      69.250
2015    5       11    10  22    5.7449   603.6    4.348      69.264
2015    5       11    10  27    5.7407   603.9    4.341      69.278
2015    5       11    10  33    5.7364   604.2    4.334      69.293
2015    5       11    10  39    5.7322   604.5    4.327      69.307
2015    5       11    10  45    5.7279   604.8    4.321      69.321
2015    5       11    10  50    5.7237   605.1    4.314      69.336
2015    5       11    10  56    5.7194   605.4    4.307      69.350
2015    5       11    11   2    5.7152   605.7    4.300      69.364
2015    5       11    11   7    5.7109   606.0    4.293      69.377
2015    5       11    11  13    5.7067   606.3    4.287      69.390
2015    5       11    11  19    5.7025   606.6    4.280      69.403
2015    5       11    11  25    5.6983   606.9    4.273      69.416
2015    5       11    11  30    5.6940   607.2    4.266      69.430
2015    5       11    11  36    5.6898   607.5    4.260      69.443
2015    5       11    11  42    5.6856   607.8    4.253      69.456
2015    5       11    11  47    5.6814   608.1    4.247      69.470
2015    5       11    11  53    5.6773   608.4    4.240      69.484
2015    5       11    11  59    5.6731   608.7    4.234      69.498
2015    5       11    12   5    5.6689   609.0    4.227      69.512
2015    5       11    12  10    5.6647   609.3    4.221      69.527
2015    5       11    12  16    5.6605   609.6    4.215      69.542
2015    5       11    12  22    5.6563   609.9    4.209      69.558
2015    5       11    12  28    5.6521   610.2    4.202      69.574
2015    5       11    12  33    5.6479   610.5    4.196      69.590
2015    5       11    12  39    5.6437   610.7    4.190      69.607
2015    5       11    12  45    5.6394   611.0    4.184      69.624
2015    5       11    12  50    5.6352   611.3    4.178      69.640
2015    5       11    12  56    5.6309   611.6    4.172      69.656
2015    5       11    13   2    5.6266   611.9    4.166      69.672
2015    5       11    13   8    5.6224   612.2    4.160      69.688
2015    5       11    13  13    5.6181   612.5    4.153      69.704
2015    5       11    13  19    5.6139   612.8    4.147      69.719
2015    5       11    13  25    5.6096   613.1    4.141      69.734
2015    5       11    13  30    5.6053   613.4    4.135      69.749
2015    5       11    13  36    5.6011   613.7    4.129      69.764
2015    5       11    13  42    5.5969   613.9    4.123      69.779
2015    5       11    13  48    5.5927   614.2    4.117      69.793
2015    5       11    13  53    5.5884   614.5    4.111      69.808
2015    5       11    13  59    5.5842   614.8    4.105      69.822
2015    5       11    14   5    5.5801   615.1    4.099      69.835
2015    5       11    14  11    5.5759   615.3    4.092      69.849
2015    5       11    14  16    5.5717   615.6    4.086      69.862
2015    5       11    14  22    5.5676   615.9    4.080      69.874
2015    5       11    14  28    5.5634   616.2    4.074      69.887
2015    5       11    14  33    5.5593   616.4    4.068      69.899
2015    5       11    14  39    5.5552   616.7    4.062      69.911
2015    5       11    14  45    5.5511   617.0    4.056      69.922
2015    5       11    14  51    5.5470   617.3    4.050      69.933
2015    5       11    14  56    5.5429   617.5    4.043      69.944
2015    5       11    15   2    5.5388   617.8    4.037      69.954
2015    5       11    15   8    5.5347   618.1    4.031      69.964
2015    5       11    15  13    5.5306   618.3    4.025      69.973
2015    5       11    15  19    5.5266   618.6    4.019      69.982
2015    5       11    15  25    5.5225   618.9    4.013      69.991
2015    5       11    15  31    5.5185   619.1    4.006      69.999
2015    5       11    15  36    5.5144   619.4    4.000      70.007
2015    5       11    15  42    5.5104   619.7    3.994      70.014
2015    5       11    15  48    5.5064   619.9    3.988      70.021
2015    5       11    15  53    5.5024   620.2    3.982      70.028
2015    5       11    15  59    5.4984   620.5    3.976      70.034
2015    5       11    16   5    5.4943   620.7    3.969      70.040
2015    5       11    16  11    5.4904   621.0    3.963      70.046
2015    5       11    16  16    5.4864   621.2    3.957      70.051
2015    5       11    16  22    5.4824   621.5    3.951      70.057
2015    5       11    16  28    5.4784   621.8    3.945      70.061
2015    5       11    16  34    5.4744   622.0    3.939      70.066
2015    5       11    16  39    5.4705   622.3    3.933      70.071
2015    5       11    16  45    5.4665   622.6    3.927      70.075
2015    5       11    16  51    5.4625   622.8    3.921      70.079
2015    5       11    16  56    5.4586   623.1    3.915      70.082
2015    5       11    17   2    5.4546   623.3    3.909      70.086
2015    5       11    17   8    5.4506   623.6    3.903      70.089
2015    5       11    17  14    5.4467   623.9    3.898      70.092
2015    5       11    17  19    5.4427   624.1    3.892      70.094
2015    5       11    17  25    5.4387   624.4    3.886      70.097
2015    5       11    17  31    5.4347   624.7    3.880      70.098
2015    5       11    17  36    5.4307   624.9    3.874      70.099
2015    5       11    17  42    5.4267   625.2    3.868      70.100
2015    5       11    17  48    5.4227   625.4    3.863      70.101
2015    5       11    17  54    5.4187   625.7    3.857      70.101
2015    5       11    17  59    5.4147   625.9    3.851      70.102
2015    5       11    18   5    5.4107   626.2    3.845      70.102
2015    5       11    18  11    5.4067   626.5    3.840      70.102
2015    5       11    18  17    5.4027   626.7    3.834      70.102
2015    5       11    18  22    5.3987   627.0    3.829      70.102
2015    5       11    18  28    5.3947   627.2    3.823      70.102
2015    5       11    18  34    5.3907   627.5    3.817      70.103
2015    5       11    18  39    5.3867   627.7    3.812      70.104
2015    5       11    18  45    5.3827   628.0    3.807      70.105
2015    5       11    18  51    5.3787   628.2    3.801      70.106
2015    5       11    18  57    5.3748   628.5    3.796      70.109
2015    5       11    19   2    5.3708   628.7    3.791      70.111
2015    5       11    19   8    5.3668   629.0    3.786      70.115
2015    5       11    19  14    5.3629   629.2    3.780      70.119
2015    5       11    19  19    5.3589   629.4    3.775      70.124
2015    5       11    19  25    5.3550   629.7    3.770      70.129
2015    5       11    19  31    5.3511   629.9    3.766      70.135
2015    5       11    19  37    5.3471   630.2    3.761      70.142
2015    5       11    19  42    5.3432   630.4    3.756      70.150
2015    5       11    19  48    5.3393   630.7    3.751      70.159
2015    5       11    19  54    5.3354   630.9    3.746      70.168
2015    5       11    20   0    5.3316   631.1    3.742      70.177
2015    5       11    20   5    5.3277   631.4    3.737      70.187
2015    5       11    20  11    5.3238   631.6    3.732      70.196
2015    5       11    20  17    5.3199   631.9    3.728      70.206
2015    5       11    20  22    5.3160   632.1    3.723      70.215
2015    5       11    20  28    5.3121   632.3    3.718      70.224
2015    5       11    20  34    5.3083   632.6    3.714      70.234
2015    5       11    20  40    5.3044   632.8    3.709      70.243
2015    5       11    20  45    5.3005   633.0    3.704      70.251
2015    5       11    20  51    5.2966   633.3    3.700      70.260
2015    5       11    20  57    5.2927   633.5    3.695      70.268
2015    5       11    21   2    5.2889   633.7    3.690      70.276
2015    5       11    21   8    5.2850   634.0    3.685      70.284
2015    5       11    21  14    5.2811   634.2    3.681      70.292
2015    5       11    21  20    5.2773   634.4    3.676      70.298
2015    5       11    21  25    5.2734   634.6    3.671      70.304
2015    5       11    21  31    5.2695   634.8    3.666      70.309
2015    5       11    21  37    5.2657   635.1    3.662      70.314
2015    5       11    21  42    5.2618   635.3    3.657      70.317
2015    5       11    21  48    5.2580   635.5    3.652      70.320
2015    5       11    21  54    5.2541   635.7    3.647      70.322
2015    5       11    22   0    5.2503   636.0    3.642      70.323
2015    5       11    22   5    5.2464   636.2    3.638      70.322
2015    5       11    22  11    5.2425   636.4    3.633      70.322
2015    5       11    22  17    5.2387   636.6    3.628      70.320
2015    5       11    22  23    5.2349   636.8    3.623      70.317
2015    5       11    22  28    5.2310   637.0    3.618      70.314
2015    5       11    22  34    5.2272   637.2    3.613      70.309
2015    5       11    22  40    5.2233   637.5    3.608      70.305
2015    5       11    22  45    5.2195   637.7    3.604      70.299
2015    5       11    22  51    5.2157   637.9    3.599      70.293
2015    5       11    22  57    5.2118   638.1    3.594      70.286
2015    5       11    23   3    5.2080   638.3    3.589      70.278
2015    5       11    23   8    5.2042   638.5    3.584      70.270
2015    5       11    23  14    5.2003   638.7    3.579      70.262
2015    5       11    23  20    5.1965   638.9    3.574      70.253
2015    5       11    23  25    5.1927   639.1    3.570      70.244
2015    5       11    23  31    5.1889   639.3    3.565      70.234
2015    5       11    23  37    5.1851   639.5    3.560      70.225
2015    5       11    23  43    5.1813   639.7    3.555      70.214
2015    5       11    23  48    5.1775   639.9    3.550      70.204
2015    5       11    23  54    5.1737   640.1    3.546      70.193
2015    5       12     0   0    5.1699   640.3    3.541      70.183
2015    5       12     0   6    5.1661   640.5    3.536      70.172
2015    5       12     0  11    5.1623   640.7    3.532      70.161
2015    5       12     0  17    5.1585   640.9    3.527      70.150
2015    5       12     0  23    5.1547   641.1    3.522      70.138
2015    5       12     0  28    5.1510   641.3    3.518      70.127
2015    5       12     0  34    5.1472   641.5    3.513      70.115
2015    5       12     0  40    5.1434   641.7    3.508      70.103
2015    5       12     0  46    5.1397   641.9    3.504      70.091
2015    5       12     0  51    5.1359   642.1    3.499      70.079
2015    5       12     0  57    5.1322   642.3    3.495      70.067
2015    5       12     1   3    5.1284   642.5    3.490      70.054
2015    5       12     1   8    5.1247   642.6    3.485      70.042
2015    5       12     1  14    5.1210   642.8    3.481      70.030
2015    5       12     1  20    5.1172   643.0    3.476      70.018
2015    5       12     1  26    5.1135   643.2    3.472      70.006
2015    5       12     1  31    5.1098   643.4    3.467      69.994
2015    5       12     1  37    5.1061   643.6    3.463      69.983
2015    5       12     1  43    5.1024   643.7    3.458      69.971
2015    5       12     1  49    5.0987   643.9    3.454      69.960
2015    5       12     1  54    5.0950   644.1    3.450      69.950
2015    5       12     2   0    5.0914   644.3    3.445      69.940
2015    5       12     2   6    5.0877   644.5    3.441      69.931
2015    5       12     2  11    5.0841   644.6    3.437      69.922
2015    5       12     2  17    5.0805   644.8    3.433      69.915
2015    5       12     2  23    5.0769   645.0    3.429      69.907
2015    5       12     2  29    5.0733   645.2    3.425      69.901
2015    5       12     2  34    5.0698   645.3    3.421      69.896
2015    5       12     2  40    5.0662   645.5    3.417      69.892
2015    5       12     2  46    5.0627   645.7    3.413      69.889
2015    5       12     2  51    5.0592   645.8    3.409      69.887
2015    5       12     2  57    5.0558   646.0    3.406      69.885
2015    5       12     3   3    5.0523   646.2    3.402      69.885
2015    5       12     3   9    5.0489   646.4    3.399      69.886
2015    5       12     3  14    5.0455   646.5    3.395      69.887
2015    5       12     3  20    5.0421   646.7    3.392      69.889
2015    5       12     3  26    5.0387   646.9    3.389      69.892
2015    5       12     3  31    5.0353   647.0    3.386      69.896
2015    5       12     3  37    5.0319   647.2    3.383      69.901
2015    5       12     3  43    5.0285   647.4    3.380      69.906
2015    5       12     3  49    5.0251   647.5    3.377      69.911
2015    5       12     3  54    5.0217   647.7    3.374      69.917
2015    5       12     4   0    5.0182   647.9    3.371      69.922
2015    5       12     4   6    5.0148   648.1    3.368      69.927
2015    5       12     4  12    5.0113   648.2    3.365      69.931
2015    5       12     4  17    5.0079   648.4    3.362      69.934
2015    5       12     4  23    5.0044   648.5    3.359      69.937
2015    5       12     4  29    5.0009   648.7    3.356      69.940
2015    5       12     4  34    4.9975   648.9    3.353      69.941
2015    5       12     4  40    4.9940   649.0    3.350      69.942
2015    5       12     4  46    4.9905   649.2    3.347      69.942
2015    5       12     4  52    4.9870   649.3    3.344      69.942
2015    5       12     4  57    4.9836   649.5    3.341      69.940
2015    5       12     5   3    4.9801   649.6    3.338      69.937
2015    5       12     5   9    4.9766   649.8    3.335      69.932
2015    5       12     5  14    4.9731   649.9    3.332      69.927
2015    5       12     5  20    4.9696   650.1    3.328      69.920
2015    5       12     5  26    4.9661   650.2    3.325      69.912
2015    5       12     5  32    4.9627   650.4    3.322      69.903
2015    5       12     5  37    4.9592   650.5    3.319      69.893
2015    5       12     5  43    4.9558   650.7    3.315      69.881
2015    5       12     5  49    4.9523   650.8    3.312      69.869
2015    5       12     5  55    4.9488   651.0    3.309      69.856
2015    5       12     6   0    4.9454   651.1    3.305      69.841
2015    5       12     6   6    4.9420   651.3    3.302      69.826
2015    5       12     6  12    4.9385   651.4    3.298      69.810
2015    5       12     6  17    4.9351   651.5    3.295      69.793
2015    5       12     6  23    4.9317   651.7    3.291      69.775
2015    5       12     6  29    4.9283   651.8    3.288      69.757
2015    5       12     6  35    4.9249   651.9    3.284      69.737
2015    5       12     6  40    4.9215   652.1    3.280      69.718
2015    5       12     6  46    4.9181   652.2    3.277      69.697
2015    5       12     6  52    4.9147   652.3    3.273      69.677
2015    5       12     6  57    4.9113   652.5    3.269      69.655
2015    5       12     7   3    4.9079   652.6    3.266      69.633
2015    5       12     7   9    4.9046   652.7    3.262      69.611
2015    5       12     7  15    4.9012   652.8    3.258      69.588
2015    5       12     7  20    4.8978   653.0    3.254      69.565
2015    5       12     7  26    4.8945   653.1    3.251      69.542
2015    5       12     7  32    4.8911   653.2    3.247      69.518
2015    5       12     7  38    4.8878   653.3    3.243      69.495
2015    5       12     7  43    4.8845   653.5    3.239      69.471
2015    5       12     7  49    4.8811   653.6    3.236      69.447
2015    5       12     7  55    4.8778   653.7    3.232      69.423
2015    5       12     8   0    4.8745   653.8    3.228      69.400
2015    5       12     8   6    4.8712   653.9    3.225      69.376
2015    5       12     8  12    4.8679   654.0    3.221      69.353
2015    5       12     8  18    4.8646   654.1    3.217      69.329
2015    5       12     8  23    4.8613   654.3    3.214      69.306
2015    5       12     8  29    4.8581   654.4    3.210      69.284
2015    5       12     8  35    4.8548   654.5    3.207      69.262
2015    5       12     8  40    4.8515   654.6    3.203      69.240
2015    5       12     8  46    4.8483   654.7    3.200      69.218
2015    5       12     8  52    4.8451   654.8    3.196      69.198
2015    5       12     8  58    4.8419   654.9    3.193      69.177
2015    5       12     9   3    4.8387   655.0    3.190      69.158
2015    5       12     9   9    4.8355   655.1    3.186      69.139
2015    5       12     9  15    4.8324   655.2    3.183      69.120
2015    5       12     9  20    4.8292   655.3    3.180      69.103
2015    5       12     9  26    4.8261   655.4    3.177      69.086
2015    5       12     9  32    4.8230   655.5    3.174      69.070
2015    5       12     9  38    4.8199   655.6    3.172      69.056
2015    5       12     9  43    4.8169   655.7    3.169      69.042
2015    5       12     9  49    4.8138   655.8    3.166      69.029
2015    5       12     9  55    4.8108   655.9    3.163      69.017
2015    5       12    10   1    4.8078   656.0    3.161      69.006
2015    5       12    10   6    4.8049   656.1    3.159      68.997
2015    5       12    10  12    4.8019   656.1    3.156      68.988
2015    5       12    10  18    4.7990   656.2    3.154      68.981
2015    5       12    10  23    4.7961   656.3    3.152      68.975
2015    5       12    10  29    4.7932   656.4    3.150      68.970
2015    5       12    10  35    4.7903   656.5    3.148      68.966
2015    5       12    10  41    4.7874   656.6    3.146      68.964
2015    5       12    10  46    4.7845   656.7    3.144      68.962
2015    5       12    10  52    4.7817   656.8    3.142      68.961
2015    5       12    10  58    4.7788   656.9    3.141      68.962
2015    5       12    11   3    4.7759   657.0    3.139      68.963
2015    5       12    11   9    4.7730   657.1    3.138      68.964
2015    5       12    11  15    4.7702   657.2    3.136      68.965
2015    5       12    11  21    4.7673   657.3    3.135      68.967
2015    5       12    11  26    4.7644   657.4    3.133      68.968
2015    5       12    11  32    4.7615   657.5    3.132      68.969
2015    5       12    11  38    4.7586   657.6    3.130      68.969
2015    5       12    11  44    4.7557   657.6    3.129      68.969
2015    5       12    11  49    4.7528   657.7    3.127      68.968
2015    5       12    11  55    4.7499   657.8    3.126      68.966
2015    5       12    12   1    4.7470   657.9    3.124      68.963
2015    5       12    12   6    4.7440   658.0    3.122      68.959
2015    5       12    12  12    4.7411   658.1    3.121      68.955
2015    5       12    12  18    4.7382   658.2    3.119      68.949
2015    5       12    12  24    4.7352   658.3    3.117      68.942
2015    5       12    12  29    4.7323   658.3    3.115      68.933
2015    5       12    12  35    4.7294   658.4    3.113      68.924
2015    5       12    12  41    4.7265   658.5    3.112      68.913
2015    5       12    12  46    4.7236   658.6    3.110      68.901
2015    5       12    12  52    4.7206   658.7    3.108      68.888
2015    5       12    12  58    4.7177   658.7    3.105      68.874
2015    5       12    13   4    4.7148   658.8    3.103      68.859
2015    5       12    13   9    4.7119   658.9    3.101      68.843
2015    5       12    13  15    4.7090   659.0    3.099      68.826
2015    5       12    13  21    4.7061   659.0    3.097      68.808
2015    5       12    13  26    4.7032   659.1    3.094      68.789
2015    5       12    13  32    4.7003   659.2    3.092      68.769
2015    5       12    13  38    4.6974   659.2    3.090      68.748
2015    5       12    13  44    4.6946   659.3    3.087      68.727
2015    5       12    13  49    4.6917   659.4    3.085      68.705
2015    5       12    13  55    4.6888   659.4    3.082      68.682
2015    5       12    14   1    4.6859   659.5    3.080      68.658
2015    5       12    14   7    4.6831   659.6    3.077      68.634
2015    5       12    14  12    4.6802   659.6    3.075      68.609
2015    5       12    14  18    4.6773   659.7    3.072      68.584
2015    5       12    14  24    4.6745   659.7    3.070      68.558
2015    5       12    14  29    4.6716   659.8    3.067      68.531
2015    5       12    14  35    4.6688   659.8    3.065      68.505
2015    5       12    14  41    4.6659   659.9    3.062      68.478
2015    5       12    14  47    4.6631   659.9    3.059      68.451
2015    5       12    14  52    4.6603   660.0    3.057      68.423
2015    5       12    14  58    4.6574   660.0    3.054      68.396
2015    5       12    15   4    4.6546   660.1    3.052      68.368
2015    5       12    15   9    4.6518   660.1    3.049      68.341
2015    5       12    15  15    4.6491   660.2    3.047      68.313
2015    5       12    15  21    4.6463   660.2    3.044      68.285
2015    5       12    15  27    4.6435   660.3    3.042      68.258
2015    5       12    15  32    4.6408   660.3    3.039      68.231
2015    5       12    15  38    4.6380   660.4    3.037      68.205
2015    5       12    15  44    4.6353   660.4    3.034      68.178
2015    5       12    15  50    4.6326   660.4    3.032      68.152
2015    5       12    15  55    4.6300   660.5    3.029      68.127
2015    5       12    16   1    4.6273   660.5    3.027      68.102
2015    5       12    16   7    4.6246   660.6    3.025      68.077
2015    5       12    16  12    4.6220   660.6    3.023      68.053
2015    5       12    16  18    4.6194   660.6    3.021      68.029
2015    5       12    16  24    4.6168   660.7    3.018      68.006
2015    5       12    16  30    4.6142   660.7    3.016      67.984
2015    5       12    16  35    4.6116   660.7    3.014      67.962
2015    5       12    16  41    4.6091   660.8    3.012      67.941
2015    5       12    16  47    4.6066   660.8    3.010      67.920
2015    5       12    16  52    4.6040   660.8    3.008      67.900
2015    5       12    16  58    4.6015   660.9    3.006      67.881
2015    5       12    17   4    4.5991   660.9    3.005      67.862
2015    5       12    17  10    4.5966   660.9    3.003      67.844
2015    5       12    17  15    4.5941   661.0    3.001      67.827
2015    5       12    17  21    4.5917   661.0    2.999      67.810
2015    5       12    17  27    4.5892   661.0    2.998      67.795
2015    5       12    17  32    4.5868   661.1    2.996      67.779
2015    5       12    17  38    4.5844   661.1    2.995      67.765
2015    5       12    17  44    4.5820   661.1    2.993      67.751
2015    5       12    17  50    4.5796   661.2    2.992      67.738
2015    5       12    17  55    4.5772   661.2    2.990      67.726
2015    5       12    18   1    4.5748   661.2    2.989      67.715
2015    5       12    18   7    4.5725   661.2    2.988      67.704
2015    5       12    18  13    4.5701   661.3    2.986      67.693
2015    5       12    18  18    4.5678   661.3    2.985      67.683
2015    5       12    18  24    4.5654   661.3    2.984      67.674
2015    5       12    18  30    4.5631   661.4    2.983      67.665
2015    5       12    18  35    4.5607   661.4    2.981      67.657
2015    5       12    18  41    4.5584   661.4    2.980      67.649
2015    5       12    18  47    4.5560   661.5    2.979      67.641
2015    5       12    18  53    4.5537   661.5    2.978      67.634
2015    5       12    18  58    4.5513   661.5    2.977      67.626
2015    5       12    19   4    4.5490   661.6    2.976      67.619
2015    5       12    19  10    4.5466   661.6    2.975      67.611
2015    5       12    19  15    4.5442   661.6    2.974      67.603
2015    5       12    19  21    4.5419   661.6    2.973      67.594
2015    5       12    19  27    4.5395   661.7    2.972      67.585
2015    5       12    19  33    4.5371   661.7    2.971      67.576
2015    5       12    19  38    4.5347   661.7    2.970      67.565
2015    5       12    19  44    4.5323   661.8    2.969      67.554
2015    5       12    19  50    4.5299   661.8    2.968      67.542
2015    5       12    19  56    4.5275   661.8    2.966      67.530
2015    5       12    20   1    4.5251   661.8    2.965      67.517
2015    5       12    20   7    4.5227   661.8    2.964      67.503
2015    5       12    20  13    4.5203   661.9    2.963      67.488
2015    5       12    20  18    4.5179   661.9    2.962      67.473
2015    5       12    20  24    4.5155   661.9    2.961      67.457
2015    5       12    20  30    4.5131   661.9    2.959      67.440
2015    5       12    20  36    4.5107   661.9    2.958      67.422
2015    5       12    20  41    4.5083   662.0    2.957      67.404
2015    5       12    20  47    4.5059   662.0    2.956      67.385
2015    5       12    20  53    4.5035   662.0    2.954      67.365
2015    5       12    20  58    4.5011   662.0    2.953      67.344
2015    5       12    21   4    4.4988   662.0    2.952      67.323
2015    5       12    21  10    4.4964   662.0    2.950      67.301
2015    5       12    21  16    4.4940   662.0    2.949      67.278
2015    5       12    21  21    4.4916   662.0    2.947      67.255
2015    5       12    21  27    4.4893   662.1    2.946      67.231
2015    5       12    21  33    4.4869   662.1    2.945      67.206
2015    5       12    21  38    4.4845   662.1    2.943      67.181
2015    5       12    21  44    4.4822   662.1    2.942      67.155
2015    5       12    21  50    4.4799   662.1    2.940      67.129
2015    5       12    21  56    4.4775   662.1    2.939      67.102
2015    5       12    22   1    4.4752   662.1    2.937      67.075
2015    5       12    22   7    4.4729   662.1    2.936      67.048
2015    5       12    22  13    4.4706   662.1    2.934      67.020
2015    5       12    22  19    4.4683   662.1    2.932      66.993
2015    5       12    22  24    4.4660   662.1    2.931      66.965
2015    5       12    22  30    4.4637   662.0    2.929      66.936
2015    5       12    22  36    4.4615   662.0    2.928      66.908
2015    5       12    22  41    4.4592   662.0    2.926      66.880
2015    5       12    22  47    4.4570   662.0    2.925      66.852
2015    5       12    22  53    4.4547   662.0    2.923      66.824
2015    5       12    22  59    4.4525   662.0    2.922      66.796
2015    5       12    23   4    4.4503   662.0    2.920      66.768
2015    5       12    23  10    4.4481   662.0    2.918      66.740
2015    5       12    23  16    4.4459   662.0    2.917      66.713
2015    5       12    23  21    4.4438   662.0    2.915      66.686
2015    5       12    23  27    4.4416   661.9    2.914      66.659
2015    5       12    23  33    4.4395   661.9    2.912      66.633
2015    5       12    23  39    4.4373   661.9    2.911      66.608
2015    5       12    23  44    4.4352   661.9    2.910      66.582
2015    5       12    23  50    4.4331   661.9    2.908      66.557
2015    5       12    23  56    4.4310   661.9    2.907      66.533
2015    5       13     0   2    4.4289   661.9    2.905      66.510
2015    5       13     0   7    4.4268   661.8    2.904      66.487
2015    5       13     0  13    4.4248   661.8    2.903      66.464
2015    5       13     0  19    4.4227   661.8    2.901      66.442
2015    5       13     0  24    4.4207   661.8    2.900      66.421
2015    5       13     0  30    4.4186   661.8    2.899      66.400
2015    5       13     0  36    4.4166   661.8    2.898      66.380
2015    5       13     0  42    4.4146   661.8    2.896      66.361
2015    5       13     0  47    4.4126   661.7    2.895      66.342
2015    5       13     0  53    4.4105   661.7    2.894      66.323
2015    5       13     0  59    4.4085   661.7    2.893      66.305
2015    5       13     1   4    4.4065   661.7    2.892      66.288
2015    5       13     1  10    4.4045   661.7    2.891      66.271
2015    5       13     1  16    4.4025   661.7    2.890      66.254
2015    5       13     1  22    4.4005   661.7    2.889      66.238
2015    5       13     1  27    4.3984   661.6    2.888      66.222
2015    5       13     1  33    4.3964   661.6    2.887      66.206
2015    5       13     1  39    4.3944   661.6    2.886      66.190
2015    5       13     1  45    4.3924   661.6    2.885      66.175
2015    5       13     1  50    4.3903   661.6    2.884      66.160
2015    5       13     1  56    4.3883   661.6    2.883      66.145
2015    5       13     2   2    4.3862   661.5    2.882      66.130
2015    5       13     2   7    4.3842   661.5    2.881      66.115
2015    5       13     2  13    4.3821   661.5    2.880      66.100
2015    5       13     2  19    4.3801   661.5    2.879      66.085
2015    5       13     2  25    4.3780   661.5    2.878      66.070
2015    5       13     2  30    4.3760   661.5    2.877      66.055
2015    5       13     2  36    4.3739   661.4    2.876      66.039
2015    5       13     2  42    4.3718   661.4    2.875      66.024
2015    5       13     2  47    4.3697   661.4    2.874      66.008
2015    5       13     2  53    4.3677   661.4    2.874      65.993
2015    5       13     2  59    4.3656   661.4    2.873      65.977
2015    5       13     3   5    4.3635   661.3    2.872      65.961
2015    5       13     3  10    4.3614   661.3    2.871      65.945
2015    5       13     3  16    4.3594   661.3    2.870      65.928
2015    5       13     3  22    4.3573   661.3    2.870      65.911
2015    5       13     3  27    4.3552   661.2    2.869      65.894
2015    5       13     3  33    4.3531   661.2    2.868      65.877
2015    5       13     3  39    4.3511   661.2    2.867      65.859
2015    5       13     3  45    4.3490   661.2    2.867      65.841
2015    5       13     3  50    4.3469   661.1    2.866      65.823
2015    5       13     3  56    4.3449   661.1    2.865      65.804
2015    5       13     4   2    4.3428   661.1    2.865      65.785
2015    5       13     4   8    4.3407   661.0    2.864      65.766
2015    5       13     4  13    4.3387   661.0    2.863      65.746
2015    5       13     4  19    4.3366   661.0    2.863      65.726
2015    5       13     4  25    4.3346   661.0    2.862      65.705
2015    5       13     4  30    4.3326   660.9    2.861      65.684
2015    5       13     4  36    4.3305   660.9    2.861      65.663
2015    5       13     4  42    4.3285   660.9    2.860      65.641
2015    5       13     4  48    4.3265   660.8    2.859      65.619
2015    5       13     4  53    4.3245   660.8    2.859      65.596
2015    5       13     4  59    4.3225   660.8    2.858      65.573
2015    5       13     5   5    4.3205   660.7    2.857      65.549
2015    5       13     5  10    4.3185   660.7    2.856      65.524
2015    5       13     5  16    4.3165   660.7    2.856      65.499
2015    5       13     5  22    4.3145   660.6    2.855      65.474
2015    5       13     5  28    4.3125   660.6    2.854      65.448
2015    5       13     5  33    4.3105   660.5    2.853      65.421
2015    5       13     5  39    4.3085   660.5    2.852      65.394
2015    5       13     5  45    4.3065   660.5    2.851      65.367
2015    5       13     5  51    4.3045   660.4    2.850      65.339
2015    5       13     5  56    4.3025   660.4    2.849      65.310
2015    5       13     6   2    4.3005   660.3    2.848      65.282
2015    5       13     6   8    4.2985   660.3    2.847      65.253
2015    5       13     6  13    4.2966   660.2    2.846      65.224
2015    5       13     6  19    4.2946   660.2    2.845      65.195
2015    5       13     6  25    4.2926   660.1    2.844      65.165
2015    5       13     6  31    4.2906   660.1    2.843      65.136
2015    5       13     6  36    4.2887   660.0    2.841      65.106
2015    5       13     6  42    4.2867   660.0    2.840      65.077
2015    5       13     6  48    4.2847   659.9    2.839      65.047
2015    5       13     6  53    4.2828   659.9    2.838      65.018
2015    5       13     6  59    4.2808   659.8    2.837      64.989
2015    5       13     7   5    4.2789   659.8    2.836      64.960
2015    5       13     7  11    4.2769   659.7    2.835      64.932
2015    5       13     7  16    4.2749   659.7    2.834      64.904
2015    5       13     7  22    4.2730   659.6    2.832      64.877
2015    5       13     7  28    4.2711   659.6    2.831      64.850
2015    5       13     7  33    4.2691   659.5    2.830      64.824
2015    5       13     7  39    4.2672   659.5    2.829      64.798
2015    5       13     7  45    4.2653   659.4    2.828      64.773
2015    5       13     7  51    4.2633   659.4    2.827      64.748
2015    5       13     7  56    4.2614   659.3    2.826      64.724
2015    5       13     8   2    4.2595   659.2    2.826      64.701
2015    5       13     8   8    4.2576   659.2    2.825      64.678
2015    5       13     8  14    4.2557   659.1    2.824      64.656
2015    5       13     8  19    4.2538   659.1    2.823      64.634
2015    5       13     8  25    4.2518   659.0    2.822      64.612
2015    5       13     8  31    4.2499   659.0    2.821      64.591
2015    5       13     8  36    4.2480   658.9    2.821      64.571
2015    5       13     8  42    4.2461   658.9    2.820      64.550
2015    5       13     8  48    4.2442   658.8    2.819      64.530
2015    5       13     8  54    4.2422   658.7    2.819      64.510
2015    5       13     8  59    4.2403   658.7    2.818      64.490
2015    5       13     9   5    4.2383   658.6    2.817      64.470
2015    5       13     9  11    4.2364   658.6    2.817      64.451
2015    5       13     9  16    4.2344   658.5    2.816      64.431
2015    5       13     9  22    4.2325   658.4    2.815      64.411
2015    5       13     9  28    4.2306   658.4    2.815      64.390
2015    5       13     9  34    4.2286   658.3    2.814      64.370
2015    5       13     9  39    4.2267   658.2    2.813      64.350
2015    5       13     9  45    4.2247   658.2    2.813      64.329
2015    5       13     9  51    4.2227   658.1    2.812      64.308
2015    5       13     9  57    4.2208   658.0    2.812      64.287
2015    5       13    10   2    4.2188   658.0    2.811      64.266
2015    5       13    10   8    4.2168   657.9    2.811      64.245
2015    5       13    10  14    4.2149   657.8    2.810      64.224
2015    5       13    10  19    4.2129   657.8    2.809      64.202
2015    5       13    10  25    4.2110   657.7    2.809      64.181
2015    5       13    10  31    4.2090   657.6    2.808      64.160
2015    5       13    10  37    4.2071   657.6    2.808      64.138
2015    5       13    10  42    4.2051   657.5    2.807      64.117
2015    5       13    10  48    4.2032   657.4    2.807      64.095
2015    5       13    10  54    4.2012   657.4    2.807      64.074
2015    5       13    10  59    4.1993   657.3    2.806      64.052
2015    5       13    11   5    4.1974   657.2    2.806      64.031
2015    5       13    11  11    4.1954   657.1    2.805      64.008
2015    5       13    11  17    4.1935   657.1    2.805      63.986
2015    5       13    11  22    4.1915   657.0    2.804      63.963
2015    5       13    11  28    4.1896   656.9    2.804      63.940
2015    5       13    11  34    4.1876   656.9    2.803      63.916
2015    5       13    11  39    4.1857   656.8    2.803      63.892
2015    5       13    11  45    4.1837   656.7    2.802      63.867
2015    5       13    11  51    4.1818   656.7    2.802      63.842
2015    5       13    11  57    4.1798   656.6    2.801      63.816
2015    5       13    12   2    4.1779   656.5    2.801      63.790
2015    5       13    12   8    4.1759   656.4    2.800      63.764
2015    5       13    12  14    4.1740   656.4    2.799      63.737
2015    5       13    12  20    4.1720   656.3    2.799      63.709
2015    5       13    12  25    4.1701   656.2    2.798      63.681
2015    5       13    12  31    4.1681   656.2    2.797      63.653
2015    5       13    12  37    4.1662   656.1    2.797      63.624
2015    5       13    12  42    4.1642   656.0    2.796      63.594
2015    5       13    12  48    4.1623   655.9    2.795      63.564
2015    5       13    12  54    4.1603   655.9    2.794      63.534
2015    5       13    13   0    4.1583   655.8    2.793      63.502
2015    5       13    13   5    4.1563   655.7    2.793      63.471
2015    5       13    13  11    4.1544   655.6    2.792      63.439
2015    5       13    13  17    4.1524   655.6    2.791      63.406
2015    5       13    13  22    4.1504   655.5    2.790      63.373
2015    5       13    13  28    4.1484   655.4    2.789      63.340
2015    5       13    13  34    4.1464   655.3    2.788      63.306
2015    5       13    13  40    4.1444   655.3    2.787      63.271
2015    5       13    13  45    4.1423   655.2    2.785      63.237
2015    5       13    13  51    4.1403   655.1    2.784      63.201
2015    5       13    13  57    4.1383   655.0    2.783      63.166
2015    5       13    14   3    4.1363   654.9    2.782      63.130
2015    5       13    14   8    4.1342   654.9    2.781      63.094
2015    5       13    14  14    4.1322   654.8    2.780      63.057
2015    5       13    14  20    4.1301   654.7    2.779      63.021
2015    5       13    14  25    4.1281   654.6    2.777      62.984
2015    5       13    14  31    4.1260   654.5    2.776      62.948
2015    5       13    14  37    4.1240   654.4    2.775      62.911
2015    5       13    14  43    4.1219   654.3    2.774      62.875
2015    5       13    14  48    4.1199   654.2    2.773      62.839
2015    5       13    14  54    4.1178   654.1    2.772      62.804
2015    5       13    15   0    4.1158   654.0    2.771      62.769
2015    5       13    15   5    4.1137   653.9    2.770      62.734
2015    5       13    15  11    4.1117   653.9    2.769      62.700
2015    5       13    15  17    4.1097   653.8    2.768      62.667
2015    5       13    15  23    4.1076   653.7    2.767      62.635
2015    5       13    15  28    4.1056   653.6    2.766      62.603
2015    5       13    15  34    4.1036   653.5    2.765      62.572
2015    5       13    15  40    4.1016   653.4    2.765      62.542
2015    5       13    15  45    4.0996   653.2    2.764      62.513
2015    5       13    15  51    4.0976   653.1    2.763      62.485
2015    5       13    15  57    4.0957   653.0    2.763      62.458
2015    5       13    16   3    4.0937   652.9    2.763      62.431
2015    5       13    16   8    4.0917   652.8    2.762      62.406
2015    5       13    16  14    4.0898   652.7    2.762      62.381
2015    5       13    16  20    4.0878   652.6    2.762      62.357
2015    5       13    16  26    4.0859   652.5    2.761      62.333
2015    5       13    16  31    4.0839   652.4    2.761      62.310
2015    5       13    16  37    4.0820   652.3    2.761      62.287
2015    5       13    16  43    4.0801   652.2    2.761      62.265
2015    5       13    16  48    4.0782   652.1    2.761      62.243
2015    5       13    16  54    4.0762   652.0    2.761      62.221
2015    5       13    17   0    4.0743   651.9    2.761      62.200
2015    5       13    17   6    4.0724   651.8    2.761      62.179
2015    5       13    17  11    4.0704   651.7    2.761      62.157
2015    5       13    17  17    4.0685   651.5    2.761      62.136
2015    5       13    17  23    4.0665   651.4    2.761      62.114
2015    5       13    17  28    4.0645   651.3    2.761      62.092
2015    5       13    17  34    4.0626   651.2    2.761      62.070
2015    5       13    17  40    4.0606   651.1    2.761      62.047
2015    5       13    17  46    4.0586   651.0    2.761      62.024
2015    5       13    17  51    4.0567   650.9    2.761      62.001
2015    5       13    17  57    4.0547   650.8    2.761      61.977
2015    5       13    18   3    4.0527   650.6    2.761      61.953
2015    5       13    18   9    4.0507   650.5    2.761      61.929
2015    5       13    18  14    4.0488   650.4    2.761      61.904
2015    5       13    18  20    4.0468   650.3    2.761      61.879
2015    5       13    18  26    4.0448   650.2    2.760      61.853
2015    5       13    18  31    4.0428   650.1    2.760      61.827
2015    5       13    18  37    4.0408   650.0    2.760      61.799
2015    5       13    18  43    4.0388   649.8    2.760      61.771
2015    5       13    18  49    4.0369   649.7    2.760      61.741
2015    5       13    18  54    4.0348   649.6    2.759      61.711
2015    5       13    19   0    4.0328   649.5    2.759      61.680
2015    5       13    19   6    4.0309   649.4    2.758      61.648
2015    5       13    19  11    4.0289   649.3    2.758      61.615
2015    5       13    19  17    4.0268   649.2    2.757      61.581
2015    5       13    19  23    4.0248   649.0    2.757      61.547
2015    5       13    19  29    4.0228   648.9    2.756      61.511
2015    5       13    19  34    4.0208   648.8    2.755      61.475
2015    5       13    19  40    4.0188   648.7    2.755      61.438
2015    5       13    19  46    4.0168   648.6    2.754      61.401
2015    5       13    19  51    4.0148   648.4    2.753      61.362
2015    5       13    19  57    4.0128   648.3    2.753      61.323
2015    5       13    20   3    4.0107   648.2    2.752      61.283
2015    5       13    20   9    4.0087   648.1    2.751      61.243
2015    5       13    20  14    4.0067   648.0    2.750      61.202
2015    5       13    20  20    4.0047   647.8    2.749      61.161
2015    5       13    20  26    4.0026   647.7    2.748      61.119
2015    5       13    20  32    4.0006   647.6    2.747      61.076
2015    5       13    20  37    3.9986   647.5    2.746      61.033
2015    5       13    20  43    3.9965   647.3    2.745      60.990
2015    5       13    20  49    3.9945   647.2    2.744      60.947
2015    5       13    20  54    3.9924   647.1    2.743      60.903
2015    5       13    21   0    3.9903   647.0    2.742      60.859
2015    5       13    21   6    3.9883   646.8    2.741      60.814
2015    5       13    21  12    3.9862   646.7    2.740      60.770
2015    5       13    21  17    3.9842   646.6    2.739      60.725
2015    5       13    21  23    3.9821   646.5    2.738      60.680
2015    5       13    21  29    3.9800   646.3    2.737      60.635
2015    5       13    21  34    3.9779   646.2    2.736      60.591
2015    5       13    21  40    3.9758   646.1    2.735      60.546
2015    5       13    21  46    3.9737   645.9    2.734      60.502
2015    5       13    21  52    3.9716   645.8    2.733      60.457
2015    5       13    21  57    3.9696   645.7    2.732      60.413
2015    5       13    22   3    3.9675   645.5    2.731      60.370
2015    5       13    22   9    3.9654   645.4    2.730      60.327
2015    5       13    22  15    3.9633   645.3    2.730      60.284
2015    5       13    22  20    3.9611   645.1    2.729      60.242
2015    5       13    22  26    3.9590   645.0    2.728      60.200
2015    5       13    22  32    3.9569   644.8    2.727      60.159
2015    5       13    22  37    3.9548   644.7    2.726      60.119
2015    5       13    22  43    3.9527   644.6    2.726      60.080
2015    5       13    22  49    3.9507   644.4    2.725      60.041
2015    5       13    22  55    3.9486   644.3    2.724      60.003
2015    5       13    23   0    3.9465   644.1    2.724      59.966
2015    5       13    23   6    3.9444   644.0    2.723      59.930
2015    5       13    23  12    3.9423   643.9    2.723      59.894
2015    5       13    23  17    3.9402   643.7    2.722      59.859
2015    5       13    23  23    3.9381   643.6    2.722      59.825
2015    5       13    23  29    3.9361   643.4    2.722      59.792
2015    5       13    23  35    3.9340   643.3    2.721      59.759
2015    5       13    23  40    3.9319   643.1    2.721      59.727
2015    5       13    23  46    3.9298   643.0    2.721      59.696
2015    5       13    23  52    3.9278   642.8    2.720      59.665
2015    5       13    23  57    3.9257   642.7    2.720      59.634
2015    5       14     0   3    3.9236   642.6    2.720      59.604
