year    month   day   hour  minute  B_enl V_enl   n_enl       T_enl
[year] [month] [day] [hour][minute] [nT]  [km/s]  [cm-3]      [kK]
2015    5        2     0   2    5.0792   519.4    4.694      50.727
2015    5        2     0   8    5.0773   519.4    4.692      50.719
2015    5        2     0  14    5.0754   519.4    4.691      50.711
2015    5        2     0  19    5.0735   519.4    4.689      50.704
2015    5        2     0  25    5.0716   519.5    4.688      50.697
2015    5        2     0  31    5.0697   519.5    4.686      50.690
2015    5        2     0  36    5.0678   519.5    4.685      50.683
2015    5        2     0  42    5.0659   519.5    4.683      50.676
2015    5        2     0  48    5.0640   519.6    4.682      50.670
2015    5        2     0  53    5.0621   519.6    4.680      50.663
2015    5        2     0  59    5.0602   519.6    4.679      50.657
2015    5        2     1   5    5.0583   519.6    4.677      50.652
2015    5        2     1  11    5.0564   519.6    4.676      50.646
2015    5        2     1  16    5.0545   519.7    4.675      50.641
2015    5        2     1  22    5.0526   519.7    4.673      50.636
2015    5        2     1  28    5.0507   519.7    4.672      50.631
2015    5        2     1  33    5.0488   519.7    4.670      50.627
2015    5        2     1  39    5.0470   519.7    4.669      50.623
2015    5        2     1  45    5.0451   519.7    4.668      50.619
2015    5        2     1  50    5.0432   519.8    4.666      50.615
2015    5        2     1  56    5.0414   519.8    4.665      50.612
2015    5        2     2   2    5.0395   519.8    4.663      50.608
2015    5        2     2   7    5.0377   519.8    4.662      50.605
2015    5        2     2  13    5.0358   519.8    4.660      50.602
2015    5        2     2  19    5.0340   519.8    4.659      50.598
2015    5        2     2  25    5.0322   519.9    4.657      50.595
2015    5        2     2  30    5.0303   519.9    4.656      50.591
2015    5        2     2  36    5.0285   519.9    4.654      50.588
2015    5        2     2  42    5.0267   519.9    4.653      50.584
2015    5        2     2  47    5.0249   519.9    4.651      50.580
2015    5        2     2  53    5.0231   519.9    4.649      50.576
2015    5        2     2  59    5.0213   520.0    4.648      50.572
2015    5        2     3   4    5.0195   520.0    4.646      50.567
2015    5        2     3  10    5.0177   520.0    4.644      50.562
2015    5        2     3  16    5.0159   520.0    4.642      50.557
2015    5        2     3  21    5.0141   520.0    4.641      50.552
2015    5        2     3  27    5.0123   520.0    4.639      50.547
2015    5        2     3  33    5.0106   520.0    4.637      50.541
2015    5        2     3  39    5.0088   520.0    4.635      50.536
2015    5        2     3  44    5.0070   520.1    4.633      50.530
2015    5        2     3  50    5.0052   520.1    4.631      50.523
2015    5        2     3  56    5.0034   520.1    4.629      50.517
2015    5        2     4   1    5.0016   520.1    4.627      50.510
2015    5        2     4   7    4.9999   520.1    4.625      50.502
2015    5        2     4  13    4.9981   520.1    4.623      50.495
2015    5        2     4  18    4.9963   520.1    4.621      50.487
2015    5        2     4  24    4.9945   520.1    4.619      50.479
2015    5        2     4  30    4.9927   520.1    4.616      50.470
2015    5        2     4  35    4.9909   520.2    4.614      50.461
2015    5        2     4  41    4.9891   520.2    4.612      50.452
2015    5        2     4  47    4.9873   520.2    4.610      50.443
2015    5        2     4  53    4.9855   520.2    4.608      50.433
2015    5        2     4  58    4.9837   520.2    4.606      50.423
2015    5        2     5   4    4.9820   520.2    4.604      50.413
2015    5        2     5  10    4.9802   520.2    4.602      50.403
2015    5        2     5  15    4.9784   520.2    4.600      50.392
2015    5        2     5  21    4.9766   520.2    4.598      50.382
2015    5        2     5  27    4.9748   520.2    4.596      50.371
2015    5        2     5  32    4.9730   520.2    4.594      50.360
2015    5        2     5  38    4.9712   520.3    4.592      50.349
2015    5        2     5  44    4.9694   520.3    4.590      50.339
2015    5        2     5  49    4.9676   520.3    4.588      50.328
2015    5        2     5  55    4.9658   520.3    4.586      50.317
2015    5        2     6   1    4.9640   520.3    4.584      50.306
2015    5        2     6   7    4.9622   520.3    4.583      50.295
2015    5        2     6  12    4.9604   520.3    4.581      50.285
2015    5        2     6  18    4.9586   520.3    4.579      50.274
2015    5        2     6  24    4.9569   520.3    4.578      50.264
2015    5        2     6  29    4.9551   520.3    4.576      50.254
2015    5        2     6  35    4.9533   520.3    4.574      50.243
2015    5        2     6  41    4.9515   520.3    4.573      50.233
2015    5        2     6  46    4.9497   520.3    4.571      50.224
2015    5        2     6  52    4.9480   520.3    4.570      50.214
2015    5        2     6  58    4.9462   520.3    4.569      50.204
2015    5        2     7   3    4.9444   520.4    4.567      50.195
2015    5        2     7   9    4.9427   520.4    4.566      50.185
2015    5        2     7  15    4.9409   520.4    4.565      50.176
2015    5        2     7  21    4.9391   520.4    4.563      50.167
2015    5        2     7  26    4.9373   520.4    4.562      50.158
2015    5        2     7  32    4.9356   520.4    4.561      50.150
2015    5        2     7  38    4.9338   520.4    4.560      50.141
2015    5        2     7  43    4.9320   520.4    4.559      50.133
2015    5        2     7  49    4.9302   520.4    4.557      50.124
2015    5        2     7  55    4.9284   520.4    4.556      50.116
2015    5        2     8   0    4.9267   520.4    4.555      50.108
2015    5        2     8   6    4.9249   520.4    4.554      50.100
2015    5        2     8  12    4.9231   520.4    4.553      50.092
2015    5        2     8  17    4.9213   520.4    4.552      50.084
2015    5        2     8  23    4.9195   520.4    4.551      50.076
2015    5        2     8  29    4.9177   520.4    4.549      50.068
2015    5        2     8  35    4.9160   520.4    4.548      50.060
2015    5        2     8  40    4.9142   520.4    4.547      50.053
2015    5        2     8  46    4.9124   520.4    4.546      50.045
2015    5        2     8  52    4.9106   520.4    4.545      50.037
2015    5        2     8  57    4.9089   520.4    4.543      50.030
2015    5        2     9   3    4.9071   520.4    4.542      50.022
2015    5        2     9   9    4.9053   520.4    4.541      50.015
2015    5        2     9  14    4.9035   520.4    4.540      50.007
2015    5        2     9  20    4.9018   520.4    4.539      50.000
2015    5        2     9  26    4.9000   520.4    4.537      49.992
2015    5        2     9  31    4.8983   520.4    4.536      49.984
2015    5        2     9  37    4.8965   520.4    4.535      49.977
2015    5        2     9  43    4.8948   520.4    4.533      49.969
2015    5        2     9  49    4.8930   520.4    4.532      49.961
2015    5        2     9  54    4.8913   520.4    4.531      49.953
2015    5        2    10   0    4.8895   520.4    4.529      49.945
2015    5        2    10   6    4.8878   520.4    4.528      49.937
2015    5        2    10  11    4.8860   520.4    4.526      49.929
2015    5        2    10  17    4.8843   520.4    4.525      49.921
2015    5        2    10  23    4.8826   520.3    4.524      49.912
2015    5        2    10  28    4.8808   520.3    4.522      49.904
2015    5        2    10  34    4.8791   520.3    4.521      49.895
2015    5        2    10  40    4.8774   520.3    4.519      49.886
2015    5        2    10  45    4.8757   520.3    4.518      49.878
2015    5        2    10  51    4.8739   520.3    4.517      49.869
2015    5        2    10  57    4.8722   520.3    4.515      49.859
2015    5        2    11   3    4.8705   520.3    4.514      49.850
2015    5        2    11   8    4.8688   520.3    4.512      49.841
2015    5        2    11  14    4.8671   520.3    4.511      49.832
2015    5        2    11  20    4.8653   520.3    4.510      49.822
2015    5        2    11  25    4.8636   520.3    4.508      49.813
2015    5        2    11  31    4.8619   520.3    4.507      49.803
2015    5        2    11  37    4.8602   520.3    4.506      49.794
2015    5        2    11  42    4.8585   520.3    4.505      49.784
2015    5        2    11  48    4.8567   520.2    4.503      49.774
2015    5        2    11  54    4.8550   520.2    4.502      49.765
2015    5        2    11  59    4.8533   520.2    4.501      49.755
2015    5        2    12   5    4.8516   520.2    4.500      49.745
2015    5        2    12  11    4.8498   520.2    4.498      49.736
2015    5        2    12  17    4.8481   520.2    4.497      49.726
2015    5        2    12  22    4.8464   520.2    4.496      49.717
2015    5        2    12  28    4.8446   520.2    4.495      49.707
2015    5        2    12  34    4.8429   520.2    4.494      49.698
2015    5        2    12  39    4.8411   520.2    4.492      49.688
2015    5        2    12  45    4.8394   520.2    4.491      49.679
2015    5        2    12  51    4.8377   520.1    4.490      49.670
2015    5        2    12  56    4.8359   520.1    4.489      49.661
2015    5        2    13   2    4.8342   520.1    4.487      49.651
2015    5        2    13   8    4.8324   520.1    4.486      49.642
2015    5        2    13  13    4.8307   520.1    4.485      49.632
2015    5        2    13  19    4.8289   520.1    4.484      49.623
2015    5        2    13  25    4.8272   520.1    4.482      49.613
2015    5        2    13  31    4.8255   520.1    4.481      49.603
2015    5        2    13  36    4.8237   520.1    4.480      49.594
2015    5        2    13  42    4.8220   520.1    4.479      49.584
2015    5        2    13  48    4.8202   520.0    4.477      49.574
2015    5        2    13  53    4.8185   520.0    4.476      49.564
2015    5        2    13  59    4.8167   520.0    4.475      49.554
2015    5        2    14   5    4.8150   520.0    4.474      49.543
2015    5        2    14  10    4.8132   520.0    4.472      49.533
2015    5        2    14  16    4.8115   520.0    4.471      49.522
2015    5        2    14  22    4.8097   520.0    4.470      49.512
2015    5        2    14  27    4.8080   520.0    4.468      49.501
2015    5        2    14  33    4.8062   519.9    4.467      49.490
2015    5        2    14  39    4.8044   519.9    4.466      49.479
2015    5        2    14  45    4.8027   519.9    4.464      49.467
2015    5        2    14  50    4.8009   519.9    4.463      49.456
2015    5        2    14  56    4.7991   519.9    4.461      49.444
2015    5        2    15   2    4.7973   519.9    4.460      49.432
2015    5        2    15   7    4.7955   519.9    4.458      49.420
2015    5        2    15  13    4.7938   519.9    4.457      49.408
2015    5        2    15  19    4.7919   519.8    4.455      49.395
2015    5        2    15  24    4.7901   519.8    4.454      49.383
2015    5        2    15  30    4.7884   519.8    4.452      49.370
2015    5        2    15  36    4.7865   519.8    4.451      49.357
2015    5        2    15  41    4.7847   519.8    4.449      49.343
2015    5        2    15  47    4.7829   519.8    4.448      49.330
2015    5        2    15  53    4.7811   519.7    4.446      49.317
2015    5        2    15  59    4.7793   519.7    4.445      49.303
2015    5        2    16   4    4.7775   519.7    4.443      49.289
2015    5        2    16  10    4.7756   519.7    4.442      49.276
2015    5        2    16  16    4.7738   519.7    4.440      49.262
2015    5        2    16  21    4.7720   519.7    4.439      49.248
2015    5        2    16  27    4.7702   519.6    4.437      49.234
2015    5        2    16  33    4.7684   519.6    4.436      49.220
2015    5        2    16  38    4.7665   519.6    4.434      49.206
2015    5        2    16  44    4.7647   519.6    4.433      49.192
2015    5        2    16  50    4.7629   519.6    4.432      49.178
2015    5        2    16  55    4.7611   519.5    4.430      49.165
2015    5        2    17   1    4.7593   519.5    4.429      49.151
2015    5        2    17   7    4.7575   519.5    4.428      49.138
2015    5        2    17  13    4.7557   519.5    4.427      49.125
2015    5        2    17  18    4.7539   519.5    4.426      49.112
2015    5        2    17  24    4.7521   519.4    4.425      49.099
2015    5        2    17  30    4.7503   519.4    4.424      49.086
2015    5        2    17  35    4.7485   519.4    4.423      49.074
2015    5        2    17  41    4.7467   519.4    4.422      49.062
2015    5        2    17  47    4.7449   519.4    4.421      49.050
2015    5        2    17  52    4.7431   519.3    4.420      49.038
2015    5        2    17  58    4.7413   519.3    4.419      49.027
2015    5        2    18   4    4.7395   519.3    4.418      49.015
2015    5        2    18   9    4.7377   519.3    4.417      49.004
2015    5        2    18  15    4.7358   519.3    4.417      48.993
2015    5        2    18  21    4.7340   519.2    4.416      48.983
2015    5        2    18  27    4.7321   519.2    4.415      48.972
2015    5        2    18  32    4.7303   519.2    4.414      48.962
2015    5        2    18  38    4.7284   519.2    4.414      48.951
2015    5        2    18  44    4.7265   519.1    4.413      48.941
2015    5        2    18  49    4.7246   519.1    4.412      48.931
2015    5        2    18  55    4.7227   519.1    4.411      48.920
2015    5        2    19   1    4.7208   519.1    4.410      48.910
2015    5        2    19   6    4.7189   519.0    4.409      48.900
2015    5        2    19  12    4.7170   519.0    4.408      48.890
2015    5        2    19  18    4.7151   519.0    4.407      48.880
2015    5        2    19  23    4.7132   519.0    4.406      48.870
2015    5        2    19  29    4.7113   518.9    4.405      48.860
2015    5        2    19  35    4.7094   518.9    4.404      48.850
2015    5        2    19  41    4.7075   518.9    4.403      48.840
2015    5        2    19  46    4.7056   518.8    4.402      48.829
2015    5        2    19  52    4.7037   518.8    4.401      48.818
2015    5        2    19  58    4.7018   518.8    4.400      48.807
2015    5        2    20   3    4.7000   518.7    4.398      48.796
2015    5        2    20   9    4.6981   518.7    4.397      48.784
2015    5        2    20  15    4.6963   518.7    4.396      48.772
2015    5        2    20  20    4.6944   518.6    4.394      48.760
2015    5        2    20  26    4.6926   518.6    4.393      48.747
2015    5        2    20  32    4.6908   518.6    4.392      48.734
2015    5        2    20  37    4.6889   518.5    4.390      48.720
2015    5        2    20  43    4.6871   518.5    4.389      48.706
2015    5        2    20  49    4.6853   518.4    4.387      48.692
2015    5        2    20  55    4.6835   518.4    4.386      48.678
2015    5        2    21   0    4.6816   518.4    4.384      48.662
2015    5        2    21   6    4.6798   518.3    4.382      48.647
2015    5        2    21  12    4.6780   518.3    4.381      48.631
2015    5        2    21  17    4.6761   518.3    4.379      48.615
2015    5        2    21  23    4.6743   518.2    4.377      48.599
2015    5        2    21  29    4.6724   518.2    4.376      48.582
2015    5        2    21  34    4.6706   518.2    4.374      48.565
2015    5        2    21  40    4.6687   518.1    4.372      48.548
2015    5        2    21  46    4.6669   518.1    4.371      48.530
2015    5        2    21  51    4.6650   518.1    4.369      48.512
2015    5        2    21  57    4.6631   518.0    4.367      48.494
2015    5        2    22   3    4.6612   518.0    4.365      48.475
2015    5        2    22   9    4.6593   518.0    4.363      48.456
2015    5        2    22  14    4.6574   517.9    4.362      48.437
2015    5        2    22  20    4.6555   517.9    4.360      48.417
2015    5        2    22  26    4.6536   517.8    4.358      48.397
2015    5        2    22  31    4.6516   517.8    4.356      48.377
2015    5        2    22  37    4.6497   517.8    4.354      48.357
2015    5        2    22  43    4.6478   517.7    4.353      48.337
2015    5        2    22  48    4.6458   517.7    4.351      48.316
2015    5        2    22  54    4.6439   517.6    4.349      48.295
2015    5        2    23   0    4.6420   517.6    4.348      48.275
2015    5        2    23   5    4.6400   517.6    4.346      48.254
2015    5        2    23  11    4.6381   517.5    4.344      48.233
2015    5        2    23  17    4.6361   517.5    4.343      48.212
2015    5        2    23  23    4.6342   517.4    4.341      48.192
2015    5        2    23  28    4.6322   517.4    4.340      48.171
2015    5        2    23  34    4.6303   517.3    4.339      48.151
2015    5        2    23  40    4.6284   517.3    4.337      48.130
2015    5        2    23  45    4.6264   517.3    4.336      48.110
2015    5        2    23  51    4.6245   517.2    4.335      48.091
2015    5        2    23  57    4.6226   517.2    4.334      48.071
2015    5        3     0   2    4.6206   517.1    4.333      48.052
2015    5        3     0   8    4.6187   517.1    4.332      48.033
2015    5        3     0  14    4.6168   517.0    4.331      48.015
2015    5        3     0  20    4.6149   517.0    4.330      47.996
2015    5        3     0  25    4.6130   516.9    4.329      47.979
2015    5        3     0  31    4.6111   516.9    4.329      47.961
2015    5        3     0  37    4.6092   516.8    4.328      47.944
2015    5        3     0  42    4.6073   516.8    4.327      47.928
2015    5        3     0  48    4.6054   516.8    4.327      47.911
2015    5        3     0  54    4.6035   516.7    4.326      47.895
2015    5        3     0  59    4.6015   516.7    4.326      47.879
2015    5        3     1   5    4.5996   516.6    4.325      47.864
2015    5        3     1  11    4.5977   516.6    4.325      47.848
2015    5        3     1  16    4.5958   516.5    4.324      47.833
2015    5        3     1  22    4.5938   516.5    4.324      47.817
2015    5        3     1  28    4.5919   516.4    4.323      47.802
2015    5        3     1  34    4.5899   516.4    4.323      47.787
2015    5        3     1  39    4.5880   516.3    4.322      47.773
2015    5        3     1  45    4.5860   516.3    4.322      47.758
2015    5        3     1  51    4.5840   516.2    4.321      47.743
2015    5        3     1  56    4.5820   516.1    4.321      47.728
2015    5        3     2   2    4.5801   516.1    4.320      47.713
2015    5        3     2   8    4.5781   516.0    4.319      47.698
2015    5        3     2  13    4.5762   516.0    4.318      47.683
2015    5        3     2  19    4.5742   515.9    4.318      47.668
2015    5        3     2  25    4.5723   515.8    4.317      47.653
2015    5        3     2  30    4.5703   515.8    4.316      47.638
2015    5        3     2  36    4.5684   515.7    4.315      47.623
2015    5        3     2  42    4.5665   515.7    4.314      47.607
2015    5        3     2  48    4.5647   515.6    4.313      47.591
2015    5        3     2  53    4.5628   515.5    4.312      47.575
2015    5        3     2  59    4.5609   515.5    4.311      47.558
2015    5        3     3   5    4.5591   515.4    4.310      47.541
2015    5        3     3  10    4.5573   515.3    4.309      47.523
2015    5        3     3  16    4.5555   515.3    4.308      47.505
2015    5        3     3  22    4.5537   515.2    4.307      47.486
2015    5        3     3  27    4.5518   515.1    4.306      47.467
2015    5        3     3  33    4.5500   515.1    4.305      47.448
2015    5        3     3  39    4.5482   515.0    4.303      47.428
2015    5        3     3  44    4.5464   515.0    4.302      47.408
2015    5        3     3  50    4.5446   514.9    4.301      47.387
2015    5        3     3  56    4.5428   514.8    4.300      47.366
2015    5        3     4   1    4.5410   514.8    4.298      47.345
2015    5        3     4   7    4.5392   514.7    4.297      47.323
2015    5        3     4  13    4.5373   514.6    4.296      47.301
2015    5        3     4  19    4.5355   514.6    4.294      47.279
2015    5        3     4  24    4.5337   514.5    4.293      47.256
2015    5        3     4  30    4.5318   514.4    4.292      47.233
2015    5        3     4  36    4.5300   514.4    4.290      47.210
2015    5        3     4  41    4.5281   514.3    4.289      47.186
2015    5        3     4  47    4.5262   514.2    4.288      47.162
2015    5        3     4  53    4.5244   514.2    4.286      47.138
2015    5        3     4  58    4.5225   514.1    4.285      47.113
2015    5        3     5   4    4.5206   514.0    4.283      47.089
2015    5        3     5  10    4.5187   514.0    4.282      47.064
2015    5        3     5  15    4.5169   513.9    4.280      47.038
2015    5        3     5  21    4.5150   513.8    4.279      47.013
2015    5        3     5  27    4.5131   513.7    4.278      46.987
2015    5        3     5  33    4.5112   513.7    4.276      46.961
2015    5        3     5  38    4.5093   513.6    4.275      46.935
2015    5        3     5  44    4.5074   513.5    4.273      46.909
2015    5        3     5  50    4.5055   513.5    4.272      46.883
2015    5        3     5  55    4.5036   513.4    4.271      46.857
2015    5        3     6   1    4.5017   513.3    4.269      46.830
2015    5        3     6   7    4.4998   513.2    4.268      46.804
2015    5        3     6  12    4.4979   513.2    4.267      46.778
2015    5        3     6  18    4.4960   513.1    4.265      46.752
2015    5        3     6  24    4.4942   513.0    4.264      46.726
2015    5        3     6  29    4.4923   512.9    4.263      46.700
2015    5        3     6  35    4.4904   512.9    4.262      46.675
2015    5        3     6  41    4.4885   512.8    4.261      46.649
2015    5        3     6  47    4.4867   512.7    4.260      46.624
2015    5        3     6  52    4.4848   512.6    4.259      46.599
2015    5        3     6  58    4.4829   512.6    4.258      46.575
2015    5        3     7   4    4.4811   512.5    4.257      46.550
2015    5        3     7   9    4.4793   512.4    4.256      46.527
2015    5        3     7  15    4.4774   512.3    4.255      46.503
2015    5        3     7  21    4.4756   512.3    4.254      46.480
2015    5        3     7  26    4.4738   512.2    4.254      46.457
2015    5        3     7  32    4.4720   512.1    4.253      46.434
2015    5        3     7  38    4.4701   512.0    4.252      46.411
2015    5        3     7  43    4.4683   511.9    4.252      46.389
2015    5        3     7  49    4.4665   511.9    4.251      46.367
2015    5        3     7  55    4.4647   511.8    4.250      46.345
2015    5        3     8   1    4.4629   511.7    4.250      46.323
2015    5        3     8   6    4.4611   511.6    4.249      46.302
2015    5        3     8  12    4.4592   511.6    4.249      46.280
2015    5        3     8  18    4.4574   511.5    4.248      46.258
2015    5        3     8  23    4.4556   511.4    4.247      46.237
2015    5        3     8  29    4.4538   511.3    4.247      46.215
2015    5        3     8  35    4.4520   511.2    4.246      46.193
2015    5        3     8  40    4.4501   511.1    4.246      46.172
2015    5        3     8  46    4.4483   511.1    4.245      46.150
2015    5        3     8  52    4.4465   511.0    4.244      46.128
2015    5        3     8  57    4.4446   510.9    4.244      46.106
2015    5        3     9   3    4.4428   510.8    4.243      46.084
2015    5        3     9   9    4.4410   510.7    4.242      46.061
2015    5        3     9  15    4.4391   510.6    4.242      46.039
2015    5        3     9  20    4.4373   510.5    4.241      46.016
2015    5        3     9  26    4.4355   510.5    4.240      45.993
2015    5        3     9  32    4.4337   510.4    4.240      45.970
2015    5        3     9  37    4.4319   510.3    4.239      45.946
2015    5        3     9  43    4.4301   510.2    4.238      45.923
2015    5        3     9  49    4.4283   510.1    4.238      45.899
2015    5        3     9  54    4.4265   510.0    4.237      45.875
2015    5        3    10   0    4.4247   509.9    4.236      45.851
2015    5        3    10   6    4.4230   509.8    4.236      45.826
2015    5        3    10  12    4.4212   509.7    4.235      45.802
2015    5        3    10  17    4.4195   509.6    4.235      45.777
2015    5        3    10  23    4.4177   509.5    4.234      45.753
2015    5        3    10  29    4.4160   509.4    4.234      45.728
2015    5        3    10  34    4.4143   509.3    4.233      45.704
2015    5        3    10  40    4.4127   509.2    4.233      45.680
2015    5        3    10  46    4.4110   509.1    4.233      45.655
2015    5        3    10  51    4.4093   509.1    4.233      45.631
2015    5        3    10  57    4.4077   509.0    4.233      45.607
2015    5        3    11   3    4.4061   508.9    4.232      45.584
2015    5        3    11   8    4.4045   508.8    4.233      45.560
2015    5        3    11  14    4.4029   508.7    4.233      45.536
2015    5        3    11  20    4.4013   508.6    4.233      45.513
2015    5        3    11  26    4.3997   508.5    4.233      45.490
2015    5        3    11  31    4.3982   508.4    4.233      45.468
2015    5        3    11  37    4.3966   508.3    4.234      45.446
2015    5        3    11  43    4.3951   508.2    4.234      45.424
2015    5        3    11  48    4.3935   508.1    4.235      45.403
2015    5        3    11  54    4.3919   508.0    4.235      45.381
2015    5        3    12   0    4.3903   507.9    4.235      45.360
2015    5        3    12   5    4.3888   507.8    4.236      45.339
2015    5        3    12  11    4.3872   507.7    4.236      45.318
2015    5        3    12  17    4.3856   507.6    4.236      45.296
2015    5        3    12  22    4.3839   507.6    4.236      45.274
2015    5        3    12  28    4.3823   507.5    4.237      45.252
2015    5        3    12  34    4.3807   507.4    4.237      45.230
2015    5        3    12  39    4.3790   507.3    4.237      45.208
2015    5        3    12  45    4.3774   507.2    4.237      45.185
2015    5        3    12  51    4.3757   507.1    4.236      45.162
2015    5        3    12  57    4.3741   507.0    4.236      45.139
2015    5        3    13   2    4.3724   506.9    4.236      45.115
2015    5        3    13   8    4.3707   506.8    4.236      45.091
2015    5        3    13  14    4.3690   506.7    4.236      45.067
2015    5        3    13  19    4.3674   506.6    4.235      45.042
2015    5        3    13  25    4.3657   506.5    4.235      45.017
2015    5        3    13  31    4.3640   506.4    4.235      44.992
2015    5        3    13  36    4.3623   506.3    4.234      44.967
2015    5        3    13  42    4.3606   506.2    4.234      44.942
2015    5        3    13  48    4.3590   506.1    4.233      44.916
2015    5        3    13  53    4.3573   506.0    4.233      44.891
2015    5        3    13  59    4.3556   505.9    4.232      44.865
2015    5        3    14   5    4.3539   505.8    4.232      44.839
2015    5        3    14  11    4.3523   505.7    4.231      44.813
2015    5        3    14  16    4.3506   505.6    4.231      44.786
2015    5        3    14  22    4.3489   505.5    4.230      44.760
2015    5        3    14  28    4.3473   505.4    4.229      44.734
2015    5        3    14  33    4.3456   505.4    4.229      44.707
2015    5        3    14  39    4.3439   505.3    4.228      44.680
2015    5        3    14  45    4.3423   505.2    4.228      44.654
2015    5        3    14  50    4.3406   505.1    4.227      44.627
2015    5        3    14  56    4.3390   505.0    4.226      44.599
2015    5        3    15   2    4.3373   504.9    4.226      44.572
2015    5        3    15   7    4.3356   504.8    4.225      44.544
2015    5        3    15  13    4.3340   504.6    4.224      44.517
2015    5        3    15  19    4.3323   504.5    4.223      44.489
2015    5        3    15  25    4.3307   504.4    4.222      44.460
2015    5        3    15  30    4.3290   504.3    4.222      44.432
2015    5        3    15  36    4.3273   504.2    4.221      44.403
2015    5        3    15  42    4.3256   504.1    4.220      44.374
2015    5        3    15  47    4.3240   504.0    4.219      44.345
2015    5        3    15  53    4.3223   503.9    4.218      44.316
2015    5        3    15  59    4.3206   503.8    4.217      44.286
2015    5        3    16   4    4.3189   503.7    4.216      44.257
2015    5        3    16  10    4.3172   503.6    4.215      44.227
2015    5        3    16  16    4.3156   503.5    4.214      44.196
2015    5        3    16  21    4.3139   503.4    4.213      44.166
2015    5        3    16  27    4.3122   503.3    4.212      44.135
2015    5        3    16  33    4.3105   503.2    4.211      44.105
2015    5        3    16  39    4.3088   503.1    4.210      44.074
2015    5        3    16  44    4.3072   503.0    4.209      44.042
2015    5        3    16  50    4.3055   502.8    4.208      44.011
2015    5        3    16  56    4.3038   502.7    4.207      43.980
2015    5        3    17   1    4.3021   502.6    4.206      43.949
2015    5        3    17   7    4.3005   502.5    4.206      43.917
2015    5        3    17  13    4.2988   502.4    4.205      43.886
2015    5        3    17  18    4.2971   502.3    4.204      43.854
2015    5        3    17  24    4.2955   502.2    4.203      43.823
2015    5        3    17  30    4.2939   502.1    4.202      43.791
2015    5        3    17  35    4.2922   501.9    4.202      43.760
2015    5        3    17  41    4.2906   501.8    4.201      43.730
2015    5        3    17  47    4.2890   501.7    4.201      43.699
2015    5        3    17  53    4.2874   501.6    4.200      43.668
2015    5        3    17  58    4.2858   501.5    4.200      43.638
2015    5        3    18   4    4.2843   501.4    4.200      43.609
2015    5        3    18  10    4.2827   501.3    4.200      43.580
2015    5        3    18  15    4.2812   501.2    4.200      43.551
2015    5        3    18  21    4.2797   501.0    4.200      43.522
2015    5        3    18  27    4.2782   500.9    4.200      43.495
2015    5        3    18  32    4.2767   500.8    4.200      43.468
2015    5        3    18  38    4.2752   500.7    4.201      43.441
2015    5        3    18  44    4.2737   500.6    4.201      43.415
2015    5        3    18  49    4.2722   500.5    4.202      43.390
2015    5        3    18  55    4.2707   500.4    4.202      43.365
2015    5        3    19   1    4.2692   500.3    4.203      43.341
2015    5        3    19   7    4.2676   500.1    4.204      43.316
2015    5        3    19  12    4.2661   500.0    4.204      43.292
2015    5        3    19  18    4.2646   499.9    4.205      43.268
2015    5        3    19  24    4.2630   499.8    4.205      43.244
2015    5        3    19  29    4.2615   499.7    4.206      43.221
2015    5        3    19  35    4.2599   499.6    4.207      43.197
2015    5        3    19  41    4.2583   499.5    4.207      43.174
2015    5        3    19  46    4.2568   499.4    4.208      43.150
2015    5        3    19  52    4.2552   499.2    4.208      43.126
2015    5        3    19  58    4.2536   499.1    4.209      43.102
2015    5        3    20   3    4.2520   499.0    4.209      43.078
2015    5        3    20   9    4.2504   498.9    4.210      43.054
2015    5        3    20  15    4.2489   498.8    4.211      43.030
2015    5        3    20  21    4.2473   498.7    4.211      43.005
2015    5        3    20  26    4.2457   498.5    4.212      42.981
2015    5        3    20  32    4.2442   498.4    4.212      42.956
2015    5        3    20  38    4.2426   498.3    4.213      42.931
2015    5        3    20  43    4.2410   498.2    4.213      42.906
2015    5        3    20  49    4.2395   498.1    4.214      42.881
2015    5        3    20  55    4.2379   497.9    4.214      42.856
2015    5        3    21   0    4.2364   497.8    4.215      42.831
2015    5        3    21   6    4.2348   497.7    4.216      42.806
2015    5        3    21  12    4.2333   497.6    4.216      42.781
2015    5        3    21  17    4.2318   497.4    4.217      42.755
2015    5        3    21  23    4.2302   497.3    4.217      42.729
2015    5        3    21  29    4.2287   497.2    4.218      42.704
2015    5        3    21  35    4.2272   497.1    4.218      42.678
2015    5        3    21  40    4.2257   496.9    4.219      42.652
2015    5        3    21  46    4.2243   496.8    4.220      42.626
2015    5        3    21  52    4.2228   496.7    4.220      42.600
2015    5        3    21  57    4.2214   496.6    4.221      42.574
2015    5        3    22   3    4.2199   496.4    4.221      42.548
2015    5        3    22   9    4.2185   496.3    4.222      42.522
2015    5        3    22  14    4.2171   496.2    4.222      42.496
2015    5        3    22  20    4.2157   496.1    4.223      42.470
2015    5        3    22  26    4.2143   495.9    4.223      42.444
2015    5        3    22  31    4.2130   495.8    4.224      42.419
2015    5        3    22  37    4.2116   495.7    4.224      42.393
2015    5        3    22  43    4.2102   495.6    4.224      42.367
2015    5        3    22  49    4.2089   495.4    4.225      42.342
2015    5        3    22  54    4.2075   495.3    4.225      42.316
2015    5        3    23   0    4.2061   495.2    4.225      42.289
2015    5        3    23   6    4.2047   495.1    4.225      42.263
2015    5        3    23  11    4.2034   494.9    4.225      42.236
2015    5        3    23  17    4.2020   494.8    4.226      42.209
2015    5        3    23  23    4.2005   494.7    4.226      42.182
2015    5        3    23  28    4.1991   494.6    4.225      42.154
2015    5        3    23  34    4.1977   494.4    4.225      42.126
2015    5        3    23  40    4.1963   494.3    4.225      42.098
2015    5        3    23  45    4.1949   494.2    4.225      42.069
2015    5        3    23  51    4.1934   494.1    4.225      42.040
2015    5        3    23  57    4.1920   493.9    4.225      42.011
2015    5        4     0   3    4.1905   493.8    4.224      41.981
2015    5        4     0   8    4.1890   493.7    4.224      41.951
2015    5        4     0  14    4.1876   493.6    4.223      41.921
2015    5        4     0  20    4.1861   493.4    4.223      41.890
2015    5        4     0  25    4.1846   493.3    4.223      41.859
2015    5        4     0  31    4.1832   493.2    4.222      41.828
2015    5        4     0  37    4.1817   493.1    4.222      41.797
2015    5        4     0  42    4.1802   492.9    4.221      41.765
2015    5        4     0  48    4.1787   492.8    4.221      41.733
2015    5        4     0  54    4.1772   492.7    4.220      41.701
2015    5        4     0  59    4.1757   492.5    4.220      41.669
2015    5        4     1   5    4.1742   492.4    4.219      41.636
2015    5        4     1  11    4.1727   492.3    4.219      41.604
2015    5        4     1  17    4.1712   492.1    4.218      41.571
2015    5        4     1  22    4.1697   492.0    4.218      41.539
2015    5        4     1  28    4.1682   491.9    4.217      41.506
2015    5        4     1  34    4.1668   491.7    4.217      41.473
2015    5        4     1  39    4.1653   491.6    4.216      41.441
2015    5        4     1  45    4.1638   491.5    4.216      41.408
2015    5        4     1  51    4.1623   491.3    4.215      41.375
2015    5        4     1  56    4.1608   491.2    4.215      41.342
2015    5        4     2   2    4.1593   491.1    4.215      41.310
2015    5        4     2   8    4.1578   490.9    4.214      41.277
2015    5        4     2  13    4.1563   490.8    4.214      41.245
2015    5        4     2  19    4.1548   490.6    4.214      41.212
2015    5        4     2  25    4.1533   490.5    4.213      41.180
2015    5        4     2  31    4.1519   490.4    4.213      41.148
2015    5        4     2  36    4.1504   490.2    4.213      41.116
2015    5        4     2  42    4.1489   490.1    4.213      41.084
2015    5        4     2  48    4.1475   489.9    4.213      41.052
2015    5        4     2  53    4.1460   489.8    4.213      41.020
2015    5        4     2  59    4.1446   489.6    4.213      40.989
2015    5        4     3   5    4.1432   489.5    4.213      40.957
2015    5        4     3  10    4.1417   489.4    4.213      40.926
2015    5        4     3  16    4.1403   489.2    4.213      40.895
2015    5        4     3  22    4.1389   489.1    4.214      40.864
2015    5        4     3  27    4.1375   488.9    4.214      40.833
2015    5        4     3  33    4.1361   488.8    4.214      40.802
2015    5        4     3  39    4.1347   488.6    4.214      40.771
2015    5        4     3  45    4.1334   488.5    4.215      40.740
2015    5        4     3  50    4.1320   488.3    4.215      40.710
2015    5        4     3  56    4.1307   488.1    4.216      40.680
2015    5        4     4   2    4.1294   488.0    4.217      40.650
2015    5        4     4   7    4.1281   487.8    4.217      40.620
2015    5        4     4  13    4.1268   487.7    4.218      40.590
2015    5        4     4  19    4.1255   487.5    4.219      40.561
2015    5        4     4  24    4.1243   487.4    4.220      40.532
2015    5        4     4  30    4.1231   487.2    4.221      40.503
2015    5        4     4  36    4.1219   487.1    4.222      40.475
2015    5        4     4  41    4.1207   486.9    4.223      40.447
2015    5        4     4  47    4.1196   486.7    4.225      40.420
2015    5        4     4  53    4.1185   486.6    4.226      40.393
2015    5        4     4  59    4.1174   486.4    4.228      40.367
2015    5        4     5   4    4.1164   486.3    4.229      40.341
2015    5        4     5  10    4.1154   486.1    4.231      40.316
2015    5        4     5  16    4.1144   485.9    4.232      40.292
2015    5        4     5  21    4.1134   485.8    4.234      40.268
2015    5        4     5  27    4.1125   485.6    4.236      40.244
2015    5        4     5  33    4.1116   485.5    4.238      40.221
2015    5        4     5  38    4.1106   485.3    4.240      40.197
2015    5        4     5  44    4.1098   485.1    4.241      40.174
2015    5        4     5  50    4.1089   485.0    4.243      40.152
2015    5        4     5  55    4.1080   484.8    4.245      40.129
2015    5        4     6   1    4.1071   484.7    4.247      40.107
2015    5        4     6   7    4.1063   484.5    4.249      40.084
2015    5        4     6  13    4.1054   484.4    4.251      40.062
2015    5        4     6  18    4.1046   484.2    4.253      40.040
2015    5        4     6  24    4.1037   484.0    4.256      40.017
2015    5        4     6  30    4.1029   483.9    4.258      39.995
2015    5        4     6  35    4.1020   483.7    4.260      39.973
2015    5        4     6  41    4.1011   483.6    4.262      39.950
2015    5        4     6  47    4.1002   483.4    4.264      39.928
2015    5        4     6  52    4.0994   483.3    4.266      39.905
2015    5        4     6  58    4.0985   483.1    4.268      39.882
2015    5        4     7   4    4.0976   482.9    4.270      39.859
2015    5        4     7   9    4.0967   482.8    4.272      39.835
2015    5        4     7  15    4.0958   482.6    4.274      39.812
2015    5        4     7  21    4.0949   482.5    4.275      39.788
2015    5        4     7  27    4.0940   482.3    4.277      39.764
2015    5        4     7  32    4.0930   482.1    4.279      39.740
2015    5        4     7  38    4.0921   482.0    4.281      39.716
2015    5        4     7  44    4.0912   481.8    4.283      39.691
2015    5        4     7  49    4.0903   481.6    4.284      39.666
2015    5        4     7  55    4.0894   481.5    4.286      39.641
2015    5        4     8   1    4.0885   481.3    4.288      39.616
2015    5        4     8   6    4.0876   481.2    4.289      39.591
2015    5        4     8  12    4.0867   481.0    4.291      39.565
2015    5        4     8  18    4.0858   480.8    4.292      39.540
2015    5        4     8  23    4.0849   480.7    4.294      39.514
2015    5        4     8  29    4.0840   480.5    4.295      39.488
2015    5        4     8  35    4.0831   480.3    4.297      39.462
2015    5        4     8  41    4.0823   480.2    4.298      39.436
2015    5        4     8  46    4.0814   480.0    4.299      39.410
2015    5        4     8  52    4.0806   479.9    4.301      39.383
2015    5        4     8  58    4.0797   479.7    4.302      39.357
2015    5        4     9   3    4.0789   479.5    4.303      39.330
2015    5        4     9   9    4.0781   479.4    4.305      39.303
2015    5        4     9  15    4.0772   479.2    4.306      39.276
2015    5        4     9  20    4.0764   479.0    4.307      39.249
2015    5        4     9  26    4.0756   478.9    4.308      39.221
2015    5        4     9  32    4.0747   478.7    4.309      39.194
2015    5        4     9  37    4.0739   478.5    4.311      39.166
2015    5        4     9  43    4.0731   478.4    4.312      39.138
2015    5        4     9  49    4.0723   478.2    4.313      39.110
2015    5        4     9  55    4.0714   478.0    4.314      39.082
2015    5        4    10   0    4.0706   477.9    4.315      39.053
2015    5        4    10   6    4.0698   477.7    4.316      39.024
2015    5        4    10  12    4.0690   477.5    4.317      38.995
2015    5        4    10  17    4.0682   477.3    4.318      38.966
2015    5        4    10  23    4.0674   477.2    4.319      38.937
2015    5        4    10  29    4.0666   477.0    4.320      38.907
2015    5        4    10  34    4.0658   476.8    4.321      38.878
2015    5        4    10  40    4.0650   476.7    4.323      38.848
2015    5        4    10  46    4.0643   476.5    4.324      38.818
2015    5        4    10  51    4.0635   476.3    4.325      38.788
2015    5        4    10  57    4.0628   476.1    4.326      38.758
2015    5        4    11   3    4.0621   475.9    4.328      38.728
2015    5        4    11   9    4.0613   475.8    4.329      38.699
2015    5        4    11  14    4.0606   475.6    4.330      38.669
2015    5        4    11  20    4.0600   475.4    4.332      38.639
2015    5        4    11  26    4.0593   475.2    4.333      38.610
2015    5        4    11  31    4.0587   475.0    4.335      38.580
2015    5        4    11  37    4.0580   474.9    4.337      38.551
2015    5        4    11  43    4.0575   474.7    4.339      38.522
2015    5        4    11  48    4.0569   474.5    4.340      38.493
2015    5        4    11  54    4.0563   474.3    4.342      38.465
2015    5        4    12   0    4.0558   474.1    4.344      38.436
2015    5        4    12   5    4.0553   474.0    4.347      38.408
2015    5        4    12  11    4.0548   473.8    4.349      38.381
2015    5        4    12  17    4.0543   473.6    4.351      38.353
2015    5        4    12  23    4.0539   473.4    4.354      38.326
2015    5        4    12  28    4.0535   473.2    4.356      38.299
2015    5        4    12  34    4.0531   473.0    4.359      38.273
2015    5        4    12  40    4.0527   472.9    4.362      38.247
2015    5        4    12  45    4.0524   472.7    4.364      38.221
2015    5        4    12  51    4.0520   472.5    4.367      38.195
2015    5        4    12  57    4.0517   472.3    4.370      38.169
2015    5        4    13   2    4.0514   472.1    4.373      38.144
2015    5        4    13   8    4.0511   472.0    4.376      38.119
2015    5        4    13  14    4.0509   471.8    4.380      38.094
2015    5        4    13  19    4.0506   471.6    4.383      38.069
2015    5        4    13  25    4.0504   471.4    4.386      38.045
2015    5        4    13  31    4.0501   471.2    4.390      38.020
2015    5        4    13  37    4.0499   471.0    4.393      37.996
2015    5        4    13  42    4.0497   470.9    4.396      37.972
2015    5        4    13  48    4.0495   470.7    4.400      37.947
2015    5        4    13  54    4.0494   470.5    4.403      37.923
2015    5        4    13  59    4.0492   470.3    4.407      37.899
2015    5        4    14   5    4.0491   470.1    4.411      37.876
2015    5        4    14  11    4.0489   469.9    4.414      37.852
2015    5        4    14  16    4.0488   469.7    4.418      37.828
2015    5        4    14  22    4.0487   469.6    4.422      37.804
2015    5        4    14  28    4.0486   469.4    4.426      37.781
2015    5        4    14  33    4.0486   469.2    4.429      37.758
2015    5        4    14  39    4.0485   469.0    4.433      37.734
2015    5        4    14  45    4.0485   468.8    4.437      37.711
2015    5        4    14  51    4.0485   468.6    4.441      37.689
2015    5        4    14  56    4.0485   468.4    4.445      37.666
2015    5        4    15   2    4.0485   468.2    4.449      37.644
2015    5        4    15   8    4.0486   468.1    4.453      37.621
2015    5        4    15  13    4.0487   467.9    4.457      37.599
2015    5        4    15  19    4.0488   467.7    4.461      37.577
2015    5        4    15  25    4.0489   467.5    4.465      37.556
2015    5        4    15  30    4.0491   467.3    4.469      37.535
2015    5        4    15  36    4.0492   467.1    4.474      37.514
2015    5        4    15  42    4.0494   467.0    4.478      37.493
2015    5        4    15  47    4.0496   466.8    4.482      37.472
2015    5        4    15  53    4.0499   466.6    4.486      37.452
2015    5        4    15  59    4.0501   466.4    4.491      37.432
2015    5        4    16   5    4.0504   466.2    4.495      37.412
2015    5        4    16  10    4.0506   466.0    4.499      37.393
2015    5        4    16  16    4.0509   465.9    4.504      37.373
2015    5        4    16  22    4.0512   465.7    4.508      37.354
2015    5        4    16  27    4.0516   465.5    4.512      37.335
2015    5        4    16  33    4.0519   465.3    4.517      37.316
2015    5        4    16  39    4.0522   465.1    4.521      37.297
2015    5        4    16  44    4.0526   465.0    4.525      37.279
2015    5        4    16  50    4.0529   464.8    4.530      37.260
2015    5        4    16  56    4.0533   464.6    4.534      37.241
2015    5        4    17   1    4.0536   464.4    4.539      37.222
2015    5        4    17   7    4.0540   464.3    4.543      37.204
2015    5        4    17  13    4.0543   464.1    4.547      37.185
2015    5        4    17  19    4.0546   463.9    4.552      37.166
2015    5        4    17  24    4.0550   463.7    4.556      37.147
2015    5        4    17  30    4.0553   463.6    4.560      37.128
2015    5        4    17  36    4.0557   463.4    4.565      37.108
2015    5        4    17  41    4.0561   463.2    4.569      37.089
2015    5        4    17  47    4.0564   463.0    4.573      37.069
2015    5        4    17  53    4.0568   462.8    4.577      37.048
2015    5        4    17  58    4.0572   462.7    4.581      37.028
2015    5        4    18   4    4.0575   462.5    4.585      37.007
2015    5        4    18  10    4.0579   462.3    4.590      36.986
2015    5        4    18  15    4.0583   462.1    4.594      36.964
2015    5        4    18  21    4.0587   462.0    4.598      36.943
2015    5        4    18  27    4.0591   461.8    4.602      36.921
2015    5        4    18  33    4.0595   461.6    4.606      36.899
2015    5        4    18  38    4.0600   461.4    4.610      36.877
2015    5        4    18  44    4.0604   461.2    4.614      36.854
2015    5        4    18  50    4.0609   461.1    4.618      36.831
2015    5        4    18  55    4.0614   460.9    4.622      36.808
2015    5        4    19   1    4.0618   460.7    4.626      36.785
2015    5        4    19   7    4.0623   460.5    4.630      36.762
2015    5        4    19  12    4.0628   460.3    4.634      36.739
2015    5        4    19  18    4.0634   460.1    4.638      36.716
2015    5        4    19  24    4.0639   460.0    4.642      36.692
2015    5        4    19  29    4.0645   459.8    4.646      36.669
2015    5        4    19  35    4.0651   459.6    4.650      36.645
2015    5        4    19  41    4.0657   459.4    4.654      36.621
2015    5        4    19  47    4.0663   459.2    4.658      36.598
2015    5        4    19  52    4.0670   459.1    4.662      36.574
2015    5        4    19  58    4.0677   458.9    4.666      36.550
2015    5        4    20   4    4.0684   458.7    4.670      36.527
2015    5        4    20   9    4.0691   458.5    4.674      36.503
2015    5        4    20  15    4.0698   458.3    4.679      36.480
2015    5        4    20  21    4.0706   458.2    4.683      36.457
2015    5        4    20  26    4.0714   458.0    4.687      36.434
2015    5        4    20  32    4.0722   457.8    4.692      36.410
2015    5        4    20  38    4.0730   457.6    4.696      36.388
2015    5        4    20  43    4.0739   457.4    4.701      36.365
2015    5        4    20  49    4.0748   457.3    4.705      36.342
2015    5        4    20  55    4.0757   457.1    4.710      36.320
2015    5        4    21   1    4.0767   456.9    4.715      36.298
2015    5        4    21   6    4.0776   456.7    4.720      36.276
2015    5        4    21  12    4.0786   456.6    4.724      36.254
2015    5        4    21  18    4.0796   456.4    4.729      36.232
2015    5        4    21  23    4.0807   456.2    4.734      36.211
2015    5        4    21  29    4.0818   456.0    4.739      36.190
2015    5        4    21  35    4.0829   455.9    4.745      36.169
2015    5        4    21  40    4.0840   455.7    4.750      36.149
2015    5        4    21  46    4.0851   455.5    4.755      36.129
2015    5        4    21  52    4.0863   455.3    4.760      36.109
2015    5        4    21  57    4.0875   455.2    4.766      36.090
2015    5        4    22   3    4.0888   455.0    4.771      36.070
2015    5        4    22   9    4.0900   454.8    4.777      36.052
2015    5        4    22  15    4.0913   454.6    4.783      36.033
2015    5        4    22  20    4.0926   454.5    4.789      36.015
2015    5        4    22  26    4.0939   454.3    4.794      35.997
2015    5        4    22  32    4.0953   454.1    4.800      35.979
2015    5        4    22  37    4.0967   454.0    4.806      35.962
2015    5        4    22  43    4.0981   453.8    4.812      35.945
2015    5        4    22  49    4.0995   453.6    4.818      35.929
2015    5        4    22  54    4.1010   453.5    4.825      35.913
2015    5        4    23   0    4.1024   453.3    4.831      35.897
2015    5        4    23   6    4.1039   453.1    4.837      35.881
2015    5        4    23  11    4.1055   453.0    4.843      35.866
2015    5        4    23  17    4.1070   452.8    4.850      35.851
2015    5        4    23  23    4.1085   452.6    4.856      35.836
2015    5        4    23  29    4.1101   452.5    4.863      35.822
2015    5        4    23  34    4.1117   452.3    4.869      35.807
2015    5        4    23  40    4.1133   452.2    4.876      35.793
2015    5        4    23  46    4.1149   452.0    4.883      35.780
2015    5        4    23  51    4.1166   451.8    4.889      35.766
2015    5        4    23  57    4.1182   451.7    4.896      35.753
2015    5        5     0   3    4.1198   451.5    4.903      35.740
2015    5        5     0   8    4.1215   451.4    4.909      35.727
2015    5        5     0  14    4.1231   451.2    4.916      35.714
2015    5        5     0  20    4.1248   451.1    4.923      35.701
2015    5        5     0  25    4.1265   450.9    4.929      35.688
2015    5        5     0  31    4.1281   450.8    4.936      35.675
2015    5        5     0  37    4.1298   450.6    4.943      35.663
2015    5        5     0  43    4.1315   450.5    4.949      35.650
2015    5        5     0  48    4.1332   450.3    4.956      35.637
2015    5        5     0  54    4.1349   450.2    4.963      35.625
2015    5        5     1   0    4.1366   450.0    4.969      35.612
2015    5        5     1   5    4.1383   449.8    4.976      35.599
2015    5        5     1  11    4.1401   449.7    4.983      35.586
2015    5        5     1  17    4.1418   449.5    4.989      35.574
2015    5        5     1  22    4.1436   449.4    4.996      35.561
2015    5        5     1  28    4.1453   449.2    5.003      35.548
2015    5        5     1  34    4.1471   449.1    5.009      35.535
2015    5        5     1  39    4.1489   448.9    5.016      35.523
2015    5        5     1  45    4.1508   448.8    5.022      35.510
2015    5        5     1  51    4.1526   448.6    5.029      35.497
2015    5        5     1  57    4.1544   448.5    5.035      35.485
2015    5        5     2   2    4.1563   448.3    5.042      35.472
2015    5        5     2   8    4.1582   448.2    5.048      35.460
2015    5        5     2  14    4.1601   448.0    5.055      35.447
2015    5        5     2  19    4.1620   447.9    5.061      35.435
2015    5        5     2  25    4.1639   447.8    5.068      35.423
2015    5        5     2  31    4.1659   447.6    5.075      35.410
2015    5        5     2  36    4.1679   447.5    5.081      35.398
2015    5        5     2  42    4.1699   447.3    5.088      35.386
2015    5        5     2  48    4.1719   447.2    5.094      35.374
2015    5        5     2  53    4.1739   447.0    5.100      35.363
2015    5        5     2  59    4.1759   446.9    5.107      35.351
2015    5        5     3   5    4.1780   446.8    5.113      35.339
2015    5        5     3  11    4.1800   446.6    5.120      35.328
2015    5        5     3  16    4.1821   446.5    5.126      35.316
2015    5        5     3  22    4.1842   446.3    5.133      35.305
2015    5        5     3  28    4.1863   446.2    5.139      35.294
2015    5        5     3  33    4.1884   446.1    5.145      35.282
2015    5        5     3  39    4.1905   445.9    5.152      35.271
2015    5        5     3  45    4.1927   445.8    5.158      35.260
2015    5        5     3  50    4.1948   445.6    5.165      35.249
2015    5        5     3  56    4.1970   445.5    5.171      35.238
2015    5        5     4   2    4.1992   445.4    5.177      35.227
2015    5        5     4   7    4.2013   445.2    5.184      35.217
2015    5        5     4  13    4.2035   445.1    5.190      35.206
2015    5        5     4  19    4.2058   445.0    5.197      35.195
2015    5        5     4  25    4.2080   444.8    5.203      35.185
2015    5        5     4  30    4.2102   444.7    5.209      35.174
2015    5        5     4  36    4.2125   444.6    5.216      35.164
2015    5        5     4  42    4.2148   444.4    5.222      35.154
2015    5        5     4  47    4.2170   444.3    5.229      35.144
2015    5        5     4  53    4.2193   444.2    5.235      35.134
2015    5        5     4  59    4.2217   444.1    5.242      35.124
2015    5        5     5   4    4.2240   443.9    5.248      35.115
2015    5        5     5  10    4.2263   443.8    5.255      35.105
2015    5        5     5  16    4.2287   443.7    5.261      35.096
2015    5        5     5  21    4.2311   443.6    5.268      35.087
2015    5        5     5  27    4.2335   443.4    5.275      35.078
2015    5        5     5  33    4.2359   443.3    5.281      35.069
2015    5        5     5  39    4.2383   443.2    5.288      35.061
2015    5        5     5  44    4.2407   443.1    5.295      35.052
2015    5        5     5  50    4.2432   442.9    5.301      35.044
2015    5        5     5  56    4.2456   442.8    5.308      35.036
2015    5        5     6   1    4.2481   442.7    5.315      35.029
2015    5        5     6   7    4.2506   442.6    5.322      35.021
2015    5        5     6  13    4.2531   442.5    5.329      35.014
2015    5        5     6  18    4.2556   442.4    5.336      35.007
2015    5        5     6  24    4.2581   442.2    5.343      35.000
2015    5        5     6  30    4.2607   442.1    5.350      34.993
2015    5        5     6  35    4.2632   442.0    5.357      34.987
2015    5        5     6  41    4.2658   441.9    5.365      34.981
2015    5        5     6  47    4.2683   441.8    5.372      34.975
2015    5        5     6  53    4.2709   441.7    5.379      34.969
2015    5        5     6  58    4.2735   441.6    5.386      34.964
2015    5        5     7   4    4.2761   441.4    5.394      34.959
2015    5        5     7  10    4.2788   441.3    5.401      34.954
2015    5        5     7  15    4.2814   441.2    5.409      34.950
2015    5        5     7  21    4.2840   441.1    5.416      34.945
2015    5        5     7  27    4.2867   441.0    5.424      34.941
2015    5        5     7  32    4.2894   440.9    5.431      34.937
2015    5        5     7  38    4.2921   440.8    5.439      34.933
2015    5        5     7  44    4.2948   440.7    5.447      34.930
2015    5        5     7  49    4.2975   440.6    5.454      34.926
2015    5        5     7  55    4.3002   440.5    5.462      34.923
2015    5        5     8   1    4.3030   440.4    5.470      34.920
2015    5        5     8   7    4.3057   440.3    5.478      34.918
2015    5        5     8  12    4.3085   440.2    5.486      34.915
2015    5        5     8  18    4.3112   440.1    5.494      34.913
2015    5        5     8  24    4.3140   440.0    5.502      34.911
2015    5        5     8  29    4.3168   439.9    5.510      34.909
2015    5        5     8  35    4.3196   439.8    5.518      34.907
2015    5        5     8  41    4.3225   439.7    5.526      34.905
2015    5        5     8  46    4.3253   439.6    5.534      34.904
2015    5        5     8  52    4.3282   439.5    5.542      34.903
2015    5        5     8  58    4.3310   439.4    5.550      34.902
2015    5        5     9   3    4.3339   439.3    5.558      34.902
2015    5        5     9   9    4.3368   439.2    5.566      34.901
2015    5        5     9  15    4.3396   439.1    5.574      34.902
2015    5        5     9  21    4.3426   439.0    5.582      34.902
2015    5        5     9  26    4.3454   438.9    5.590      34.903
2015    5        5     9  32    4.3483   438.8    5.598      34.903
2015    5        5     9  38    4.3513   438.7    5.606      34.904
2015    5        5     9  43    4.3542   438.6    5.614      34.904
2015    5        5     9  49    4.3571   438.5    5.621      34.905
2015    5        5     9  55    4.3600   438.5    5.629      34.905
2015    5        5    10   0    4.3630   438.4    5.637      34.906
2015    5        5    10   6    4.3659   438.3    5.644      34.907
2015    5        5    10  12    4.3689   438.2    5.652      34.908
2015    5        5    10  17    4.3718   438.1    5.660      34.909
2015    5        5    10  23    4.3748   438.0    5.667      34.909
2015    5        5    10  29    4.3777   437.9    5.674      34.910
2015    5        5    10  34    4.3807   437.9    5.682      34.911
2015    5        5    10  40    4.3836   437.8    5.689      34.912
2015    5        5    10  46    4.3866   437.7    5.696      34.913
2015    5        5    10  52    4.3896   437.6    5.704      34.914
2015    5        5    10  57    4.3925   437.5    5.711      34.915
2015    5        5    11   3    4.3955   437.5    5.718      34.915
2015    5        5    11   9    4.3985   437.4    5.725      34.916
2015    5        5    11  14    4.4014   437.3    5.732      34.917
2015    5        5    11  20    4.4044   437.2    5.739      34.918
2015    5        5    11  26    4.4074   437.1    5.746      34.919
2015    5        5    11  31    4.4103   437.1    5.753      34.919
2015    5        5    11  37    4.4133   437.0    5.760      34.920
2015    5        5    11  43    4.4163   436.9    5.767      34.921
2015    5        5    11  48    4.4193   436.8    5.773      34.921
2015    5        5    11  54    4.4223   436.8    5.780      34.922
2015    5        5    12   0    4.4252   436.7    5.787      34.923
2015    5        5    12   6    4.4282   436.6    5.793      34.923
2015    5        5    12  11    4.4312   436.5    5.800      34.924
2015    5        5    12  17    4.4342   436.5    5.807      34.925
2015    5        5    12  23    4.4372   436.4    5.813      34.925
2015    5        5    12  28    4.4402   436.3    5.820      34.926
2015    5        5    12  34    4.4432   436.2    5.827      34.927
2015    5        5    12  40    4.4462   436.2    5.833      34.928
2015    5        5    12  45    4.4492   436.1    5.840      34.928
2015    5        5    12  51    4.4522   436.0    5.846      34.930
2015    5        5    12  57    4.4553   435.9    5.853      34.931
2015    5        5    13   3    4.4583   435.9    5.859      34.932
2015    5        5    13   8    4.4613   435.8    5.866      34.934
2015    5        5    13  14    4.4644   435.7    5.873      34.935
2015    5        5    13  20    4.4674   435.7    5.879      34.937
2015    5        5    13  25    4.4705   435.6    5.886      34.940
2015    5        5    13  31    4.4735   435.5    5.892      34.942
2015    5        5    13  37    4.4766   435.5    5.899      34.945
2015    5        5    13  42    4.4797   435.4    5.906      34.947
2015    5        5    13  48    4.4828   435.3    5.913      34.951
2015    5        5    13  54    4.4859   435.3    5.919      34.954
2015    5        5    13  59    4.4890   435.2    5.926      34.958
2015    5        5    14   5    4.4921   435.1    5.933      34.962
2015    5        5    14  11    4.4953   435.1    5.940      34.966
2015    5        5    14  17    4.4984   435.0    5.947      34.971
2015    5        5    14  22    4.5015   435.0    5.954      34.976
2015    5        5    14  28    4.5047   434.9    5.961      34.981
2015    5        5    14  34    4.5079   434.8    5.969      34.987
2015    5        5    14  39    4.5110   434.8    5.976      34.993
2015    5        5    14  45    4.5142   434.7    5.983      34.999
2015    5        5    14  51    4.5174   434.7    5.990      35.006
2015    5        5    14  56    4.5205   434.6    5.998      35.014
2015    5        5    15   2    4.5237   434.6    6.005      35.021
2015    5        5    15   8    4.5269   434.5    6.012      35.029
2015    5        5    15  13    4.5301   434.5    6.020      35.038
2015    5        5    15  19    4.5332   434.4    6.027      35.047
2015    5        5    15  25    4.5364   434.4    6.034      35.056
2015    5        5    15  30    4.5396   434.3    6.042      35.065
2015    5        5    15  36    4.5428   434.3    6.049      35.075
2015    5        5    15  42    4.5460   434.2    6.056      35.084
2015    5        5    15  48    4.5492   434.2    6.064      35.094
2015    5        5    15  53    4.5524   434.1    6.071      35.105
2015    5        5    15  59    4.5556   434.1    6.078      35.115
2015    5        5    16   5    4.5587   434.0    6.085      35.126
2015    5        5    16  10    4.5619   434.0    6.093      35.136
2015    5        5    16  16    4.5651   433.9    6.100      35.147
2015    5        5    16  22    4.5683   433.9    6.107      35.159
2015    5        5    16  27    4.5714   433.8    6.114      35.170
2015    5        5    16  33    4.5746   433.8    6.121      35.181
2015    5        5    16  39    4.5778   433.8    6.128      35.193
2015    5        5    16  44    4.5809   433.7    6.135      35.204
2015    5        5    16  50    4.5841   433.7    6.142      35.215
2015    5        5    16  56    4.5872   433.6    6.149      35.226
2015    5        5    17   2    4.5904   433.6    6.156      35.237
2015    5        5    17   7    4.5935   433.6    6.162      35.248
2015    5        5    17  13    4.5966   433.5    6.169      35.259
2015    5        5    17  19    4.5998   433.5    6.175      35.270
2015    5        5    17  24    4.6029   433.4    6.182      35.281
2015    5        5    17  30    4.6060   433.4    6.188      35.291
2015    5        5    17  36    4.6091   433.4    6.195      35.301
2015    5        5    17  41    4.6123   433.3    6.201      35.312
2015    5        5    17  47    4.6154   433.3    6.207      35.322
2015    5        5    17  53    4.6185   433.2    6.214      35.332
2015    5        5    17  58    4.6217   433.2    6.220      35.342
2015    5        5    18   4    4.6248   433.2    6.226      35.352
2015    5        5    18  10    4.6279   433.1    6.232      35.361
2015    5        5    18  16    4.6311   433.1    6.238      35.371
2015    5        5    18  21    4.6342   433.1    6.245      35.381
2015    5        5    18  27    4.6374   433.0    6.251      35.390
2015    5        5    18  33    4.6405   433.0    6.257      35.400
2015    5        5    18  38    4.6437   433.0    6.263      35.409
2015    5        5    18  44    4.6468   432.9    6.269      35.418
2015    5        5    18  50    4.6500   432.9    6.275      35.427
2015    5        5    18  55    4.6532   432.9    6.281      35.437
2015    5        5    19   1    4.6563   432.8    6.287      35.446
2015    5        5    19   7    4.6595   432.8    6.292      35.456
2015    5        5    19  12    4.6627   432.8    6.298      35.465
2015    5        5    19  18    4.6659   432.7    6.304      35.475
2015    5        5    19  24    4.6690   432.7    6.310      35.485
2015    5        5    19  30    4.6722   432.7    6.316      35.495
2015    5        5    19  35    4.6754   432.6    6.322      35.505
2015    5        5    19  41    4.6786   432.6    6.327      35.516
2015    5        5    19  47    4.6818   432.6    6.333      35.526
2015    5        5    19  52    4.6850   432.6    6.339      35.536
2015    5        5    19  58    4.6881   432.5    6.345      35.547
2015    5        5    20   4    4.6913   432.5    6.350      35.557
2015    5        5    20   9    4.6945   432.5    6.356      35.568
2015    5        5    20  15    4.6976   432.4    6.362      35.579
2015    5        5    20  21    4.7008   432.4    6.367      35.590
2015    5        5    20  26    4.7039   432.4    6.373      35.602
2015    5        5    20  32    4.7070   432.4    6.379      35.614
2015    5        5    20  38    4.7101   432.4    6.384      35.627
2015    5        5    20  44    4.7132   432.3    6.390      35.639
2015    5        5    20  49    4.7162   432.3    6.395      35.653
2015    5        5    20  55    4.7193   432.3    6.401      35.666
2015    5        5    21   1    4.7223   432.3    6.406      35.679
2015    5        5    21   6    4.7254   432.3    6.411      35.693
2015    5        5    21  12    4.7284   432.2    6.417      35.706
2015    5        5    21  18    4.7314   432.2    6.422      35.719
2015    5        5    21  23    4.7344   432.2    6.427      35.733
2015    5        5    21  29    4.7374   432.2    6.432      35.747
2015    5        5    21  35    4.7404   432.2    6.437      35.760
2015    5        5    21  40    4.7433   432.1    6.442      35.774
2015    5        5    21  46    4.7462   432.1    6.448      35.787
2015    5        5    21  52    4.7492   432.1    6.453      35.801
2015    5        5    21  58    4.7521   432.1    6.458      35.815
2015    5        5    22   3    4.7550   432.1    6.462      35.828
2015    5        5    22   9    4.7579   432.1    6.467      35.842
2015    5        5    22  15    4.7607   432.1    6.472      35.856
2015    5        5    22  20    4.7636   432.0    6.477      35.871
2015    5        5    22  26    4.7664   432.0    6.481      35.885
2015    5        5    22  32    4.7693   432.0    6.486      35.899
2015    5        5    22  37    4.7721   432.0    6.490      35.914
2015    5        5    22  43    4.7749   432.0    6.495      35.928
2015    5        5    22  49    4.7777   432.0    6.499      35.943
2015    5        5    22  54    4.7805   432.0    6.504      35.957
2015    5        5    23   0    4.7833   432.0    6.508      35.972
2015    5        5    23   6    4.7860   431.9    6.512      35.986
2015    5        5    23  12    4.7888   431.9    6.516      36.000
2015    5        5    23  17    4.7915   431.9    6.520      36.014
2015    5        5    23  23    4.7943   431.9    6.524      36.029
2015    5        5    23  29    4.7970   431.9    6.529      36.042
2015    5        5    23  34    4.7998   431.9    6.533      36.056
2015    5        5    23  40    4.8025   431.9    6.536      36.070
2015    5        5    23  46    4.8052   431.9    6.540      36.084
2015    5        5    23  51    4.8079   431.8    6.544      36.098
2015    5        5    23  57    4.8106   431.8    6.548      36.111
2015    5        6     0   3    4.8133   431.8    6.552      36.125
2015    5        6     0   8    4.8160   431.8    6.556      36.138
2015    5        6     0  14    4.8187   431.8    6.559      36.152
2015    5        6     0  20    4.8214   431.8    6.563      36.165
2015    5        6     0  26    4.8241   431.8    6.567      36.178
2015    5        6     0  31    4.8268   431.8    6.571      36.192
2015    5        6     0  37    4.8295   431.8    6.574      36.205
2015    5        6     0  43    4.8322   431.8    6.578      36.218
2015    5        6     0  48    4.8349   431.7    6.582      36.232
2015    5        6     0  54    4.8376   431.7    6.585      36.245
2015    5        6     1   0    4.8403   431.7    6.589      36.259
2015    5        6     1   5    4.8430   431.7    6.593      36.273
2015    5        6     1  11    4.8457   431.7    6.596      36.286
2015    5        6     1  17    4.8484   431.7    6.600      36.300
2015    5        6     1  22    4.8512   431.7    6.604      36.314
2015    5        6     1  28    4.8539   431.7    6.608      36.328
2015    5        6     1  34    4.8567   431.7    6.612      36.342
2015    5        6     1  40    4.8594   431.7    6.615      36.356
2015    5        6     1  45    4.8622   431.7    6.619      36.370
2015    5        6     1  51    4.8650   431.7    6.623      36.385
2015    5        6     1  57    4.8677   431.7    6.627      36.400
2015    5        6     2   2    4.8705   431.7    6.631      36.415
2015    5        6     2   8    4.8733   431.6    6.635      36.431
2015    5        6     2  14    4.8761   431.6    6.639      36.447
2015    5        6     2  19    4.8789   431.6    6.644      36.463
2015    5        6     2  25    4.8817   431.6    6.648      36.480
2015    5        6     2  31    4.8845   431.6    6.652      36.497
2015    5        6     2  36    4.8873   431.6    6.656      36.514
2015    5        6     2  42    4.8901   431.6    6.661      36.532
2015    5        6     2  48    4.8929   431.6    6.665      36.550
2015    5        6     2  54    4.8958   431.6    6.670      36.568
2015    5        6     2  59    4.8986   431.7    6.674      36.587
2015    5        6     3   5    4.9014   431.7    6.679      36.605
2015    5        6     3  11    4.9042   431.7    6.684      36.625
2015    5        6     3  16    4.9070   431.7    6.689      36.645
2015    5        6     3  22    4.9098   431.7    6.693      36.665
2015    5        6     3  28    4.9125   431.7    6.698      36.686
2015    5        6     3  33    4.9152   431.7    6.703      36.707
2015    5        6     3  39    4.9179   431.7    6.708      36.729
2015    5        6     3  45    4.9205   431.7    6.712      36.751
2015    5        6     3  50    4.9231   431.7    6.717      36.774
2015    5        6     3  56    4.9257   431.7    6.721      36.797
2015    5        6     4   2    4.9282   431.7    6.725      36.820
2015    5        6     4   8    4.9307   431.7    6.729      36.843
2015    5        6     4  13    4.9332   431.8    6.733      36.866
2015    5        6     4  19    4.9356   431.8    6.737      36.889
2015    5        6     4  25    4.9380   431.8    6.741      36.911
2015    5        6     4  30    4.9403   431.8    6.744      36.933
2015    5        6     4  36    4.9427   431.8    6.748      36.955
2015    5        6     4  42    4.9450   431.8    6.751      36.976
2015    5        6     4  47    4.9473   431.8    6.754      36.996
2015    5        6     4  53    4.9495   431.8    6.757      37.017
2015    5        6     4  59    4.9517   431.9    6.760      37.036
2015    5        6     5   4    4.9540   431.9    6.762      37.056
2015    5        6     5  10    4.9562   431.9    6.765      37.075
2015    5        6     5  16    4.9584   431.9    6.767      37.093
2015    5        6     5  22    4.9605   431.9    6.770      37.111
2015    5        6     5  27    4.9627   431.9    6.772      37.129
2015    5        6     5  33    4.9648   431.9    6.774      37.146
2015    5        6     5  39    4.9669   431.9    6.776      37.163
2015    5        6     5  44    4.9691   432.0    6.778      37.180
2015    5        6     5  50    4.9711   432.0    6.780      37.196
2015    5        6     5  56    4.9732   432.0    6.782      37.212
2015    5        6     6   1    4.9753   432.0    6.783      37.227
2015    5        6     6   7    4.9773   432.0    6.785      37.243
2015    5        6     6  13    4.9794   432.0    6.786      37.258
2015    5        6     6  18    4.9814   432.0    6.788      37.272
2015    5        6     6  24    4.9834   432.1    6.789      37.287
2015    5        6     6  30    4.9854   432.1    6.791      37.301
2015    5        6     6  36    4.9874   432.1    6.792      37.315
2015    5        6     6  41    4.9894   432.1    6.793      37.329
2015    5        6     6  47    4.9914   432.1    6.794      37.342
2015    5        6     6  53    4.9933   432.1    6.795      37.356
2015    5        6     6  58    4.9953   432.1    6.796      37.369
2015    5        6     7   4    4.9972   432.1    6.797      37.382
2015    5        6     7  10    4.9991   432.2    6.798      37.395
2015    5        6     7  15    5.0010   432.2    6.799      37.408
2015    5        6     7  21    5.0029   432.2    6.800      37.421
2015    5        6     7  27    5.0048   432.2    6.801      37.433
2015    5        6     7  32    5.0067   432.2    6.802      37.446
2015    5        6     7  38    5.0086   432.2    6.802      37.458
2015    5        6     7  44    5.0104   432.2    6.803      37.471
2015    5        6     7  50    5.0123   432.3    6.804      37.483
2015    5        6     7  55    5.0141   432.3    6.804      37.495
2015    5        6     8   1    5.0160   432.3    6.805      37.508
2015    5        6     8   7    5.0178   432.3    6.806      37.520
2015    5        6     8  12    5.0196   432.3    6.806      37.532
2015    5        6     8  18    5.0214   432.3    6.807      37.545
2015    5        6     8  24    5.0232   432.3    6.807      37.557
2015    5        6     8  29    5.0251   432.4    6.808      37.570
2015    5        6     8  35    5.0269   432.4    6.809      37.582
2015    5        6     8  41    5.0286   432.4    6.809      37.595
2015    5        6     8  46    5.0305   432.4    6.810      37.608
2015    5        6     8  52    5.0323   432.4    6.811      37.621
2015    5        6     8  58    5.0341   432.4    6.812      37.634
2015    5        6     9   4    5.0359   432.5    6.813      37.647
2015    5        6     9   9    5.0377   432.5    6.814      37.661
2015    5        6     9  15    5.0395   432.5    6.815      37.675
2015    5        6     9  21    5.0413   432.5    6.816      37.689
2015    5        6     9  26    5.0431   432.5    6.817      37.703
2015    5        6     9  32    5.0449   432.5    6.818      37.718
2015    5        6     9  38    5.0468   432.5    6.820      37.733
2015    5        6     9  43    5.0486   432.6    6.821      37.748
2015    5        6     9  49    5.0504   432.6    6.823      37.764
2015    5        6     9  55    5.0523   432.6    6.825      37.781
2015    5        6    10   0    5.0542   432.6    6.827      37.798
2015    5        6    10   6    5.0561   432.6    6.829      37.816
2015    5        6    10  12    5.0580   432.6    6.832      37.834
2015    5        6    10  18    5.0599   432.7    6.834      37.852
2015    5        6    10  23    5.0618   432.7    6.837      37.871
2015    5        6    10  29    5.0638   432.7    6.840      37.891
2015    5        6    10  35    5.0657   432.7    6.843      37.912
2015    5        6    10  40    5.0675   432.7    6.846      37.935
2015    5        6    10  46    5.0694   432.8    6.849      37.958
2015    5        6    10  52    5.0712   432.8    6.853      37.982
2015    5        6    10  57    5.0730   432.8    6.856      38.006
2015    5        6    11   3    5.0747   432.8    6.859      38.032
2015    5        6    11   9    5.0765   432.9    6.861      38.058
2015    5        6    11  14    5.0782   432.9    6.864      38.083
2015    5        6    11  20    5.0798   432.9    6.867      38.109
2015    5        6    11  26    5.0815   433.0    6.870      38.134
2015    5        6    11  32    5.0831   433.0    6.872      38.159
2015    5        6    11  37    5.0847   433.0    6.875      38.184
2015    5        6    11  43    5.0862   433.0    6.877      38.209
2015    5        6    11  49    5.0878   433.1    6.879      38.233
2015    5        6    11  54    5.0893   433.1    6.881      38.257
2015    5        6    12   0    5.0908   433.1    6.883      38.281
2015    5        6    12   6    5.0923   433.2    6.884      38.305
2015    5        6    12  11    5.0937   433.2    6.886      38.328
2015    5        6    12  17    5.0951   433.3    6.887      38.351
2015    5        6    12  23    5.0965   433.3    6.888      38.373
2015    5        6    12  28    5.0979   433.3    6.889      38.394
2015    5        6    12  34    5.0992   433.4    6.890      38.414
2015    5        6    12  40    5.1005   433.4    6.891      38.434
2015    5        6    12  46    5.1018   433.4    6.892      38.454
2015    5        6    12  51    5.1031   433.5    6.892      38.473
2015    5        6    12  57    5.1044   433.5    6.892      38.491
2015    5        6    13   3    5.1056   433.5    6.893      38.509
2015    5        6    13   8    5.1068   433.6    6.893      38.526
2015    5        6    13  14    5.1079   433.6    6.893      38.543
2015    5        6    13  20    5.1091   433.6    6.893      38.559
2015    5        6    13  25    5.1102   433.7    6.892      38.575
2015    5        6    13  31    5.1113   433.7    6.892      38.590
2015    5        6    13  37    5.1124   433.8    6.892      38.605
2015    5        6    13  42    5.1135   433.8    6.891      38.620
2015    5        6    13  48    5.1146   433.8    6.891      38.634
2015    5        6    13  54    5.1156   433.9    6.890      38.648
2015    5        6    14   0    5.1166   433.9    6.889      38.661
2015    5        6    14   5    5.1176   433.9    6.888      38.674
2015    5        6    14  11    5.1186   434.0    6.888      38.687
2015    5        6    14  17    5.1196   434.0    6.887      38.700
2015    5        6    14  22    5.1205   434.1    6.886      38.712
2015    5        6    14  28    5.1214   434.1    6.885      38.724
2015    5        6    14  34    5.1223   434.1    6.884      38.736
2015    5        6    14  39    5.1232   434.2    6.882      38.747
2015    5        6    14  45    5.1240   434.2    6.881      38.758
2015    5        6    14  51    5.1249   434.3    6.880      38.769
2015    5        6    14  56    5.1257   434.3    6.879      38.779
2015    5        6    15   2    5.1265   434.3    6.877      38.790
2015    5        6    15   8    5.1273   434.4    6.876      38.800
2015    5        6    15  14    5.1280   434.4    6.874      38.810
2015    5        6    15  19    5.1288   434.4    6.873      38.819
2015    5        6    15  25    5.1295   434.5    6.871      38.829
2015    5        6    15  31    5.1302   434.5    6.870      38.838
2015    5        6    15  36    5.1309   434.6    6.868      38.847
2015    5        6    15  42    5.1316   434.6    6.867      38.856
2015    5        6    15  48    5.1322   434.6    6.865      38.865
2015    5        6    15  53    5.1329   434.7    6.864      38.874
2015    5        6    15  59    5.1335   434.7    6.862      38.883
2015    5        6    16   5    5.1341   434.7    6.860      38.892
2015    5        6    16  10    5.1348   434.8    6.859      38.900
2015    5        6    16  16    5.1353   434.8    6.857      38.909
2015    5        6    16  22    5.1360   434.8    6.856      38.918
2015    5        6    16  28    5.1365   434.9    6.855      38.926
2015    5        6    16  33    5.1371   434.9    6.853      38.935
2015    5        6    16  39    5.1377   434.9    6.852      38.944
2015    5        6    16  45    5.1383   435.0    6.851      38.953
2015    5        6    16  50    5.1388   435.0    6.849      38.963
2015    5        6    16  56    5.1394   435.0    6.848      38.973
2015    5        6    17   2    5.1399   435.1    6.847      38.983
2015    5        6    17   7    5.1405   435.1    6.846      38.994
2015    5        6    17  13    5.1410   435.1    6.845      39.005
2015    5        6    17  19    5.1416   435.2    6.844      39.017
2015    5        6    17  24    5.1421   435.2    6.843      39.029
2015    5        6    17  30    5.1426   435.2    6.842      39.041
2015    5        6    17  36    5.1432   435.3    6.841      39.052
2015    5        6    17  42    5.1437   435.3    6.840      39.065
2015    5        6    17  47    5.1442   435.4    6.839      39.077
2015    5        6    17  53    5.1447   435.4    6.839      39.090
2015    5        6    17  59    5.1451   435.4    6.838      39.103
2015    5        6    18   4    5.1455   435.5    6.837      39.117
2015    5        6    18  10    5.1459   435.5    6.836      39.131
2015    5        6    18  16    5.1463   435.6    6.835      39.145
2015    5        6    18  21    5.1466   435.6    6.834      39.159
2015    5        6    18  27    5.1470   435.6    6.834      39.173
2015    5        6    18  33    5.1473   435.7    6.833      39.187
2015    5        6    18  38    5.1476   435.7    6.831      39.201
2015    5        6    18  44    5.1479   435.8    6.830      39.214
2015    5        6    18  50    5.1481   435.8    6.829      39.228
2015    5        6    18  56    5.1483   435.8    6.828      39.242
2015    5        6    19   1    5.1486   435.9    6.827      39.255
2015    5        6    19   7    5.1487   435.9    6.825      39.269
2015    5        6    19  13    5.1489   436.0    6.824      39.282
2015    5        6    19  18    5.1491   436.0    6.822      39.296
2015    5        6    19  24    5.1492   436.1    6.821      39.309
2015    5        6    19  30    5.1493   436.1    6.819      39.321
2015    5        6    19  35    5.1493   436.2    6.817      39.333
2015    5        6    19  41    5.1494   436.2    6.815      39.345
2015    5        6    19  47    5.1494   436.3    6.813      39.356
2015    5        6    19  52    5.1493   436.3    6.811      39.367
2015    5        6    19  58    5.1493   436.4    6.808      39.377
2015    5        6    20   4    5.1492   436.4    6.806      39.387
2015    5        6    20  10    5.1491   436.4    6.803      39.396
2015    5        6    20  15    5.1490   436.5    6.801      39.405
2015    5        6    20  21    5.1488   436.5    6.798      39.414
2015    5        6    20  27    5.1486   436.6    6.795      39.422
2015    5        6    20  32    5.1484   436.6    6.793      39.431
2015    5        6    20  38    5.1482   436.7    6.790      39.438
2015    5        6    20  44    5.1480   436.7    6.787      39.446
2015    5        6    20  49    5.1477   436.8    6.784      39.453
2015    5        6    20  55    5.1474   436.8    6.781      39.459
2015    5        6    21   1    5.1471   436.9    6.778      39.466
2015    5        6    21   6    5.1467   436.9    6.775      39.472
2015    5        6    21  12    5.1464   437.0    6.772      39.478
2015    5        6    21  18    5.1460   437.0    6.769      39.484
2015    5        6    21  24    5.1456   437.0    6.765      39.489
2015    5        6    21  29    5.1452   437.1    6.762      39.494
2015    5        6    21  35    5.1448   437.1    6.759      39.499
2015    5        6    21  41    5.1443   437.2    6.755      39.503
2015    5        6    21  46    5.1438   437.2    6.752      39.508
2015    5        6    21  52    5.1433   437.3    6.748      39.512
2015    5        6    21  58    5.1428   437.3    6.745      39.516
2015    5        6    22   3    5.1423   437.3    6.741      39.519
2015    5        6    22   9    5.1417   437.4    6.738      39.523
2015    5        6    22  15    5.1412   437.4    6.734      39.526
2015    5        6    22  20    5.1406   437.5    6.731      39.529
2015    5        6    22  26    5.1400   437.5    6.727      39.532
2015    5        6    22  32    5.1394   437.5    6.723      39.534
2015    5        6    22  38    5.1387   437.6    6.720      39.536
2015    5        6    22  43    5.1381   437.6    6.716      39.539
2015    5        6    22  49    5.1375   437.7    6.713      39.541
2015    5        6    22  55    5.1368   437.7    6.709      39.543
2015    5        6    23   0    5.1361   437.7    6.705      39.544
2015    5        6    23   6    5.1354   437.8    6.702      39.547
2015    5        6    23  12    5.1347   437.8    6.698      39.549
2015    5        6    23  17    5.1340   437.9    6.694      39.551
2015    5        6    23  23    5.1333   437.9    6.690      39.553
2015    5        6    23  29    5.1325   437.9    6.687      39.555
2015    5        6    23  34    5.1318   438.0    6.683      39.557
2015    5        6    23  40    5.1310   438.0    6.679      39.559
2015    5        6    23  46    5.1302   438.0    6.675      39.561
2015    5        6    23  52    5.1293   438.1    6.671      39.563
2015    5        6    23  57    5.1285   438.1    6.667      39.566
2015    5        7     0   3    5.1276   438.2    6.664      39.568
2015    5        7     0   9    5.1267   438.2    6.660      39.571
2015    5        7     0  14    5.1258   438.2    6.656      39.573
2015    5        7     0  20    5.1248   438.3    6.651      39.575
2015    5        7     0  26    5.1238   438.3    6.647      39.578
2015    5        7     0  31    5.1228   438.3    6.643      39.580
2015    5        7     0  37    5.1218   438.4    6.639      39.581
2015    5        7     0  43    5.1208   438.4    6.634      39.582
2015    5        7     0  48    5.1197   438.4    6.630      39.583
2015    5        7     0  54    5.1186   438.5    6.625      39.583
2015    5        7     1   0    5.1175   438.5    6.620      39.583
2015    5        7     1   6    5.1164   438.6    6.616      39.583
2015    5        7     1  11    5.1152   438.6    6.611      39.583
2015    5        7     1  17    5.1141   438.6    6.606      39.581
2015    5        7     1  23    5.1129   438.7    6.601      39.580
2015    5        7     1  28    5.1117   438.7    6.596      39.578
2015    5        7     1  34    5.1105   438.7    6.591      39.576
2015    5        7     1  40    5.1092   438.7    6.586      39.574
2015    5        7     1  45    5.1079   438.8    6.581      39.571
2015    5        7     1  51    5.1067   438.8    6.576      39.568
2015    5        7     1  57    5.1054   438.8    6.571      39.565
2015    5        7     2   2    5.1041   438.9    6.566      39.561
2015    5        7     2   8    5.1028   438.9    6.561      39.557
2015    5        7     2  14    5.1014   438.9    6.555      39.553
2015    5        7     2  20    5.1001   439.0    6.550      39.549
2015    5        7     2  25    5.0987   439.0    6.545      39.544
2015    5        7     2  31    5.0974   439.0    6.539      39.539
2015    5        7     2  37    5.0960   439.0    6.534      39.534
2015    5        7     2  42    5.0946   439.1    6.529      39.529
2015    5        7     2  48    5.0932   439.1    6.523      39.523
2015    5        7     2  54    5.0918   439.1    6.518      39.517
2015    5        7     2  59    5.0903   439.1    6.512      39.511
2015    5        7     3   5    5.0889   439.2    6.507      39.505
2015    5        7     3  11    5.0874   439.2    6.501      39.499
2015    5        7     3  16    5.0860   439.2    6.496      39.492
2015    5        7     3  22    5.0845   439.2    6.490      39.486
2015    5        7     3  28    5.0830   439.3    6.485      39.479
2015    5        7     3  34    5.0815   439.3    6.479      39.472
2015    5        7     3  39    5.0800   439.3    6.474      39.465
2015    5        7     3  45    5.0785   439.3    6.468      39.458
2015    5        7     3  51    5.0770   439.3    6.463      39.450
2015    5        7     3  56    5.0754   439.4    6.457      39.443
2015    5        7     4   2    5.0739   439.4    6.452      39.435
2015    5        7     4   8    5.0723   439.4    6.447      39.428
2015    5        7     4  13    5.0707   439.4    6.441      39.420
2015    5        7     4  19    5.0692   439.4    6.436      39.412
2015    5        7     4  25    5.0676   439.5    6.430      39.404
2015    5        7     4  30    5.0660   439.5    6.425      39.395
2015    5        7     4  36    5.0644   439.5    6.419      39.387
2015    5        7     4  42    5.0628   439.5    6.414      39.379
2015    5        7     4  48    5.0611   439.5    6.408      39.370
2015    5        7     4  53    5.0595   439.5    6.403      39.362
2015    5        7     4  59    5.0579   439.6    6.397      39.353
2015    5        7     5   5    5.0562   439.6    6.392      39.345
2015    5        7     5  10    5.0546   439.6    6.387      39.336
2015    5        7     5  16    5.0529   439.6    6.381      39.328
2015    5        7     5  22    5.0513   439.6    6.376      39.319
2015    5        7     5  27    5.0496   439.6    6.370      39.310
2015    5        7     5  33    5.0480   439.6    6.365      39.302
2015    5        7     5  39    5.0463   439.6    6.360      39.293
2015    5        7     5  44    5.0447   439.7    6.355      39.284
2015    5        7     5  50    5.0430   439.7    6.350      39.276
2015    5        7     5  56    5.0414   439.7    6.344      39.267
2015    5        7     6   2    5.0397   439.7    6.339      39.259
2015    5        7     6   7    5.0381   439.7    6.334      39.251
2015    5        7     6  13    5.0365   439.7    6.330      39.242
2015    5        7     6  19    5.0349   439.7    6.325      39.234
2015    5        7     6  24    5.0333   439.7    6.320      39.226
2015    5        7     6  30    5.0317   439.7    6.315      39.218
2015    5        7     6  36    5.0301   439.7    6.310      39.211
2015    5        7     6  41    5.0286   439.8    6.306      39.203
2015    5        7     6  47    5.0270   439.8    6.301      39.196
2015    5        7     6  53    5.0255   439.8    6.297      39.189
2015    5        7     6  58    5.0240   439.8    6.292      39.183
2015    5        7     7   4    5.0225   439.8    6.288      39.177
2015    5        7     7  10    5.0210   439.8    6.284      39.171
2015    5        7     7  16    5.0194   439.8    6.279      39.166
2015    5        7     7  21    5.0180   439.8    6.275      39.160
2015    5        7     7  27    5.0165   439.8    6.271      39.155
2015    5        7     7  33    5.0150   439.8    6.267      39.150
2015    5        7     7  38    5.0136   439.8    6.263      39.145
2015    5        7     7  44    5.0121   439.8    6.259      39.140
2015    5        7     7  50    5.0107   439.8    6.255      39.135
2015    5        7     7  55    5.0092   439.8    6.251      39.130
2015    5        7     8   1    5.0078   439.8    6.247      39.125
2015    5        7     8   7    5.0063   439.8    6.243      39.120
2015    5        7     8  12    5.0049   439.8    6.239      39.115
2015    5        7     8  18    5.0035   439.9    6.235      39.109
2015    5        7     8  24    5.0020   439.9    6.232      39.104
2015    5        7     8  30    5.0005   439.9    6.228      39.099
2015    5        7     8  35    4.9991   439.9    6.224      39.093
2015    5        7     8  41    4.9976   439.9    6.220      39.088
2015    5        7     8  47    4.9961   439.9    6.217      39.082
2015    5        7     8  52    4.9946   439.9    6.213      39.076
2015    5        7     8  58    4.9930   439.9    6.209      39.069
2015    5        7     9   4    4.9915   439.9    6.206      39.062
2015    5        7     9   9    4.9899   439.9    6.202      39.055
2015    5        7     9  15    4.9883   439.9    6.198      39.047
2015    5        7     9  21    4.9867   439.8    6.194      39.039
2015    5        7     9  26    4.9851   439.8    6.191      39.030
2015    5        7     9  32    4.9834   439.8    6.187      39.022
2015    5        7     9  38    4.9818   439.8    6.183      39.012
2015    5        7     9  44    4.9802   439.8    6.179      39.003
2015    5        7     9  49    4.9785   439.8    6.175      38.993
2015    5        7     9  55    4.9768   439.8    6.172      38.983
2015    5        7    10   1    4.9751   439.8    6.168      38.972
2015    5        7    10   6    4.9734   439.8    6.164      38.962
2015    5        7    10  12    4.9718   439.8    6.160      38.951
2015    5        7    10  18    4.9701   439.7    6.156      38.940
2015    5        7    10  23    4.9684   439.7    6.152      38.929
2015    5        7    10  29    4.9667   439.7    6.148      38.917
2015    5        7    10  35    4.9649   439.7    6.144      38.906
2015    5        7    10  40    4.9632   439.7    6.140      38.894
2015    5        7    10  46    4.9615   439.7    6.137      38.882
2015    5        7    10  52    4.9598   439.7    6.133      38.869
2015    5        7    10  58    4.9581   439.6    6.129      38.857
2015    5        7    11   3    4.9563   439.6    6.125      38.844
2015    5        7    11   9    4.9546   439.6    6.121      38.831
2015    5        7    11  15    4.9528   439.6    6.117      38.818
2015    5        7    11  20    4.9511   439.6    6.113      38.805
2015    5        7    11  26    4.9493   439.5    6.109      38.791
2015    5        7    11  32    4.9476   439.5    6.105      38.778
2015    5        7    11  37    4.9459   439.5    6.101      38.764
2015    5        7    11  43    4.9441   439.5    6.097      38.750
2015    5        7    11  49    4.9424   439.4    6.093      38.736
2015    5        7    11  54    4.9406   439.4    6.089      38.722
2015    5        7    12   0    4.9389   439.4    6.085      38.708
2015    5        7    12   6    4.9371   439.4    6.082      38.693
2015    5        7    12  12    4.9354   439.3    6.078      38.679
2015    5        7    12  17    4.9337   439.3    6.074      38.664
2015    5        7    12  23    4.9320   439.3    6.070      38.650
2015    5        7    12  29    4.9302   439.3    6.066      38.635
2015    5        7    12  34    4.9285   439.2    6.062      38.620
2015    5        7    12  40    4.9268   439.2    6.058      38.606
2015    5        7    12  46    4.9251   439.2    6.055      38.591
2015    5        7    12  51    4.9234   439.1    6.051      38.576
2015    5        7    12  57    4.9218   439.1    6.047      38.562
2015    5        7    13   3    4.9201   439.1    6.044      38.547
2015    5        7    13   8    4.9185   439.1    6.040      38.533
2015    5        7    13  14    4.9169   439.0    6.037      38.519
2015    5        7    13  20    4.9153   439.0    6.034      38.505
2015    5        7    13  26    4.9137   439.0    6.030      38.492
2015    5        7    13  31    4.9121   438.9    6.027      38.479
2015    5        7    13  37    4.9106   438.9    6.024      38.466
2015    5        7    13  43    4.9091   438.9    6.021      38.453
2015    5        7    13  48    4.9077   438.8    6.018      38.441
2015    5        7    13  54    4.9062   438.8    6.016      38.430
2015    5        7    14   0    4.9048   438.8    6.013      38.419
2015    5        7    14   5    4.9035   438.7    6.011      38.409
2015    5        7    14  11    4.9022   438.7    6.009      38.399
2015    5        7    14  17    4.9009   438.7    6.007      38.390
2015    5        7    14  22    4.8997   438.6    6.005      38.381
2015    5        7    14  28    4.8985   438.6    6.003      38.373
2015    5        7    14  34    4.8973   438.6    6.001      38.367
2015    5        7    14  40    4.8962   438.5    6.000      38.360
2015    5        7    14  45    4.8952   438.5    5.999      38.355
2015    5        7    14  51    4.8942   438.5    5.998      38.350
2015    5        7    14  57    4.8932   438.4    5.997      38.346
2015    5        7    15   2    4.8923   438.4    5.996      38.343
2015    5        7    15   8    4.8914   438.4    5.996      38.340
2015    5        7    15  14    4.8906   438.3    5.996      38.339
2015    5        7    15  19    4.8898   438.3    5.996      38.338
2015    5        7    15  25    4.8890   438.3    5.996      38.338
2015    5        7    15  31    4.8883   438.3    5.996      38.338
2015    5        7    15  36    4.8876   438.2    5.996      38.339
2015    5        7    15  42    4.8868   438.2    5.997      38.341
2015    5        7    15  48    4.8861   438.2    5.998      38.344
2015    5        7    15  54    4.8855   438.2    5.998      38.347
2015    5        7    15  59    4.8848   438.1    5.999      38.350
2015    5        7    16   5    4.8841   438.1    6.000      38.353
2015    5        7    16  11    4.8834   438.1    6.001      38.357
2015    5        7    16  16    4.8827   438.1    6.002      38.360
2015    5        7    16  22    4.8821   438.1    6.004      38.364
2015    5        7    16  28    4.8814   438.0    6.005      38.367
2015    5        7    16  33    4.8807   438.0    6.006      38.370
2015    5        7    16  39    4.8800   438.0    6.007      38.373
2015    5        7    16  45    4.8793   438.0    6.008      38.375
2015    5        7    16  50    4.8785   437.9    6.009      38.378
2015    5        7    16  56    4.8778   437.9    6.010      38.380
2015    5        7    17   2    4.8770   437.9    6.011      38.382
2015    5        7    17   8    4.8763   437.9    6.012      38.384
2015    5        7    17  13    4.8755   437.9    6.013      38.386
2015    5        7    17  19    4.8747   437.8    6.014      38.387
2015    5        7    17  25    4.8739   437.8    6.015      38.389
2015    5        7    17  30    4.8730   437.8    6.016      38.389
2015    5        7    17  36    4.8722   437.8    6.017      38.390
2015    5        7    17  42    4.8713   437.7    6.018      38.391
2015    5        7    17  47    4.8704   437.7    6.019      38.391
2015    5        7    17  53    4.8694   437.7    6.020      38.391
2015    5        7    17  59    4.8685   437.7    6.021      38.390
2015    5        7    18   4    4.8676   437.6    6.022      38.389
2015    5        7    18  10    4.8666   437.6    6.022      38.388
2015    5        7    18  16    4.8656   437.6    6.023      38.386
2015    5        7    18  22    4.8646   437.5    6.024      38.385
2015    5        7    18  27    4.8636   437.5    6.024      38.382
2015    5        7    18  33    4.8626   437.5    6.025      38.380
2015    5        7    18  39    4.8616   437.5    6.025      38.377
2015    5        7    18  44    4.8605   437.4    6.026      38.374
2015    5        7    18  50    4.8595   437.4    6.026      38.371
2015    5        7    18  56    4.8584   437.4    6.027      38.367
2015    5        7    19   1    4.8574   437.3    6.027      38.363
2015    5        7    19   7    4.8563   437.3    6.027      38.359
2015    5        7    19  13    4.8552   437.3    6.028      38.354
2015    5        7    19  18    4.8541   437.2    6.028      38.349
2015    5        7    19  24    4.8531   437.2    6.028      38.344
2015    5        7    19  30    4.8520   437.2    6.029      38.339
2015    5        7    19  36    4.8509   437.1    6.029      38.334
2015    5        7    19  41    4.8498   437.1    6.029      38.328
2015    5        7    19  47    4.8487   437.1    6.029      38.322
2015    5        7    19  53    4.8475   437.0    6.029      38.316
2015    5        7    19  58    4.8464   437.0    6.029      38.310
2015    5        7    20   4    4.8453   437.0    6.029      38.304
2015    5        7    20  10    4.8442   436.9    6.029      38.298
2015    5        7    20  15    4.8431   436.9    6.029      38.291
2015    5        7    20  21    4.8419   436.9    6.029      38.284
2015    5        7    20  27    4.8408   436.8    6.029      38.277
2015    5        7    20  32    4.8397   436.8    6.029      38.270
2015    5        7    20  38    4.8386   436.8    6.029      38.263
2015    5        7    20  44    4.8374   436.7    6.029      38.256
2015    5        7    20  50    4.8363   436.7    6.029      38.249
2015    5        7    20  55    4.8352   436.6    6.029      38.241
2015    5        7    21   1    4.8341   436.6    6.029      38.233
2015    5        7    21   7    4.8330   436.6    6.029      38.226
2015    5        7    21  12    4.8318   436.5    6.029      38.218
2015    5        7    21  18    4.8307   436.5    6.028      38.210
2015    5        7    21  24    4.8296   436.5    6.028      38.202
2015    5        7    21  29    4.8285   436.4    6.028      38.193
2015    5        7    21  35    4.8274   436.4    6.028      38.185
2015    5        7    21  41    4.8263   436.3    6.028      38.177
2015    5        7    21  46    4.8253   436.3    6.027      38.168
2015    5        7    21  52    4.8242   436.3    6.027      38.160
2015    5        7    21  58    4.8231   436.2    6.027      38.151
2015    5        7    22   4    4.8221   436.2    6.027      38.142
2015    5        7    22   9    4.8211   436.1    6.026      38.134
2015    5        7    22  15    4.8200   436.1    6.026      38.125
2015    5        7    22  21    4.8190   436.1    6.026      38.116
2015    5        7    22  26    4.8180   436.0    6.025      38.107
2015    5        7    22  32    4.8170   436.0    6.025      38.099
2015    5        7    22  38    4.8161   435.9    6.025      38.090
2015    5        7    22  43    4.8151   435.9    6.025      38.081
2015    5        7    22  49    4.8142   435.9    6.024      38.072
2015    5        7    22  55    4.8133   435.8    6.024      38.064
2015    5        7    23   0    4.8124   435.8    6.024      38.055
2015    5        7    23   6    4.8115   435.7    6.024      38.046
2015    5        7    23  12    4.8106   435.7    6.024      38.038
2015    5        7    23  18    4.8098   435.7    6.023      38.029
2015    5        7    23  23    4.8090   435.6    6.023      38.021
2015    5        7    23  29    4.8082   435.6    6.023      38.013
2015    5        7    23  35    4.8074   435.5    6.023      38.005
2015    5        7    23  40    4.8067   435.5    6.023      37.996
2015    5        7    23  46    4.8059   435.5    6.023      37.988
2015    5        7    23  52    4.8052   435.4    6.023      37.980
2015    5        7    23  57    4.8046   435.4    6.023      37.973
2015    5        8     0   3    4.8039   435.3    6.023      37.965
2015    5        8     0   9    4.8033   435.3    6.024      37.957
2015    5        8     0  14    4.8027   435.2    6.024      37.950
2015    5        8     0  20    4.8021   435.2    6.024      37.943
2015    5        8     0  26    4.8015   435.2    6.024      37.936
2015    5        8     0  32    4.8010   435.1    6.025      37.929
2015    5        8     0  37    4.8005   435.1    6.025      37.922
2015    5        8     0  43    4.7999   435.0    6.025      37.915
2015    5        8     0  49    4.7994   435.0    6.026      37.908
2015    5        8     0  54    4.7989   435.0    6.026      37.902
2015    5        8     1   0    4.7984   434.9    6.027      37.895
2015    5        8     1   6    4.7980   434.9    6.027      37.888
2015    5        8     1  11    4.7975   434.8    6.028      37.882
2015    5        8     1  17    4.7971   434.8    6.028      37.875
2015    5        8     1  23    4.7966   434.8    6.028      37.868
2015    5        8     1  28    4.7962   434.7    6.029      37.861
2015    5        8     1  34    4.7958   434.7    6.029      37.854
2015    5        8     1  40    4.7955   434.6    6.030      37.847
2015    5        8     1  46    4.7951   434.6    6.031      37.841
2015    5        8     1  51    4.7947   434.6    6.031      37.834
2015    5        8     1  57    4.7944   434.5    6.032      37.827
2015    5        8     2   3    4.7941   434.5    6.032      37.821
2015    5        8     2   8    4.7937   434.4    6.033      37.815
2015    5        8     2  14    4.7934   434.4    6.033      37.808
2015    5        8     2  20    4.7931   434.4    6.034      37.802
2015    5        8     2  25    4.7927   434.3    6.035      37.797
2015    5        8     2  31    4.7924   434.3    6.035      37.791
2015    5        8     2  37    4.7921   434.2    6.036      37.785
2015    5        8     2  42    4.7918   434.2    6.037      37.779
2015    5        8     2  48    4.7915   434.2    6.037      37.773
2015    5        8     2  54    4.7911   434.1    6.038      37.767
2015    5        8     3   0    4.7908   434.1    6.038      37.762
2015    5        8     3   5    4.7905   434.0    6.039      37.756
2015    5        8     3  11    4.7902   434.0    6.040      37.750
2015    5        8     3  17    4.7899   434.0    6.040      37.744
2015    5        8     3  22    4.7895   433.9    6.041      37.738
2015    5        8     3  28    4.7892   433.9    6.042      37.732
2015    5        8     3  34    4.7889   433.8    6.042      37.726
2015    5        8     3  39    4.7886   433.8    6.043      37.720
2015    5        8     3  45    4.7882   433.7    6.043      37.714
2015    5        8     3  51    4.7879   433.7    6.044      37.708
2015    5        8     3  56    4.7876   433.7    6.044      37.702
2015    5        8     4   2    4.7872   433.6    6.045      37.695
2015    5        8     4   8    4.7869   433.6    6.045      37.688
2015    5        8     4  14    4.7865   433.5    6.045      37.682
2015    5        8     4  19    4.7862   433.5    6.046      37.675
2015    5        8     4  25    4.7858   433.4    6.046      37.668
2015    5        8     4  31    4.7855   433.4    6.046      37.661
2015    5        8     4  36    4.7851   433.3    6.047      37.654
2015    5        8     4  42    4.7848   433.3    6.047      37.647
2015    5        8     4  48    4.7844   433.3    6.047      37.639
2015    5        8     4  53    4.7841   433.2    6.047      37.631
2015    5        8     4  59    4.7838   433.2    6.047      37.623
2015    5        8     5   5    4.7835   433.1    6.048      37.615
2015    5        8     5  10    4.7831   433.1    6.048      37.607
2015    5        8     5  16    4.7828   433.0    6.048      37.599
2015    5        8     5  22    4.7825   433.0    6.048      37.590
2015    5        8     5  28    4.7822   432.9    6.048      37.582
2015    5        8     5  33    4.7819   432.9    6.047      37.573
2015    5        8     5  39    4.7816   432.8    6.047      37.564
2015    5        8     5  45    4.7813   432.8    6.047      37.555
2015    5        8     5  50    4.7811   432.7    6.047      37.545
2015    5        8     5  56    4.7808   432.7    6.047      37.536
2015    5        8     6   2    4.7806   432.6    6.047      37.526
2015    5        8     6   7    4.7803   432.6    6.046      37.517
2015    5        8     6  13    4.7801   432.5    6.046      37.507
2015    5        8     6  19    4.7799   432.5    6.046      37.497
2015    5        8     6  24    4.7797   432.4    6.046      37.486
2015    5        8     6  30    4.7795   432.4    6.045      37.476
2015    5        8     6  36    4.7794   432.3    6.045      37.465
2015    5        8     6  42    4.7792   432.3    6.045      37.455
2015    5        8     6  47    4.7791   432.2    6.044      37.444
2015    5        8     6  53    4.7790   432.2    6.044      37.433
2015    5        8     6  59    4.7789   432.1    6.044      37.422
2015    5        8     7   4    4.7788   432.1    6.043      37.410
2015    5        8     7  10    4.7787   432.0    6.043      37.399
2015    5        8     7  16    4.7787   432.0    6.043      37.388
2015    5        8     7  21    4.7787   431.9    6.043      37.377
2015    5        8     7  27    4.7787   431.9    6.042      37.365
2015    5        8     7  33    4.7787   431.8    6.042      37.354
2015    5        8     7  38    4.7787   431.8    6.042      37.343
2015    5        8     7  44    4.7788   431.7    6.042      37.331
2015    5        8     7  50    4.7789   431.7    6.042      37.320
2015    5        8     7  56    4.7790   431.6    6.042      37.309
2015    5        8     8   1    4.7791   431.6    6.042      37.298
2015    5        8     8   7    4.7793   431.5    6.042      37.286
2015    5        8     8  13    4.7795   431.4    6.042      37.276
2015    5        8     8  18    4.7797   431.4    6.042      37.265
2015    5        8     8  24    4.7799   431.3    6.043      37.254
2015    5        8     8  30    4.7802   431.3    6.043      37.244
2015    5        8     8  35    4.7805   431.2    6.043      37.233
2015    5        8     8  41    4.7808   431.2    6.044      37.223
2015    5        8     8  47    4.7811   431.1    6.045      37.214
2015    5        8     8  52    4.7814   431.1    6.045      37.204
2015    5        8     8  58    4.7817   431.0    6.046      37.194
2015    5        8     9   4    4.7821   431.0    6.047      37.185
2015    5        8     9  10    4.7824   430.9    6.048      37.176
2015    5        8     9  15    4.7828   430.9    6.049      37.168
2015    5        8     9  21    4.7832   430.8    6.050      37.159
2015    5        8     9  27    4.7836   430.8    6.052      37.151
2015    5        8     9  32    4.7840   430.7    6.053      37.143
2015    5        8     9  38    4.7844   430.7    6.055      37.135
2015    5        8     9  44    4.7848   430.6    6.056      37.127
2015    5        8     9  49    4.7853   430.6    6.058      37.120
2015    5        8     9  55    4.7857   430.5    6.059      37.113
2015    5        8    10   1    4.7861   430.5    6.061      37.106
2015    5        8    10   6    4.7865   430.4    6.063      37.099
2015    5        8    10  12    4.7869   430.4    6.065      37.093
2015    5        8    10  18    4.7873   430.3    6.067      37.087
2015    5        8    10  24    4.7877   430.3    6.069      37.080
2015    5        8    10  29    4.7881   430.2    6.071      37.074
2015    5        8    10  35    4.7885   430.1    6.073      37.068
2015    5        8    10  41    4.7890   430.1    6.075      37.063
2015    5        8    10  46    4.7894   430.0    6.077      37.057
2015    5        8    10  52    4.7898   430.0    6.079      37.052
2015    5        8    10  58    4.7902   429.9    6.082      37.046
2015    5        8    11   3    4.7906   429.9    6.084      37.041
2015    5        8    11   9    4.7911   429.8    6.086      37.036
2015    5        8    11  15    4.7915   429.8    6.088      37.031
2015    5        8    11  20    4.7919   429.7    6.091      37.026
2015    5        8    11  26    4.7924   429.7    6.093      37.022
2015    5        8    11  32    4.7928   429.6    6.095      37.017
2015    5        8    11  38    4.7933   429.5    6.098      37.013
2015    5        8    11  43    4.7938   429.5    6.100      37.009
2015    5        8    11  49    4.7943   429.4    6.102      37.005
2015    5        8    11  55    4.7948   429.4    6.105      37.001
2015    5        8    12   0    4.7953   429.3    6.107      36.997
2015    5        8    12   6    4.7959   429.3    6.109      36.993
2015    5        8    12  12    4.7964   429.2    6.112      36.989
2015    5        8    12  17    4.7970   429.1    6.114      36.986
2015    5        8    12  23    4.7976   429.1    6.117      36.983
2015    5        8    12  29    4.7982   429.0    6.119      36.979
2015    5        8    12  34    4.7989   429.0    6.122      36.976
2015    5        8    12  40    4.7996   428.9    6.124      36.973
2015    5        8    12  46    4.8003   428.8    6.127      36.971
2015    5        8    12  52    4.8010   428.8    6.129      36.968
2015    5        8    12  57    4.8018   428.7    6.132      36.965
2015    5        8    13   3    4.8026   428.7    6.135      36.963
2015    5        8    13   9    4.8034   428.6    6.137      36.960
2015    5        8    13  14    4.8042   428.5    6.140      36.958
2015    5        8    13  20    4.8051   428.5    6.143      36.956
2015    5        8    13  26    4.8060   428.4    6.146      36.954
2015    5        8    13  31    4.8070   428.4    6.148      36.952
2015    5        8    13  37    4.8080   428.3    6.151      36.950
2015    5        8    13  43    4.8090   428.3    6.154      36.948
2015    5        8    13  48    4.8101   428.2    6.157      36.947
2015    5        8    13  54    4.8112   428.1    6.160      36.945
2015    5        8    14   0    4.8123   428.1    6.163      36.944
2015    5        8    14   6    4.8134   428.0    6.166      36.943
2015    5        8    14  11    4.8146   428.0    6.169      36.941
2015    5        8    14  17    4.8158   427.9    6.172      36.940
2015    5        8    14  23    4.8171   427.9    6.175      36.939
2015    5        8    14  28    4.8183   427.8    6.178      36.938
2015    5        8    14  34    4.8196   427.7    6.181      36.938
2015    5        8    14  40    4.8210   427.7    6.185      36.937
2015    5        8    14  45    4.8223   427.6    6.188      36.936
2015    5        8    14  51    4.8237   427.6    6.191      36.935
2015    5        8    14  57    4.8251   427.5    6.194      36.935
2015    5        8    15   2    4.8265   427.5    6.198      36.934
2015    5        8    15   8    4.8279   427.4    6.201      36.934
2015    5        8    15  14    4.8294   427.3    6.204      36.933
2015    5        8    15  20    4.8308   427.3    6.208      36.933
2015    5        8    15  25    4.8323   427.2    6.211      36.932
2015    5        8    15  31    4.8338   427.2    6.214      36.932
2015    5        8    15  37    4.8354   427.1    6.218      36.932
2015    5        8    15  42    4.8369   427.1    6.221      36.931
2015    5        8    15  48    4.8385   427.0    6.225      36.931
2015    5        8    15  54    4.8401   427.0    6.229      36.931
2015    5        8    15  59    4.8417   426.9    6.232      36.931
2015    5        8    16   5    4.8433   426.9    6.236      36.932
2015    5        8    16  11    4.8450   426.8    6.240      36.932
2015    5        8    16  16    4.8466   426.7    6.244      36.933
2015    5        8    16  22    4.8483   426.7    6.247      36.933
2015    5        8    16  28    4.8500   426.6    6.251      36.934
2015    5        8    16  34    4.8518   426.6    6.255      36.935
2015    5        8    16  39    4.8535   426.5    6.260      36.937
2015    5        8    16  45    4.8552   426.5    6.264      36.939
2015    5        8    16  51    4.8570   426.4    6.268      36.941
2015    5        8    16  56    4.8587   426.4    6.272      36.944
2015    5        8    17   2    4.8605   426.3    6.276      36.947
2015    5        8    17   8    4.8623   426.3    6.280      36.950
2015    5        8    17  13    4.8641   426.2    6.285      36.953
2015    5        8    17  19    4.8659   426.2    6.289      36.957
2015    5        8    17  25    4.8677   426.1    6.293      36.961
2015    5        8    17  30    4.8694   426.1    6.297      36.965
2015    5        8    17  36    4.8713   426.1    6.302      36.970
2015    5        8    17  42    4.8731   426.0    6.306      36.974
2015    5        8    17  48    4.8749   426.0    6.311      36.979
2015    5        8    17  53    4.8767   425.9    6.315      36.983
2015    5        8    17  59    4.8785   425.9    6.319      36.988
2015    5        8    18   5    4.8803   425.8    6.324      36.993
2015    5        8    18  10    4.8822   425.8    6.328      36.998
2015    5        8    18  16    4.8841   425.8    6.333      37.003
2015    5        8    18  22    4.8859   425.7    6.337      37.008
2015    5        8    18  27    4.8878   425.7    6.342      37.014
2015    5        8    18  33    4.8897   425.6    6.346      37.019
2015    5        8    18  39    4.8915   425.6    6.351      37.025
2015    5        8    18  45    4.8934   425.6    6.356      37.030
2015    5        8    18  50    4.8953   425.5    6.360      37.036
2015    5        8    18  56    4.8973   425.5    6.365      37.042
2015    5        8    19   2    4.8992   425.4    6.370      37.048
2015    5        8    19   7    4.9012   425.4    6.374      37.054
2015    5        8    19  13    4.9031   425.4    6.379      37.060
2015    5        8    19  19    4.9051   425.3    6.384      37.066
2015    5        8    19  24    4.9071   425.3    6.389      37.073
2015    5        8    19  30    4.9092   425.2    6.394      37.079
2015    5        8    19  36    4.9112   425.2    6.399      37.086
2015    5        8    19  41    4.9133   425.2    6.403      37.093
2015    5        8    19  47    4.9154   425.1    6.408      37.100
2015    5        8    19  53    4.9175   425.1    6.413      37.107
2015    5        8    19  59    4.9197   425.0    6.418      37.114
2015    5        8    20   4    4.9219   425.0    6.423      37.122
2015    5        8    20  10    4.9241   425.0    6.428      37.130
2015    5        8    20  16    4.9263   424.9    6.434      37.138
2015    5        8    20  21    4.9286   424.9    6.439      37.146
2015    5        8    20  27    4.9309   424.9    6.444      37.154
2015    5        8    20  33    4.9332   424.8    6.449      37.163
2015    5        8    20  38    4.9356   424.8    6.455      37.172
2015    5        8    20  44    4.9380   424.8    6.460      37.182
2015    5        8    20  50    4.9405   424.7    6.466      37.192
2015    5        8    20  55    4.9429   424.7    6.471      37.202
2015    5        8    21   1    4.9455   424.7    6.477      37.212
2015    5        8    21   7    4.9480   424.6    6.482      37.224
2015    5        8    21  13    4.9506   424.6    6.488      37.235
2015    5        8    21  18    4.9533   424.6    6.494      37.247
2015    5        8    21  24    4.9560   424.5    6.500      37.259
2015    5        8    21  30    4.9587   424.5    6.506      37.271
2015    5        8    21  35    4.9615   424.5    6.512      37.284
2015    5        8    21  41    4.9643   424.4    6.519      37.298
2015    5        8    21  47    4.9671   424.4    6.525      37.312
2015    5        8    21  52    4.9700   424.4    6.531      37.326
2015    5        8    21  58    4.9730   424.4    6.538      37.341
2015    5        8    22   4    4.9759   424.3    6.544      37.356
2015    5        8    22   9    4.9789   424.3    6.551      37.372
2015    5        8    22  15    4.9820   424.3    6.558      37.388
2015    5        8    22  21    4.9850   424.3    6.565      37.405
2015    5        8    22  27    4.9881   424.2    6.572      37.422
2015    5        8    22  32    4.9913   424.2    6.579      37.440
2015    5        8    22  38    4.9944   424.2    6.586      37.458
2015    5        8    22  44    4.9977   424.2    6.594      37.477
2015    5        8    22  49    5.0009   424.2    6.601      37.496
2015    5        8    22  55    5.0042   424.1    6.609      37.515
2015    5        8    23   1    5.0076   424.1    6.616      37.535
2015    5        8    23   6    5.0109   424.1    6.624      37.556
2015    5        8    23  12    5.0144   424.1    6.632      37.577
2015    5        8    23  18    5.0179   424.1    6.640      37.598
2015    5        8    23  23    5.0214   424.1    6.649      37.620
2015    5        8    23  29    5.0249   424.0    6.657      37.642
2015    5        8    23  35    5.0285   424.0    6.665      37.665
2015    5        8    23  41    5.0321   424.0    6.674      37.690
2015    5        8    23  46    5.0358   424.0    6.682      37.716
2015    5        8    23  52    5.0394   424.0    6.690      37.743
2015    5        8    23  58    5.0431   424.0    6.698      37.771
2015    5        9     0   3    5.0467   424.0    6.706      37.800
2015    5        9     0   9    5.0503   424.0    6.714      37.829
2015    5        9     0  15    5.0540   424.0    6.722      37.859
2015    5        9     0  20    5.0576   424.0    6.730      37.889
2015    5        9     0  26    5.0612   424.0    6.738      37.919
2015    5        9     0  32    5.0648   424.0    6.745      37.948
2015    5        9     0  37    5.0684   424.0    6.752      37.977
2015    5        9     0  43    5.0720   424.0    6.760      38.006
2015    5        9     0  49    5.0756   424.0    6.767      38.034
2015    5        9     0  55    5.0791   424.0    6.774      38.062
2015    5        9     1   0    5.0827   424.0    6.781      38.090
2015    5        9     1   6    5.0863   424.1    6.788      38.117
2015    5        9     1  12    5.0898   424.1    6.794      38.144
2015    5        9     1  17    5.0934   424.1    6.801      38.170
2015    5        9     1  23    5.0969   424.1    6.807      38.197
2015    5        9     1  29    5.1005   424.1    6.814      38.222
2015    5        9     1  34    5.1040   424.1    6.820      38.248
2015    5        9     1  40    5.1076   424.1    6.827      38.272
2015    5        9     1  46    5.1112   424.1    6.833      38.297
2015    5        9     1  51    5.1147   424.1    6.839      38.321
2015    5        9     1  57    5.1183   424.1    6.845      38.345
2015    5        9     2   3    5.1219   424.1    6.851      38.369
2015    5        9     2   9    5.1255   424.1    6.857      38.392
2015    5        9     2  14    5.1291   424.1    6.863      38.415
2015    5        9     2  20    5.1327   424.2    6.869      38.437
2015    5        9     2  26    5.1363   424.2    6.875      38.459
2015    5        9     2  31    5.1399   424.2    6.881      38.481
2015    5        9     2  37    5.1435   424.2    6.886      38.503
2015    5        9     2  43    5.1471   424.2    6.892      38.525
2015    5        9     2  48    5.1508   424.2    6.898      38.546
2015    5        9     2  54    5.1545   424.2    6.903      38.567
2015    5        9     3   0    5.1581   424.2    6.909      38.588
2015    5        9     3   5    5.1618   424.2    6.915      38.609
2015    5        9     3  11    5.1656   424.2    6.920      38.630
2015    5        9     3  17    5.1693   424.3    6.926      38.650
2015    5        9     3  23    5.1730   424.3    6.932      38.671
2015    5        9     3  28    5.1768   424.3    6.937      38.691
2015    5        9     3  34    5.1806   424.3    6.943      38.712
2015    5        9     3  40    5.1845   424.3    6.949      38.733
2015    5        9     3  45    5.1883   424.3    6.955      38.755
2015    5        9     3  51    5.1921   424.3    6.960      38.777
2015    5        9     3  57    5.1960   424.4    6.966      38.799
2015    5        9     4   2    5.1999   424.4    6.972      38.822
2015    5        9     4   8    5.2038   424.4    6.977      38.846
2015    5        9     4  14    5.2077   424.4    6.983      38.870
2015    5        9     4  19    5.2117   424.5    6.989      38.895
2015    5        9     4  25    5.2156   424.5    6.994      38.920
2015    5        9     4  31    5.2196   424.5    7.000      38.946
2015    5        9     4  37    5.2236   424.5    7.006      38.972
2015    5        9     4  42    5.2276   424.6    7.012      38.999
2015    5        9     4  48    5.2316   424.6    7.017      39.027
2015    5        9     4  54    5.2356   424.6    7.023      39.054
2015    5        9     4  59    5.2397   424.7    7.029      39.082
2015    5        9     5   5    5.2437   424.7    7.034      39.110
2015    5        9     5  11    5.2478   424.7    7.040      39.139
2015    5        9     5  16    5.2519   424.8    7.046      39.167
2015    5        9     5  22    5.2560   424.8    7.051      39.196
2015    5        9     5  28    5.2601   424.8    7.057      39.225
2015    5        9     5  33    5.2643   424.9    7.063      39.255
2015    5        9     5  39    5.2684   424.9    7.069      39.284
2015    5        9     5  45    5.2726   425.0    7.075      39.314
2015    5        9     5  51    5.2768   425.0    7.080      39.344
2015    5        9     5  56    5.2811   425.0    7.086      39.374
2015    5        9     6   2    5.2853   425.1    7.092      39.405
2015    5        9     6   8    5.2896   425.1    7.098      39.435
2015    5        9     6  13    5.2938   425.2    7.104      39.466
2015    5        9     6  19    5.2981   425.2    7.110      39.497
2015    5        9     6  25    5.3024   425.3    7.117      39.529
2015    5        9     6  30    5.3067   425.3    7.123      39.560
2015    5        9     6  36    5.3111   425.3    7.129      39.592
2015    5        9     6  42    5.3155   425.4    7.135      39.624
2015    5        9     6  47    5.3198   425.4    7.142      39.656
2015    5        9     6  53    5.3243   425.5    7.148      39.688
2015    5        9     6  59    5.3287   425.5    7.154      39.721
2015    5        9     7   5    5.3332   425.6    7.161      39.753
2015    5        9     7  10    5.3376   425.6    7.167      39.786
2015    5        9     7  16    5.3421   425.7    7.174      39.820
2015    5        9     7  22    5.3467   425.7    7.181      39.854
2015    5        9     7  27    5.3512   425.8    7.187      39.888
2015    5        9     7  33    5.3557   425.8    7.194      39.924
2015    5        9     7  39    5.3602   425.9    7.201      39.960
2015    5        9     7  44    5.3647   426.0    7.207      39.996
2015    5        9     7  50    5.3693   426.0    7.214      40.034
2015    5        9     7  56    5.3738   426.1    7.221      40.072
2015    5        9     8   1    5.3783   426.1    7.227      40.111
2015    5        9     8   7    5.3829   426.2    7.234      40.150
2015    5        9     8  13    5.3874   426.3    7.240      40.190
2015    5        9     8  19    5.3920   426.3    7.247      40.230
2015    5        9     8  24    5.3965   426.4    7.253      40.270
2015    5        9     8  30    5.4011   426.4    7.260      40.310
2015    5        9     8  36    5.4056   426.5    7.266      40.350
2015    5        9     8  41    5.4102   426.6    7.273      40.390
2015    5        9     8  47    5.4148   426.6    7.279      40.429
2015    5        9     8  53    5.4194   426.7    7.285      40.469
2015    5        9     8  58    5.4240   426.8    7.292      40.509
2015    5        9     9   4    5.4286   426.8    7.298      40.548
2015    5        9     9  10    5.4332   426.9    7.304      40.588
2015    5        9     9  15    5.4379   427.0    7.311      40.627
2015    5        9     9  21    5.4425   427.0    7.317      40.666
2015    5        9     9  27    5.4471   427.1    7.324      40.705
2015    5        9     9  33    5.4517   427.2    7.330      40.744
2015    5        9     9  38    5.4563   427.2    7.337      40.784
2015    5        9     9  44    5.4609   427.3    7.343      40.824
2015    5        9     9  50    5.4654   427.4    7.350      40.865
2015    5        9     9  55    5.4699   427.5    7.356      40.906
2015    5        9    10   1    5.4744   427.5    7.362      40.948
2015    5        9    10   7    5.4789   427.6    7.368      40.990
2015    5        9    10  12    5.4833   427.7    7.374      41.033
2015    5        9    10  18    5.4877   427.8    7.379      41.075
2015    5        9    10  24    5.4921   427.9    7.385      41.116
2015    5        9    10  29    5.4964   427.9    7.390      41.157
2015    5        9    10  35    5.5007   428.0    7.395      41.198
2015    5        9    10  41    5.5050   428.1    7.400      41.238
2015    5        9    10  47    5.5093   428.2    7.404      41.278
2015    5        9    10  52    5.5135   428.2    7.409      41.318
2015    5        9    10  58    5.5177   428.3    7.413      41.357
2015    5        9    11   4    5.5219   428.4    7.418      41.395
2015    5        9    11   9    5.5261   428.5    7.422      41.434
2015    5        9    11  15    5.5302   428.6    7.426      41.472
2015    5        9    11  21    5.5344   428.6    7.430      41.509
2015    5        9    11  26    5.5385   428.7    7.433      41.547
2015    5        9    11  32    5.5426   428.8    7.437      41.584
2015    5        9    11  38    5.5468   428.9    7.440      41.620
2015    5        9    11  43    5.5509   429.0    7.444      41.657
2015    5        9    11  49    5.5549   429.0    7.447      41.693
2015    5        9    11  55    5.5590   429.1    7.450      41.728
2015    5        9    12   1    5.5631   429.2    7.454      41.764
2015    5        9    12   6    5.5672   429.3    7.457      41.799
2015    5        9    12  12    5.5713   429.4    7.460      41.834
2015    5        9    12  18    5.5754   429.4    7.463      41.869
2015    5        9    12  23    5.5794   429.5    7.465      41.904
2015    5        9    12  29    5.5835   429.6    7.468      41.938
2015    5        9    12  35    5.5876   429.7    7.471      41.973
2015    5        9    12  40    5.5917   429.8    7.474      42.007
2015    5        9    12  46    5.5957   429.9    7.477      42.041
2015    5        9    12  52    5.5998   429.9    7.479      42.076
2015    5        9    12  57    5.6039   430.0    7.482      42.110
2015    5        9    13   3    5.6080   430.1    7.485      42.144
2015    5        9    13   9    5.6121   430.2    7.487      42.178
2015    5        9    13  15    5.6163   430.3    7.490      42.212
2015    5        9    13  20    5.6204   430.4    7.492      42.246
2015    5        9    13  26    5.6246   430.5    7.495      42.280
2015    5        9    13  32    5.6287   430.5    7.498      42.315
2015    5        9    13  37    5.6329   430.6    7.500      42.349
2015    5        9    13  43    5.6370   430.7    7.503      42.383
2015    5        9    13  49    5.6412   430.8    7.506      42.418
2015    5        9    13  54    5.6454   430.9    7.509      42.453
2015    5        9    14   0    5.6496   431.0    7.511      42.488
2015    5        9    14   6    5.6539   431.1    7.514      42.523
2015    5        9    14  11    5.6581   431.2    7.517      42.558
2015    5        9    14  17    5.6624   431.3    7.520      42.594
2015    5        9    14  23    5.6667   431.4    7.523      42.629
2015    5        9    14  29    5.6710   431.5    7.526      42.666
2015    5        9    14  34    5.6753   431.6    7.529      42.702
2015    5        9    14  40    5.6796   431.7    7.532      42.739
2015    5        9    14  46    5.6840   431.8    7.535      42.776
2015    5        9    14  51    5.6884   431.9    7.539      42.813
2015    5        9    14  57    5.6928   432.0    7.542      42.852
2015    5        9    15   3    5.6972   432.1    7.546      42.890
2015    5        9    15   8    5.7016   432.2    7.550      42.930
2015    5        9    15  14    5.7061   432.3    7.553      42.970
2015    5        9    15  20    5.7105   432.4    7.557      43.011
2015    5        9    15  25    5.7150   432.5    7.561      43.053
2015    5        9    15  31    5.7195   432.6    7.565      43.096
2015    5        9    15  37    5.7241   432.7    7.569      43.139
2015    5        9    15  43    5.7286   432.8    7.574      43.184
2015    5        9    15  48    5.7332   433.0    7.578      43.228
2015    5        9    15  54    5.7378   433.1    7.583      43.273
2015    5        9    16   0    5.7424   433.2    7.587      43.318
2015    5        9    16   5    5.7470   433.3    7.592      43.364
2015    5        9    16  11    5.7517   433.4    7.597      43.410
2015    5        9    16  17    5.7564   433.5    7.602      43.457
2015    5        9    16  22    5.7612   433.7    7.607      43.504
2015    5        9    16  28    5.7659   433.8    7.613      43.552
2015    5        9    16  34    5.7707   433.9    7.619      43.600
2015    5        9    16  39    5.7755   434.0    7.624      43.650
2015    5        9    16  45    5.7802   434.2    7.630      43.700
2015    5        9    16  51    5.7850   434.3    7.636      43.751
2015    5        9    16  57    5.7898   434.4    7.642      43.803
2015    5        9    17   2    5.7945   434.6    7.649      43.857
2015    5        9    17   8    5.7993   434.7    7.655      43.911
2015    5        9    17  14    5.8040   434.8    7.661      43.965
2015    5        9    17  19    5.8088   435.0    7.667      44.020
2015    5        9    17  25    5.8135   435.1    7.673      44.075
2015    5        9    17  31    5.8182   435.2    7.679      44.130
2015    5        9    17  36    5.8229   435.4    7.685      44.185
2015    5        9    17  42    5.8276   435.5    7.691      44.241
2015    5        9    17  48    5.8322   435.7    7.696      44.297
2015    5        9    17  53    5.8368   435.8    7.702      44.354
2015    5        9    17  59    5.8413   436.0    7.707      44.412
2015    5        9    18   5    5.8458   436.1    7.712      44.470
2015    5        9    18  11    5.8502   436.3    7.717      44.529
2015    5        9    18  16    5.8546   436.4    7.721      44.588
2015    5        9    18  22    5.8589   436.6    7.725      44.645
2015    5        9    18  28    5.8632   436.7    7.729      44.702
2015    5        9    18  33    5.8674   436.9    7.733      44.758
2015    5        9    18  39    5.8716   437.0    7.736      44.814
2015    5        9    18  45    5.8756   437.2    7.739      44.869
2015    5        9    18  50    5.8797   437.3    7.742      44.923
2015    5        9    18  56    5.8836   437.5    7.744      44.976
2015    5        9    19   2    5.8876   437.6    7.746      45.028
2015    5        9    19   7    5.8914   437.8    7.748      45.080
2015    5        9    19  13    5.8953   438.0    7.749      45.130
2015    5        9    19  19    5.8990   438.1    7.750      45.180
2015    5        9    19  25    5.9028   438.3    7.751      45.230
2015    5        9    19  30    5.9066   438.4    7.752      45.278
2015    5        9    19  36    5.9102   438.6    7.753      45.326
2015    5        9    19  42    5.9139   438.7    7.753      45.373
2015    5        9    19  47    5.9176   438.9    7.754      45.420
2015    5        9    19  53    5.9212   439.0    7.754      45.466
2015    5        9    19  59    5.9248   439.2    7.754      45.511
2015    5        9    20   4    5.9284   439.3    7.754      45.556
2015    5        9    20  10    5.9320   439.5    7.754      45.601
2015    5        9    20  16    5.9356   439.6    7.753      45.645
2015    5        9    20  21    5.9391   439.8    7.753      45.689
2015    5        9    20  27    5.9427   439.9    7.753      45.732
2015    5        9    20  33    5.9463   440.1    7.752      45.775
2015    5        9    20  39    5.9498   440.2    7.751      45.817
2015    5        9    20  44    5.9534   440.4    7.751      45.859
2015    5        9    20  50    5.9569   440.5    7.750      45.901
2015    5        9    20  56    5.9605   440.6    7.749      45.943
2015    5        9    21   1    5.9640   440.8    7.748      45.984
2015    5        9    21   7    5.9676   440.9    7.748      46.025
2015    5        9    21  13    5.9711   441.1    7.747      46.066
2015    5        9    21  18    5.9747   441.2    7.746      46.106
2015    5        9    21  24    5.9783   441.4    7.745      46.147
2015    5        9    21  30    5.9818   441.5    7.744      46.187
2015    5        9    21  35    5.9854   441.7    7.743      46.227
2015    5        9    21  41    5.9890   441.8    7.742      46.267
2015    5        9    21  47    5.9926   442.0    7.741      46.307
2015    5        9    21  53    5.9962   442.1    7.741      46.347
2015    5        9    21  58    5.9998   442.3    7.740      46.387
2015    5        9    22   4    6.0034   442.4    7.739      46.427
2015    5        9    22  10    6.0071   442.6    7.738      46.467
2015    5        9    22  15    6.0107   442.7    7.737      46.507
2015    5        9    22  21    6.0144   442.9    7.737      46.547
2015    5        9    22  27    6.0181   443.0    7.736      46.587
2015    5        9    22  32    6.0218   443.2    7.735      46.628
2015    5        9    22  38    6.0255   443.3    7.735      46.668
2015    5        9    22  44    6.0292   443.5    7.734      46.709
2015    5        9    22  49    6.0329   443.6    7.734      46.750
2015    5        9    22  55    6.0367   443.8    7.733      46.791
2015    5        9    23   1    6.0405   443.9    7.733      46.832
2015    5        9    23   7    6.0443   444.1    7.733      46.874
2015    5        9    23  12    6.0481   444.2    7.733      46.916
2015    5        9    23  18    6.0519   444.4    7.733      46.958
2015    5        9    23  24    6.0558   444.6    7.733      47.000
2015    5        9    23  29    6.0597   444.7    7.734      47.043
2015    5        9    23  35    6.0636   444.9    7.734      47.086
2015    5        9    23  41    6.0675   445.0    7.735      47.129
2015    5        9    23  46    6.0715   445.2    7.736      47.172
2015    5        9    23  52    6.0754   445.3    7.737      47.217
2015    5        9    23  58    6.0794   445.5    7.738      47.262
2015    5       10     0   3    6.0835   445.7    7.740      47.307
2015    5       10     0   9    6.0875   445.8    7.741      47.353
2015    5       10     0  15    6.0915   446.0    7.743      47.401
2015    5       10     0  21    6.0956   446.2    7.745      47.448
2015    5       10     0  26    6.0997   446.3    7.747      47.496
2015    5       10     0  32    6.1038   446.5    7.749      47.545
2015    5       10     0  38    6.1079   446.6    7.752      47.594
2015    5       10     0  43    6.1121   446.8    7.754      47.643
2015    5       10     0  49    6.1163   447.0    7.757      47.693
2015    5       10     0  55    6.1204   447.2    7.760      47.745
2015    5       10     1   0    6.1246   447.3    7.763      47.797
2015    5       10     1   6    6.1288   447.5    7.766      47.851
2015    5       10     1  12    6.1330   447.7    7.770      47.905
2015    5       10     1  17    6.1372   447.9    7.773      47.961
2015    5       10     1  23    6.1414   448.0    7.777      48.018
2015    5       10     1  29    6.1455   448.2    7.781      48.075
2015    5       10     1  35    6.1497   448.4    7.784      48.134
2015    5       10     1  40    6.1538   448.6    7.788      48.193
2015    5       10     1  46    6.1579   448.8    7.792      48.252
2015    5       10     1  52    6.1620   449.0    7.795      48.312
2015    5       10     1  57    6.1661   449.2    7.799      48.373
2015    5       10     2   3    6.1701   449.4    7.803      48.434
2015    5       10     2   9    6.1742   449.5    7.806      48.494
2015    5       10     2  14    6.1783   449.7    7.810      48.555
2015    5       10     2  20    6.1824   449.9    7.814      48.615
2015    5       10     2  26    6.1864   450.1    7.818      48.676
2015    5       10     2  31    6.1905   450.3    7.822      48.739
2015    5       10     2  37    6.1946   450.5    7.825      48.804
2015    5       10     2  43    6.1986   450.7    7.829      48.870
2015    5       10     2  49    6.2026   450.9    7.832      48.938
2015    5       10     2  54    6.2065   451.2    7.835      49.007
2015    5       10     3   0    6.2104   451.4    7.838      49.078
2015    5       10     3   6    6.2142   451.6    7.840      49.150
2015    5       10     3  11    6.2179   451.8    7.842      49.220
2015    5       10     3  17    6.2216   452.0    7.844      49.290
2015    5       10     3  23    6.2253   452.2    7.846      49.360
2015    5       10     3  28    6.2288   452.5    7.847      49.428
2015    5       10     3  34    6.2324   452.7    7.848      49.496
2015    5       10     3  40    6.2358   452.9    7.848      49.563
2015    5       10     3  45    6.2392   453.1    7.849      49.629
2015    5       10     3  51    6.2426   453.3    7.849      49.695
2015    5       10     3  57    6.2460   453.6    7.849      49.759
2015    5       10     4   3    6.2493   453.8    7.848      49.823
2015    5       10     4   8    6.2526   454.0    7.847      49.886
2015    5       10     4  14    6.2559   454.2    7.847      49.948
2015    5       10     4  20    6.2592   454.4    7.846      50.009
2015    5       10     4  25    6.2625   454.7    7.844      50.070
2015    5       10     4  31    6.2657   454.9    7.843      50.131
2015    5       10     4  37    6.2690   455.1    7.842      50.190
2015    5       10     4  42    6.2723   455.3    7.840      50.250
2015    5       10     4  48    6.2755   455.5    7.838      50.309
2015    5       10     4  54    6.2788   455.8    7.836      50.367
2015    5       10     4  59    6.2821   456.0    7.834      50.426
2015    5       10     5   5    6.2854   456.2    7.832      50.484
2015    5       10     5  11    6.2887   456.4    7.830      50.542
2015    5       10     5  17    6.2920   456.6    7.828      50.599
2015    5       10     5  22    6.2953   456.9    7.825      50.656
2015    5       10     5  28    6.2986   457.1    7.823      50.713
2015    5       10     5  34    6.3019   457.3    7.820      50.769
2015    5       10     5  39    6.3052   457.5    7.818      50.825
2015    5       10     5  45    6.3086   457.8    7.815      50.880
2015    5       10     5  51    6.3119   458.0    7.812      50.934
2015    5       10     5  56    6.3152   458.2    7.809      50.989
2015    5       10     6   2    6.3185   458.4    7.806      51.042
2015    5       10     6   8    6.3218   458.7    7.803      51.096
2015    5       10     6  13    6.3251   458.9    7.800      51.148
2015    5       10     6  19    6.3284   459.1    7.797      51.201
2015    5       10     6  25    6.3317   459.4    7.794      51.253
2015    5       10     6  31    6.3350   459.6    7.791      51.305
2015    5       10     6  36    6.3383   459.8    7.788      51.357
2015    5       10     6  42    6.3416   460.0    7.785      51.408
2015    5       10     6  48    6.3448   460.3    7.781      51.460
2015    5       10     6  53    6.3481   460.5    7.778      51.511
2015    5       10     6  59    6.3513   460.7    7.775      51.562
2015    5       10     7   5    6.3545   461.0    7.772      51.612
2015    5       10     7  10    6.3577   461.2    7.769      51.663
2015    5       10     7  16    6.3608   461.4    7.766      51.714
2015    5       10     7  22    6.3640   461.7    7.763      51.765
2015    5       10     7  27    6.3671   461.9    7.760      51.816
2015    5       10     7  33    6.3702   462.2    7.756      51.868
2015    5       10     7  39    6.3733   462.4    7.753      51.920
2015    5       10     7  45    6.3763   462.6    7.750      51.972
2015    5       10     7  50    6.3793   462.9    7.747      52.023
2015    5       10     7  56    6.3824   463.1    7.744      52.075
2015    5       10     8   2    6.3854   463.4    7.741      52.126
2015    5       10     8   7    6.3884   463.6    7.738      52.177
2015    5       10     8  13    6.3913   463.8    7.735      52.228
2015    5       10     8  19    6.3943   464.1    7.732      52.279
2015    5       10     8  24    6.3973   464.3    7.729      52.330
2015    5       10     8  30    6.4003   464.5    7.726      52.380
2015    5       10     8  36    6.4032   464.8    7.724      52.431
2015    5       10     8  41    6.4062   465.0    7.721      52.481
2015    5       10     8  47    6.4092   465.3    7.719      52.533
2015    5       10     8  53    6.4121   465.5    7.716      52.584
2015    5       10     8  59    6.4151   465.7    7.714      52.636
2015    5       10     9   4    6.4181   466.0    7.711      52.688
2015    5       10     9  10    6.4211   466.2    7.709      52.740
2015    5       10     9  16    6.4240   466.5    7.707      52.793
2015    5       10     9  21    6.4270   466.7    7.705      52.847
2015    5       10     9  27    6.4300   466.9    7.703      52.900
2015    5       10     9  33    6.4330   467.2    7.701      52.953
2015    5       10     9  38    6.4360   467.4    7.699      53.006
2015    5       10     9  44    6.4390   467.7    7.698      53.059
2015    5       10     9  50    6.4420   467.9    7.696      53.114
2015    5       10     9  55    6.4451   468.2    7.695      53.169
2015    5       10    10   1    6.4482   468.4    7.694      53.225
2015    5       10    10   7    6.4513   468.6    7.693      53.282
2015    5       10    10  13    6.4544   468.9    7.692      53.339
2015    5       10    10  18    6.4575   469.1    7.691      53.397
2015    5       10    10  24    6.4607   469.4    7.691      53.456
2015    5       10    10  30    6.4638   469.7    7.690      53.518
2015    5       10    10  35    6.4669   469.9    7.689      53.582
2015    5       10    10  41    6.4699   470.2    7.688      53.648
2015    5       10    10  47    6.4729   470.5    7.687      53.716
2015    5       10    10  52    6.4759   470.7    7.686      53.785
2015    5       10    10  58    6.4789   471.0    7.685      53.856
2015    5       10    11   4    6.4818   471.3    7.683      53.928
2015    5       10    11   9    6.4846   471.5    7.681      53.998
2015    5       10    11  15    6.4875   471.8    7.679      54.069
2015    5       10    11  21    6.4903   472.1    7.677      54.139
2015    5       10    11  27    6.4930   472.4    7.674      54.208
2015    5       10    11  32    6.4958   472.6    7.672      54.277
2015    5       10    11  38    6.4985   472.9    7.669      54.346
2015    5       10    11  44    6.5012   473.2    7.666      54.415
2015    5       10    11  49    6.5039   473.5    7.662      54.483
2015    5       10    11  55    6.5066   473.8    7.659      54.551
2015    5       10    12   1    6.5093   474.1    7.655      54.618
2015    5       10    12   6    6.5120   474.3    7.652      54.685
2015    5       10    12  12    6.5148   474.6    7.648      54.752
2015    5       10    12  18    6.5175   474.9    7.644      54.819
2015    5       10    12  23    6.5203   475.2    7.640      54.886
2015    5       10    12  29    6.5230   475.5    7.636      54.953
2015    5       10    12  35    6.5258   475.8    7.632      55.020
2015    5       10    12  41    6.5285   476.1    7.628      55.086
2015    5       10    12  46    6.5313   476.4    7.623      55.153
2015    5       10    12  52    6.5340   476.7    7.618      55.219
2015    5       10    12  58    6.5367   477.0    7.613      55.284
2015    5       10    13   3    6.5393   477.3    7.608      55.349
2015    5       10    13   9    6.5420   477.6    7.603      55.413
2015    5       10    13  15    6.5445   477.9    7.598      55.476
2015    5       10    13  20    6.5470   478.2    7.592      55.539
2015    5       10    13  26    6.5495   478.5    7.586      55.602
2015    5       10    13  32    6.5519   478.9    7.581      55.664
2015    5       10    13  37    6.5542   479.2    7.574      55.726
2015    5       10    13  43    6.5564   479.5    7.568      55.787
2015    5       10    13  49    6.5586   479.8    7.561      55.848
2015    5       10    13  55    6.5607   480.1    7.555      55.909
2015    5       10    14   0    6.5627   480.5    7.548      55.968
2015    5       10    14   6    6.5646   480.8    7.541      56.027
2015    5       10    14  12    6.5664   481.1    7.533      56.084
2015    5       10    14  17    6.5682   481.4    7.526      56.141
2015    5       10    14  23    6.5699   481.7    7.518      56.197
2015    5       10    14  29    6.5715   482.1    7.511      56.252
2015    5       10    14  34    6.5731   482.4    7.502      56.306
2015    5       10    14  40    6.5746   482.7    7.494      56.360
2015    5       10    14  46    6.5760   483.1    7.486      56.412
2015    5       10    14  51    6.5773   483.4    7.477      56.464
2015    5       10    14  57    6.5786   483.7    7.469      56.514
2015    5       10    15   3    6.5799   484.0    7.460      56.564
2015    5       10    15   9    6.5810   484.4    7.451      56.613
2015    5       10    15  14    6.5821   484.7    7.441      56.660
2015    5       10    15  20    6.5831   485.0    7.432      56.707
2015    5       10    15  26    6.5841   485.3    7.422      56.753
2015    5       10    15  31    6.5850   485.6    7.413      56.797
2015    5       10    15  37    6.5859   486.0    7.403      56.841
2015    5       10    15  43    6.5867   486.3    7.393      56.883
2015    5       10    15  48    6.5875   486.6    7.383      56.924
2015    5       10    15  54    6.5882   486.9    7.372      56.963
2015    5       10    16   0    6.5889   487.2    7.362      57.002
2015    5       10    16   5    6.5894   487.5    7.351      57.040
2015    5       10    16  11    6.5899   487.9    7.340      57.077
2015    5       10    16  17    6.5903   488.2    7.329      57.113
2015    5       10    16  23    6.5906   488.5    7.318      57.149
2015    5       10    16  28    6.5907   488.9    7.307      57.183
2015    5       10    16  34    6.5908   489.2    7.295      57.215
2015    5       10    16  40    6.5909   489.5    7.284      57.245
2015    5       10    16  45    6.5910   489.8    7.272      57.272
2015    5       10    16  51    6.5912   490.1    7.261      57.297
2015    5       10    16  57    6.5914   490.4    7.250      57.320
2015    5       10    17   2    6.5916   490.6    7.240      57.343
2015    5       10    17   8    6.5919   490.9    7.230      57.365
2015    5       10    17  14    6.5923   491.2    7.220      57.389
2015    5       10    17  19    6.5927   491.4    7.210      57.415
2015    5       10    17  25    6.5931   491.7    7.200      57.444
2015    5       10    17  31    6.5936   491.9    7.191      57.475
2015    5       10    17  37    6.5942   492.2    7.182      57.511
2015    5       10    17  42    6.5949   492.5    7.173      57.553
2015    5       10    17  48    6.5957   492.9    7.165      57.599
2015    5       10    17  54    6.5965   493.2    7.157      57.650
2015    5       10    17  59    6.5974   493.5    7.149      57.703
2015    5       10    18   5    6.5983   493.9    7.140      57.758
2015    5       10    18  11    6.5992   494.2    7.132      57.813
2015    5       10    18  16    6.5999   494.6    7.124      57.867
2015    5       10    18  22    6.6006   494.9    7.116      57.920
2015    5       10    18  28    6.6013   495.2    7.107      57.971
2015    5       10    18  33    6.6019   495.5    7.099      58.020
2015    5       10    18  39    6.6025   495.9    7.090      58.069
2015    5       10    18  45    6.6030   496.2    7.081      58.118
2015    5       10    18  51    6.6035   496.5    7.072      58.166
2015    5       10    18  56    6.6039   496.9    7.064      58.214
2015    5       10    19   2    6.6042   497.2    7.054      58.263
2015    5       10    19   8    6.6045   497.5    7.045      58.311
2015    5       10    19  13    6.6047   497.9    7.036      58.359
2015    5       10    19  19    6.6049   498.2    7.026      58.408
2015    5       10    19  25    6.6049   498.6    7.017      58.455
2015    5       10    19  30    6.6049   498.9    7.007      58.501
2015    5       10    19  36    6.6048   499.2    6.998      58.547
2015    5       10    19  42    6.6047   499.6    6.989      58.592
2015    5       10    19  47    6.6045   499.9    6.979      58.637
2015    5       10    19  53    6.6043   500.2    6.970      58.681
2015    5       10    19  59    6.6041   500.5    6.961      58.725
2015    5       10    20   5    6.6039   500.9    6.951      58.769
2015    5       10    20  10    6.6037   501.2    6.942      58.814
2015    5       10    20  16    6.6034   501.5    6.933      58.859
2015    5       10    20  22    6.6030   501.8    6.923      58.905
2015    5       10    20  27    6.6026   502.2    6.914      58.952
2015    5       10    20  33    6.6022   502.5    6.905      59.001
2015    5       10    20  39    6.6018   502.9    6.895      59.051
2015    5       10    20  44    6.6013   503.2    6.886      59.101
2015    5       10    20  50    6.6007   503.6    6.876      59.153
2015    5       10    20  56    6.6001   503.9    6.866      59.204
2015    5       10    21   1    6.5994   504.3    6.857      59.254
2015    5       10    21   7    6.5986   504.7    6.847      59.303
2015    5       10    21  13    6.5978   505.0    6.837      59.350
2015    5       10    21  19    6.5968   505.4    6.826      59.395
2015    5       10    21  24    6.5958   505.8    6.816      59.439
2015    5       10    21  30    6.5947   506.1    6.805      59.481
2015    5       10    21  36    6.5934   506.5    6.795      59.523
2015    5       10    21  41    6.5921   506.8    6.784      59.564
2015    5       10    21  47    6.5906   507.2    6.773      59.604
2015    5       10    21  53    6.5891   507.5    6.762      59.644
2015    5       10    21  58    6.5876   507.9    6.750      59.682
2015    5       10    22   4    6.5860   508.2    6.739      59.719
2015    5       10    22  10    6.5843   508.6    6.728      59.755
2015    5       10    22  15    6.5827   508.9    6.716      59.789
2015    5       10    22  21    6.5810   509.3    6.705      59.823
2015    5       10    22  27    6.5793   509.6    6.693      59.855
2015    5       10    22  33    6.5775   509.9    6.682      59.886
2015    5       10    22  38    6.5757   510.3    6.670      59.917
2015    5       10    22  44    6.5739   510.6    6.658      59.946
2015    5       10    22  50    6.5721   510.9    6.646      59.974
2015    5       10    22  55    6.5702   511.2    6.634      60.002
2015    5       10    23   1    6.5683   511.6    6.622      60.029
2015    5       10    23   7    6.5664   511.9    6.610      60.055
2015    5       10    23  12    6.5645   512.2    6.598      60.081
2015    5       10    23  18    6.5625   512.5    6.586      60.106
2015    5       10    23  24    6.5605   512.9    6.574      60.132
2015    5       10    23  29    6.5584   513.2    6.561      60.156
2015    5       10    23  35    6.5563   513.6    6.549      60.181
2015    5       10    23  41    6.5540   513.9    6.536      60.206
2015    5       10    23  47    6.5517   514.3    6.523      60.230
2015    5       10    23  52    6.5493   514.6    6.510      60.251
2015    5       10    23  58    6.5468   515.0    6.497      60.270
2015    5       11     0   4    6.5444   515.3    6.485      60.285
2015    5       11     0   9    6.5421   515.6    6.472      60.297
2015    5       11     0  15    6.5398   515.9    6.460      60.308
2015    5       11     0  21    6.5376   516.2    6.448      60.317
2015    5       11     0  26    6.5354   516.4    6.436      60.326
2015    5       11     0  32    6.5334   516.7    6.425      60.335
2015    5       11     0  38    6.5314   517.0    6.414      60.346
2015    5       11     0  43    6.5295   517.2    6.403      60.360
2015    5       11     0  49    6.5276   517.5    6.393      60.377
2015    5       11     0  55    6.5259   517.8    6.383      60.399
2015    5       11     1   1    6.5243   518.1    6.373      60.428
2015    5       11     1   6    6.5227   518.4    6.364      60.463
2015    5       11     1  12    6.5212   518.7    6.356      60.503
2015    5       11     1  18    6.5198   519.0    6.347      60.546
2015    5       11     1  23    6.5184   519.4    6.340      60.592
2015    5       11     1  29    6.5169   519.7    6.332      60.641
2015    5       11     1  35    6.5154   520.1    6.324      60.691
2015    5       11     1  40    6.5139   520.4    6.317      60.740
2015    5       11     1  46    6.5122   520.7    6.309      60.788
2015    5       11     1  52    6.5106   521.1    6.301      60.836
2015    5       11     1  57    6.5088   521.4    6.294      60.885
2015    5       11     2   3    6.5071   521.8    6.286      60.935
2015    5       11     2   9    6.5052   522.1    6.278      60.986
2015    5       11     2  15    6.5033   522.5    6.270      61.035
2015    5       11     2  20    6.5013   522.8    6.261      61.085
2015    5       11     2  26    6.4993   523.2    6.253      61.133
2015    5       11     2  32    6.4971   523.5    6.244      61.180
2015    5       11     2  37    6.4949   523.9    6.234      61.225
2015    5       11     2  43    6.4925   524.3    6.225      61.270
2015    5       11     2  49    6.4900   524.6    6.215      61.313
2015    5       11     2  54    6.4874   525.0    6.205      61.354
2015    5       11     3   0    6.4847   525.4    6.195      61.392
2015    5       11     3   6    6.4819   525.7    6.185      61.429
2015    5       11     3  11    6.4791   526.0    6.175      61.464
2015    5       11     3  17    6.4763   526.4    6.165      61.497
2015    5       11     3  23    6.4734   526.7    6.155      61.529
2015    5       11     3  29    6.4705   527.0    6.146      61.561
2015    5       11     3  34    6.4676   527.3    6.136      61.592
2015    5       11     3  40    6.4647   527.6    6.126      61.623
2015    5       11     3  46    6.4618   528.0    6.116      61.655
2015    5       11     3  51    6.4589   528.3    6.107      61.688
2015    5       11     3  57    6.4561   528.6    6.097      61.723
2015    5       11     4   3    6.4532   529.0    6.088      61.760
2015    5       11     4   8    6.4505   529.3    6.079      61.798
2015    5       11     4  14    6.4476   529.7    6.069      61.838
2015    5       11     4  20    6.4448   530.0    6.060      61.878
2015    5       11     4  25    6.4421   530.4    6.051      61.918
2015    5       11     4  31    6.4393   530.7    6.042      61.956
2015    5       11     4  37    6.4364   531.1    6.032      61.993
2015    5       11     4  43    6.4335   531.4    6.023      62.028
2015    5       11     4  48    6.4306   531.8    6.013      62.063
2015    5       11     4  54    6.4276   532.1    6.003      62.096
2015    5       11     5   0    6.4245   532.5    5.994      62.130
2015    5       11     5   5    6.4213   532.8    5.984      62.162
2015    5       11     5  11    6.4181   533.2    5.974      62.194
2015    5       11     5  17    6.4149   533.5    5.964      62.225
2015    5       11     5  22    6.4117   533.9    5.954      62.256
2015    5       11     5  28    6.4084   534.2    5.944      62.285
2015    5       11     5  34    6.4052   534.5    5.934      62.313
2015    5       11     5  39    6.4020   534.9    5.924      62.340
2015    5       11     5  45    6.3988   535.2    5.914      62.367
2015    5       11     5  51    6.3956   535.5    5.904      62.394
2015    5       11     5  56    6.3924   535.9    5.894      62.420
2015    5       11     6   2    6.3892   536.2    5.885      62.445
2015    5       11     6   8    6.3861   536.5    5.875      62.471
2015    5       11     6  14    6.3830   536.8    5.865      62.497
2015    5       11     6  19    6.3799   537.2    5.856      62.524
2015    5       11     6  25    6.3769   537.5    5.846      62.550
2015    5       11     6  31    6.3738   537.8    5.837      62.578
2015    5       11     6  36    6.3708   538.1    5.827      62.606
2015    5       11     6  42    6.3678   538.5    5.818      62.636
2015    5       11     6  48    6.3648   538.8    5.809      62.666
2015    5       11     6  53    6.3618   539.1    5.800      62.696
2015    5       11     6  59    6.3588   539.4    5.791      62.728
2015    5       11     7   5    6.3558   539.8    5.782      62.760
2015    5       11     7  10    6.3529   540.1    5.773      62.792
2015    5       11     7  16    6.3499   540.4    5.765      62.825
2015    5       11     7  22    6.3470   540.8    5.756      62.858
2015    5       11     7  28    6.3440   541.1    5.748      62.891
2015    5       11     7  33    6.3411   541.4    5.739      62.925
2015    5       11     7  39    6.3382   541.7    5.731      62.959
2015    5       11     7  45    6.3353   542.1    5.723      62.993
2015    5       11     7  50    6.3325   542.4    5.714      63.028
2015    5       11     7  56    6.3296   542.7    5.706      63.064
2015    5       11     8   2    6.3268   543.0    5.698      63.100
2015    5       11     8   7    6.3240   543.3    5.691      63.137
2015    5       11     8  13    6.3212   543.7    5.683      63.175
2015    5       11     8  19    6.3184   544.0    5.675      63.214
2015    5       11     8  24    6.3155   544.3    5.668      63.253
2015    5       11     8  30    6.3128   544.6    5.661      63.291
2015    5       11     8  36    6.3099   544.9    5.654      63.331
2015    5       11     8  42    6.3071   545.2    5.647      63.373
2015    5       11     8  47    6.3043   545.5    5.640      63.416
2015    5       11     8  53    6.3015   545.9    5.633      63.460
2015    5       11     8  59    6.2987   546.2    5.627      63.505
2015    5       11     9   4    6.2958   546.5    5.620      63.552
2015    5       11     9  10    6.2930   546.8    5.614      63.599
2015    5       11     9  16    6.2901   547.2    5.607      63.648
2015    5       11     9  21    6.2872   547.5    5.600      63.698
2015    5       11     9  27    6.2843   547.9    5.593      63.746
2015    5       11     9  33    6.2814   548.2    5.586      63.794
2015    5       11     9  38    6.2785   548.5    5.579      63.841
2015    5       11     9  44    6.2755   548.9    5.572      63.887
2015    5       11     9  50    6.2725   549.2    5.565      63.933
2015    5       11     9  56    6.2694   549.6    5.557      63.978
2015    5       11    10   1    6.2664   549.9    5.550      64.022
2015    5       11    10   7    6.2633   550.3    5.542      64.065
2015    5       11    10  13    6.2601   550.6    5.534      64.107
2015    5       11    10  18    6.2569   551.0    5.526      64.148
2015    5       11    10  24    6.2537   551.3    5.518      64.189
2015    5       11    10  30    6.2504   551.7    5.510      64.228
2015    5       11    10  35    6.2471   552.0    5.502      64.267
2015    5       11    10  41    6.2438   552.4    5.493      64.306
2015    5       11    10  47    6.2404   552.7    5.485      64.344
2015    5       11    10  52    6.2370   553.0    5.477      64.381
2015    5       11    10  58    6.2336   553.4    5.468      64.418
2015    5       11    11   4    6.2302   553.7    5.460      64.454
2015    5       11    11  10    6.2268   554.1    5.451      64.490
2015    5       11    11  15    6.2234   554.4    5.443      64.525
2015    5       11    11  21    6.2199   554.8    5.434      64.559
2015    5       11    11  27    6.2165   555.1    5.426      64.594
2015    5       11    11  32    6.2131   555.5    5.417      64.627
2015    5       11    11  38    6.2096   555.8    5.409      64.661
2015    5       11    11  44    6.2062   556.2    5.400      64.694
2015    5       11    11  49    6.2028   556.5    5.391      64.726
2015    5       11    11  55    6.1993   556.9    5.383      64.758
2015    5       11    12   1    6.1959   557.2    5.374      64.790
2015    5       11    12   6    6.1925   557.5    5.365      64.821
2015    5       11    12  12    6.1890   557.9    5.357      64.852
2015    5       11    12  18    6.1856   558.2    5.348      64.883
2015    5       11    12  24    6.1822   558.6    5.339      64.914
2015    5       11    12  29    6.1788   558.9    5.330      64.944
2015    5       11    12  35    6.1754   559.3    5.322      64.974
2015    5       11    12  41    6.1720   559.6    5.313      65.004
2015    5       11    12  46    6.1686   559.9    5.304      65.033
2015    5       11    12  52    6.1652   560.3    5.296      65.063
2015    5       11    12  58    6.1618   560.6    5.287      65.092
2015    5       11    13   3    6.1584   560.9    5.278      65.122
2015    5       11    13   9    6.1550   561.3    5.270      65.151
2015    5       11    13  15    6.1516   561.6    5.261      65.180
2015    5       11    13  20    6.1482   562.0    5.253      65.209
2015    5       11    13  26    6.1449   562.3    5.244      65.238
2015    5       11    13  32    6.1415   562.6    5.235      65.267
2015    5       11    13  38    6.1381   563.0    5.227      65.296
2015    5       11    13  43    6.1348   563.3    5.218      65.324
2015    5       11    13  49    6.1314   563.7    5.210      65.353
2015    5       11    13  55    6.1280   564.0    5.201      65.382
2015    5       11    14   0    6.1247   564.3    5.193      65.410
2015    5       11    14   6    6.1213   564.7    5.184      65.439
2015    5       11    14  12    6.1179   565.0    5.176      65.468
2015    5       11    14  17    6.1146   565.3    5.168      65.497
2015    5       11    14  23    6.1112   565.7    5.159      65.525
2015    5       11    14  29    6.1078   566.0    5.151      65.554
2015    5       11    14  34    6.1044   566.3    5.143      65.583
2015    5       11    14  40    6.1010   566.7    5.135      65.613
2015    5       11    14  46    6.0976   567.0    5.127      65.642
2015    5       11    14  52    6.0942   567.3    5.118      65.672
2015    5       11    14  57    6.0908   567.7    5.110      65.702
2015    5       11    15   3    6.0874   568.0    5.102      65.732
2015    5       11    15   9    6.0840   568.3    5.095      65.762
2015    5       11    15  14    6.0806   568.7    5.087      65.793
2015    5       11    15  20    6.0771   569.0    5.079      65.824
2015    5       11    15  26    6.0737   569.3    5.071      65.855
2015    5       11    15  31    6.0702   569.6    5.063      65.888
2015    5       11    15  37    6.0667   570.0    5.056      65.921
2015    5       11    15  43    6.0632   570.3    5.048      65.954
2015    5       11    15  48    6.0597   570.6    5.040      65.988
2015    5       11    15  54    6.0561   571.0    5.032      66.022
2015    5       11    16   0    6.0525   571.3    5.024      66.055
2015    5       11    16   6    6.0490   571.6    5.016      66.088
2015    5       11    16  11    6.0454   572.0    5.008      66.120
2015    5       11    16  17    6.0417   572.3    5.000      66.151
2015    5       11    16  23    6.0381   572.6    4.992      66.182
2015    5       11    16  28    6.0344   573.0    4.984      66.213
2015    5       11    16  34    6.0308   573.3    4.976      66.242
2015    5       11    16  40    6.0271   573.6    4.968      66.271
2015    5       11    16  45    6.0234   574.0    4.959      66.299
2015    5       11    16  51    6.0197   574.3    4.951      66.327
2015    5       11    16  57    6.0159   574.6    4.943      66.354
2015    5       11    17   2    6.0122   574.9    4.935      66.380
2015    5       11    17   8    6.0085   575.3    4.927      66.407
2015    5       11    17  14    6.0048   575.6    4.919      66.433
2015    5       11    17  20    6.0010   575.9    4.911      66.458
2015    5       11    17  25    5.9973   576.2    4.902      66.484
2015    5       11    17  31    5.9936   576.6    4.894      66.510
2015    5       11    17  37    5.9898   576.9    4.886      66.535
2015    5       11    17  42    5.9861   577.2    4.879      66.561
2015    5       11    17  48    5.9824   577.5    4.871      66.586
2015    5       11    17  54    5.9786   577.9    4.863      66.612
2015    5       11    17  59    5.9749   578.2    4.855      66.638
2015    5       11    18   5    5.9712   578.5    4.848      66.664
2015    5       11    18  11    5.9675   578.8    4.840      66.691
2015    5       11    18  16    5.9638   579.1    4.833      66.718
2015    5       11    18  22    5.9600   579.4    4.825      66.746
2015    5       11    18  28    5.9563   579.8    4.818      66.774
2015    5       11    18  34    5.9526   580.1    4.811      66.802
2015    5       11    18  39    5.9488   580.4    4.803      66.830
2015    5       11    18  45    5.9451   580.7    4.796      66.859
2015    5       11    18  51    5.9413   581.0    4.789      66.889
2015    5       11    18  56    5.9376   581.4    4.782      66.918
2015    5       11    19   2    5.9338   581.7    4.775      66.947
2015    5       11    19   8    5.9301   582.0    4.768      66.976
2015    5       11    19  13    5.9264   582.3    4.760      67.004
2015    5       11    19  19    5.9226   582.6    4.753      67.031
2015    5       11    19  25    5.9188   583.0    4.746      67.057
2015    5       11    19  30    5.9151   583.3    4.738      67.083
2015    5       11    19  36    5.9113   583.6    4.731      67.107
2015    5       11    19  42    5.9075   583.9    4.723      67.131
2015    5       11    19  48    5.9037   584.2    4.716      67.154
2015    5       11    19  53    5.9000   584.5    4.708      67.176
2015    5       11    19  59    5.8962   584.9    4.701      67.198
2015    5       11    20   5    5.8924   585.2    4.693      67.219
2015    5       11    20  10    5.8886   585.5    4.686      67.239
2015    5       11    20  16    5.8847   585.8    4.678      67.259
2015    5       11    20  22    5.8809   586.1    4.671      67.279
2015    5       11    20  27    5.8771   586.4    4.663      67.299
2015    5       11    20  33    5.8732   586.7    4.656      67.319
2015    5       11    20  39    5.8694   587.0    4.648      67.338
2015    5       11    20  44    5.8655   587.4    4.641      67.358
2015    5       11    20  50    5.8616   587.7    4.633      67.377
2015    5       11    20  56    5.8577   588.0    4.626      67.396
2015    5       11    21   2    5.8539   588.3    4.618      67.415
2015    5       11    21   7    5.8499   588.6    4.611      67.434
2015    5       11    21  13    5.8460   588.9    4.604      67.453
2015    5       11    21  19    5.8421   589.2    4.596      67.472
2015    5       11    21  24    5.8382   589.5    4.589      67.491
2015    5       11    21  30    5.8343   589.8    4.581      67.510
2015    5       11    21  36    5.8304   590.1    4.574      67.528
2015    5       11    21  41    5.8264   590.4    4.566      67.546
2015    5       11    21  47    5.8225   590.7    4.559      67.564
2015    5       11    21  53    5.8186   591.0    4.552      67.582
2015    5       11    21  58    5.8147   591.3    4.544      67.599
2015    5       11    22   4    5.8108   591.6    4.537      67.615
2015    5       11    22  10    5.8069   591.9    4.530      67.631
2015    5       11    22  16    5.8030   592.2    4.522      67.647
2015    5       11    22  21    5.7991   592.5    4.515      67.663
2015    5       11    22  27    5.7952   592.8    4.508      67.679
2015    5       11    22  33    5.7913   593.1    4.501      67.695
2015    5       11    22  38    5.7874   593.4    4.494      67.711
2015    5       11    22  44    5.7835   593.7    4.487      67.727
2015    5       11    22  50    5.7796   593.9    4.480      67.743
2015    5       11    22  55    5.7757   594.2    4.473      67.759
2015    5       11    23   1    5.7718   594.5    4.466      67.776
2015    5       11    23   7    5.7679   594.8    4.460      67.793
2015    5       11    23  12    5.7640   595.1    4.453      67.811
2015    5       11    23  18    5.7601   595.4    4.446      67.828
2015    5       11    23  24    5.7561   595.7    4.440      67.846
2015    5       11    23  30    5.7522   596.0    4.433      67.865
2015    5       11    23  35    5.7483   596.3    4.427      67.884
2015    5       11    23  41    5.7444   596.5    4.420      67.903
2015    5       11    23  47    5.7405   596.8    4.413      67.923
2015    5       11    23  52    5.7365   597.1    4.407      67.942
2015    5       11    23  58    5.7326   597.4    4.400      67.961
2015    5       12     0   4    5.7287   597.7    4.393      67.979
