year    month   day   hour  minute  B_enl V_enl   n_enl       T_enl
[year] [month] [day] [hour][minute] [nT]  [km/s]  [cm-3]      [kK]
2015    5        6     0   4    5.0609   430.2    6.821      37.621
2015    5        6     0   9    5.0629   430.2    6.823      37.624
2015    5        6     0  15    5.0648   430.2    6.825      37.628
2015    5        6     0  21    5.0668   430.3    6.827      37.632
2015    5        6     0  26    5.0688   430.3    6.828      37.636
2015    5        6     0  32    5.0708   430.3    6.830      37.640
2015    5        6     0  38    5.0728   430.3    6.832      37.645
2015    5        6     0  43    5.0749   430.3    6.834      37.649
2015    5        6     0  49    5.0769   430.3    6.836      37.653
2015    5        6     0  55    5.0789   430.3    6.838      37.658
2015    5        6     1   0    5.0810   430.3    6.840      37.663
2015    5        6     1   6    5.0831   430.4    6.842      37.668
2015    5        6     1  12    5.0852   430.4    6.844      37.673
2015    5        6     1  17    5.0873   430.4    6.846      37.679
2015    5        6     1  23    5.0894   430.4    6.848      37.685
2015    5        6     1  28    5.0915   430.4    6.850      37.691
2015    5        6     1  34    5.0937   430.5    6.853      37.697
2015    5        6     1  40    5.0958   430.5    6.855      37.704
2015    5        6     1  45    5.0980   430.5    6.857      37.711
2015    5        6     1  51    5.1002   430.5    6.860      37.719
2015    5        6     1  57    5.1024   430.5    6.862      37.727
2015    5        6     2   2    5.1046   430.6    6.865      37.735
2015    5        6     2   8    5.1068   430.6    6.868      37.743
2015    5        6     2  14    5.1090   430.6    6.870      37.752
2015    5        6     2  19    5.1112   430.6    6.873      37.761
2015    5        6     2  25    5.1135   430.6    6.876      37.771
2015    5        6     2  31    5.1157   430.7    6.879      37.780
2015    5        6     2  36    5.1179   430.7    6.882      37.790
2015    5        6     2  42    5.1201   430.7    6.885      37.801
2015    5        6     2  48    5.1224   430.7    6.889      37.812
2015    5        6     2  53    5.1246   430.8    6.892      37.823
2015    5        6     2  59    5.1268   430.8    6.895      37.835
2015    5        6     3   4    5.1290   430.8    6.899      37.847
2015    5        6     3  10    5.1312   430.9    6.902      37.860
2015    5        6     3  16    5.1334   430.9    6.905      37.873
2015    5        6     3  21    5.1356   430.9    6.909      37.887
2015    5        6     3  27    5.1378   430.9    6.912      37.901
2015    5        6     3  33    5.1400   431.0    6.915      37.916
2015    5        6     3  38    5.1422   431.0    6.919      37.931
2015    5        6     3  44    5.1444   431.0    6.922      37.946
2015    5        6     3  50    5.1466   431.1    6.925      37.961
2015    5        6     3  55    5.1488   431.1    6.929      37.976
2015    5        6     4   1    5.1510   431.1    6.932      37.992
2015    5        6     4   7    5.1532   431.1    6.935      38.008
2015    5        6     4  12    5.1554   431.2    6.939      38.023
2015    5        6     4  18    5.1576   431.2    6.942      38.039
2015    5        6     4  24    5.1598   431.2    6.945      38.055
2015    5        6     4  29    5.1621   431.3    6.948      38.071
2015    5        6     4  35    5.1643   431.3    6.952      38.086
2015    5        6     4  40    5.1666   431.3    6.955      38.102
2015    5        6     4  46    5.1689   431.3    6.959      38.118
2015    5        6     4  52    5.1712   431.4    6.962      38.135
2015    5        6     4  57    5.1735   431.4    6.965      38.152
2015    5        6     5   3    5.1758   431.4    6.969      38.169
2015    5        6     5   9    5.1781   431.5    6.972      38.187
2015    5        6     5  14    5.1805   431.5    6.975      38.205
2015    5        6     5  20    5.1828   431.6    6.978      38.223
2015    5        6     5  26    5.1852   431.6    6.981      38.241
2015    5        6     5  31    5.1875   431.6    6.984      38.258
2015    5        6     5  37    5.1898   431.7    6.986      38.276
2015    5        6     5  43    5.1920   431.7    6.989      38.293
2015    5        6     5  48    5.1943   431.7    6.991      38.309
2015    5        6     5  54    5.1966   431.8    6.993      38.326
2015    5        6     6   0    5.1988   431.8    6.996      38.342
2015    5        6     6   5    5.2010   431.8    6.998      38.358
2015    5        6     6  11    5.2032   431.9    6.999      38.373
2015    5        6     6  17    5.2054   431.9    7.001      38.388
2015    5        6     6  22    5.2076   432.0    7.003      38.403
2015    5        6     6  28    5.2098   432.0    7.005      38.418
2015    5        6     6  33    5.2120   432.0    7.006      38.432
2015    5        6     6  39    5.2141   432.1    7.008      38.446
2015    5        6     6  45    5.2163   432.1    7.009      38.459
2015    5        6     6  50    5.2184   432.1    7.010      38.473
2015    5        6     6  56    5.2205   432.2    7.011      38.486
2015    5        6     7   2    5.2227   432.2    7.012      38.499
2015    5        6     7   7    5.2248   432.2    7.013      38.512
2015    5        6     7  13    5.2269   432.3    7.014      38.524
2015    5        6     7  19    5.2290   432.3    7.015      38.537
2015    5        6     7  24    5.2311   432.3    7.016      38.549
2015    5        6     7  30    5.2332   432.4    7.017      38.561
2015    5        6     7  36    5.2353   432.4    7.018      38.573
2015    5        6     7  41    5.2374   432.5    7.019      38.585
2015    5        6     7  47    5.2394   432.5    7.019      38.597
2015    5        6     7  53    5.2415   432.5    7.020      38.609
2015    5        6     7  58    5.2436   432.6    7.021      38.621
2015    5        6     8   4    5.2457   432.6    7.021      38.633
2015    5        6     8   9    5.2478   432.6    7.022      38.645
2015    5        6     8  15    5.2499   432.7    7.023      38.657
2015    5        6     8  21    5.2520   432.7    7.023      38.669
2015    5        6     8  26    5.2541   432.7    7.024      38.682
2015    5        6     8  32    5.2562   432.8    7.024      38.694
2015    5        6     8  38    5.2583   432.8    7.025      38.706
2015    5        6     8  43    5.2604   432.8    7.025      38.719
2015    5        6     8  49    5.2625   432.9    7.026      38.732
2015    5        6     8  55    5.2646   432.9    7.027      38.745
2015    5        6     9   0    5.2667   433.0    7.027      38.758
2015    5        6     9   6    5.2689   433.0    7.028      38.772
2015    5        6     9  12    5.2710   433.0    7.029      38.785
2015    5        6     9  17    5.2731   433.1    7.029      38.799
2015    5        6     9  23    5.2753   433.1    7.030      38.814
2015    5        6     9  29    5.2774   433.1    7.031      38.828
2015    5        6     9  34    5.2796   433.2    7.031      38.843
2015    5        6     9  40    5.2818   433.2    7.032      38.858
2015    5        6     9  45    5.2840   433.3    7.033      38.874
2015    5        6     9  51    5.2862   433.3    7.034      38.890
2015    5        6     9  57    5.2884   433.4    7.035      38.907
2015    5        6    10   2    5.2906   433.4    7.036      38.923
2015    5        6    10   8    5.2928   433.4    7.037      38.941
2015    5        6    10  14    5.2950   433.5    7.038      38.958
2015    5        6    10  19    5.2973   433.5    7.039      38.976
2015    5        6    10  25    5.2996   433.6    7.040      38.995
2015    5        6    10  31    5.3018   433.6    7.041      39.014
2015    5        6    10  36    5.3041   433.7    7.043      39.034
2015    5        6    10  42    5.3065   433.7    7.044      39.054
2015    5        6    10  48    5.3088   433.7    7.045      39.074
2015    5        6    10  53    5.3112   433.8    7.047      39.095
2015    5        6    10  59    5.3136   433.8    7.049      39.117
2015    5        6    11   5    5.3160   433.9    7.051      39.139
2015    5        6    11  10    5.3184   433.9    7.052      39.161
2015    5        6    11  16    5.3209   434.0    7.054      39.184
2015    5        6    11  21    5.3233   434.0    7.056      39.207
2015    5        6    11  27    5.3258   434.1    7.059      39.231
2015    5        6    11  33    5.3283   434.1    7.061      39.255
2015    5        6    11  38    5.3309   434.2    7.063      39.279
2015    5        6    11  44    5.3334   434.2    7.066      39.304
2015    5        6    11  50    5.3360   434.3    7.069      39.330
2015    5        6    11  55    5.3386   434.4    7.072      39.356
2015    5        6    12   1    5.3412   434.4    7.074      39.383
2015    5        6    12   7    5.3439   434.5    7.077      39.410
2015    5        6    12  12    5.3465   434.5    7.080      39.438
2015    5        6    12  18    5.3492   434.6    7.084      39.467
2015    5        6    12  24    5.3518   434.7    7.087      39.497
2015    5        6    12  29    5.3545   434.7    7.090      39.527
2015    5        6    12  35    5.3571   434.8    7.093      39.557
2015    5        6    12  41    5.3597   434.9    7.096      39.588
2015    5        6    12  46    5.3622   434.9    7.099      39.619
2015    5        6    12  52    5.3648   435.0    7.102      39.650
2015    5        6    12  58    5.3673   435.1    7.104      39.682
2015    5        6    13   3    5.3697   435.1    7.107      39.714
2015    5        6    13   9    5.3721   435.2    7.109      39.745
2015    5        6    13  14    5.3745   435.3    7.112      39.777
2015    5        6    13  20    5.3768   435.4    7.114      39.808
2015    5        6    13  26    5.3791   435.4    7.116      39.839
2015    5        6    13  31    5.3813   435.5    7.117      39.868
2015    5        6    13  37    5.3835   435.6    7.119      39.898
2015    5        6    13  43    5.3857   435.7    7.120      39.927
2015    5        6    13  48    5.3878   435.7    7.122      39.956
2015    5        6    13  54    5.3899   435.8    7.123      39.984
2015    5        6    14   0    5.3919   435.9    7.124      40.012
2015    5        6    14   5    5.3940   435.9    7.124      40.039
2015    5        6    14  11    5.3960   436.0    7.125      40.066
2015    5        6    14  17    5.3979   436.1    7.125      40.092
2015    5        6    14  22    5.3999   436.2    7.126      40.118
2015    5        6    14  28    5.4018   436.2    7.126      40.143
2015    5        6    14  34    5.4037   436.3    7.126      40.168
2015    5        6    14  39    5.4056   436.4    7.126      40.193
2015    5        6    14  45    5.4074   436.4    7.126      40.217
2015    5        6    14  50    5.4093   436.5    7.126      40.240
2015    5        6    14  56    5.4111   436.6    7.126      40.264
2015    5        6    15   2    5.4130   436.6    7.125      40.287
2015    5        6    15   7    5.4147   436.7    7.125      40.310
2015    5        6    15  13    5.4165   436.8    7.124      40.332
2015    5        6    15  19    5.4183   436.8    7.124      40.355
2015    5        6    15  24    5.4201   436.9    7.123      40.377
2015    5        6    15  30    5.4219   437.0    7.123      40.399
2015    5        6    15  36    5.4236   437.0    7.122      40.420
2015    5        6    15  41    5.4254   437.1    7.121      40.442
2015    5        6    15  47    5.4271   437.2    7.120      40.464
2015    5        6    15  53    5.4289   437.2    7.120      40.485
2015    5        6    15  58    5.4306   437.3    7.119      40.507
2015    5        6    16   4    5.4324   437.4    7.118      40.528
2015    5        6    16  10    5.4341   437.4    7.117      40.549
2015    5        6    16  15    5.4359   437.5    7.117      40.571
2015    5        6    16  21    5.4376   437.6    7.116      40.593
2015    5        6    16  26    5.4394   437.6    7.115      40.614
2015    5        6    16  32    5.4412   437.7    7.114      40.636
2015    5        6    16  38    5.4430   437.7    7.114      40.658
2015    5        6    16  43    5.4448   437.8    7.113      40.680
2015    5        6    16  49    5.4466   437.9    7.112      40.702
2015    5        6    16  55    5.4484   437.9    7.112      40.725
2015    5        6    17   0    5.4503   438.0    7.111      40.749
2015    5        6    17   6    5.4522   438.1    7.110      40.773
2015    5        6    17  12    5.4541   438.1    7.110      40.797
2015    5        6    17  17    5.4560   438.2    7.109      40.821
2015    5        6    17  23    5.4579   438.3    7.109      40.846
2015    5        6    17  29    5.4599   438.3    7.108      40.872
2015    5        6    17  34    5.4619   438.4    7.108      40.898
2015    5        6    17  40    5.4639   438.5    7.107      40.924
2015    5        6    17  46    5.4660   438.6    7.107      40.951
2015    5        6    17  51    5.4680   438.6    7.107      40.977
2015    5        6    17  57    5.4701   438.7    7.106      41.005
2015    5        6    18   3    5.4722   438.8    7.106      41.032
2015    5        6    18   8    5.4744   438.9    7.106      41.060
2015    5        6    18  14    5.4765   438.9    7.106      41.089
2015    5        6    18  19    5.4787   439.0    7.106      41.117
2015    5        6    18  25    5.4808   439.1    7.106      41.147
2015    5        6    18  31    5.4830   439.2    7.106      41.177
2015    5        6    18  36    5.4852   439.3    7.106      41.207
2015    5        6    18  42    5.4874   439.3    7.107      41.238
2015    5        6    18  48    5.4897   439.4    7.107      41.270
2015    5        6    18  53    5.4919   439.5    7.108      41.304
2015    5        6    18  59    5.4941   439.6    7.108      41.338
2015    5        6    19   5    5.4963   439.7    7.109      41.372
2015    5        6    19  10    5.4985   439.8    7.109      41.408
2015    5        6    19  16    5.5007   439.9    7.110      41.444
2015    5        6    19  22    5.5029   440.0    7.111      41.480
2015    5        6    19  27    5.5050   440.1    7.111      41.517
2015    5        6    19  33    5.5072   440.2    7.112      41.553
2015    5        6    19  39    5.5093   440.3    7.113      41.589
2015    5        6    19  44    5.5114   440.4    7.113      41.625
2015    5        6    19  50    5.5135   440.5    7.114      41.661
2015    5        6    19  55    5.5156   440.6    7.115      41.698
2015    5        6    20   1    5.5176   440.7    7.115      41.735
2015    5        6    20   7    5.5195   440.8    7.116      41.772
2015    5        6    20  12    5.5215   440.9    7.116      41.809
2015    5        6    20  18    5.5234   441.0    7.117      41.846
2015    5        6    20  24    5.5253   441.2    7.117      41.883
2015    5        6    20  29    5.5271   441.3    7.117      41.920
2015    5        6    20  35    5.5290   441.4    7.117      41.957
2015    5        6    20  41    5.5308   441.5    7.117      41.993
2015    5        6    20  46    5.5325   441.6    7.117      42.028
2015    5        6    20  52    5.5342   441.7    7.117      42.063
2015    5        6    20  58    5.5359   441.8    7.116      42.098
2015    5        6    21   3    5.5376   442.0    7.116      42.133
2015    5        6    21   9    5.5392   442.1    7.115      42.166
2015    5        6    21  15    5.5408   442.2    7.114      42.200
2015    5        6    21  20    5.5423   442.3    7.114      42.233
2015    5        6    21  26    5.5439   442.4    7.113      42.265
2015    5        6    21  31    5.5454   442.5    7.112      42.297
2015    5        6    21  37    5.5468   442.7    7.110      42.329
2015    5        6    21  43    5.5483   442.8    7.109      42.360
2015    5        6    21  48    5.5497   442.9    7.108      42.390
2015    5        6    21  54    5.5511   443.0    7.107      42.420
2015    5        6    22   0    5.5524   443.1    7.105      42.450
2015    5        6    22   5    5.5537   443.2    7.104      42.479
2015    5        6    22  11    5.5550   443.4    7.102      42.508
2015    5        6    22  17    5.5563   443.5    7.100      42.536
2015    5        6    22  22    5.5575   443.6    7.099      42.564
2015    5        6    22  28    5.5588   443.7    7.097      42.592
2015    5        6    22  34    5.5599   443.8    7.095      42.619
2015    5        6    22  39    5.5611   444.0    7.093      42.646
2015    5        6    22  45    5.5622   444.1    7.092      42.672
2015    5        6    22  51    5.5634   444.2    7.090      42.699
2015    5        6    22  56    5.5644   444.3    7.088      42.726
2015    5        6    23   2    5.5655   444.4    7.086      42.753
2015    5        6    23   7    5.5665   444.6    7.084      42.781
2015    5        6    23  13    5.5676   444.7    7.081      42.809
2015    5        6    23  19    5.5686   444.8    7.079      42.837
2015    5        6    23  24    5.5695   444.9    7.077      42.866
2015    5        6    23  30    5.5705   445.1    7.074      42.894
2015    5        6    23  36    5.5714   445.2    7.072      42.922
2015    5        6    23  41    5.5723   445.3    7.069      42.950
2015    5        6    23  47    5.5732   445.4    7.067      42.978
2015    5        6    23  53    5.5740   445.6    7.064      43.006
2015    5        6    23  58    5.5749   445.7    7.061      43.033
2015    5        7     0   4    5.5757   445.8    7.058      43.061
2015    5        7     0  10    5.5765   445.9    7.055      43.089
2015    5        7     0  15    5.5773   446.1    7.052      43.117
2015    5        7     0  21    5.5782   446.2    7.049      43.144
2015    5        7     0  27    5.5790   446.3    7.046      43.172
2015    5        7     0  32    5.5798   446.4    7.043      43.200
2015    5        7     0  38    5.5806   446.6    7.039      43.228
2015    5        7     0  44    5.5814   446.7    7.036      43.255
2015    5        7     0  49    5.5822   446.8    7.032      43.283
2015    5        7     0  55    5.5830   447.0    7.029      43.311
2015    5        7     1   0    5.5838   447.1    7.025      43.338
2015    5        7     1   6    5.5846   447.2    7.022      43.365
2015    5        7     1  12    5.5854   447.4    7.018      43.392
2015    5        7     1  17    5.5861   447.5    7.014      43.419
2015    5        7     1  23    5.5869   447.6    7.011      43.446
2015    5        7     1  29    5.5876   447.8    7.007      43.473
2015    5        7     1  34    5.5884   447.9    7.003      43.499
2015    5        7     1  40    5.5891   448.0    7.000      43.526
2015    5        7     1  46    5.5898   448.2    6.996      43.553
2015    5        7     1  51    5.5905   448.3    6.992      43.580
2015    5        7     1  57    5.5912   448.4    6.989      43.607
2015    5        7     2   3    5.5919   448.6    6.985      43.635
2015    5        7     2   8    5.5926   448.7    6.981      43.663
2015    5        7     2  14    5.5932   448.8    6.978      43.692
2015    5        7     2  20    5.5938   449.0    6.974      43.721
2015    5        7     2  25    5.5944   449.1    6.970      43.751
2015    5        7     2  31    5.5950   449.3    6.966      43.781
2015    5        7     2  36    5.5955   449.4    6.962      43.811
2015    5        7     2  42    5.5960   449.5    6.958      43.840
2015    5        7     2  48    5.5965   449.7    6.954      43.869
2015    5        7     2  53    5.5969   449.8    6.950      43.898
2015    5        7     2  59    5.5974   450.0    6.946      43.927
2015    5        7     3   5    5.5978   450.1    6.942      43.955
2015    5        7     3  10    5.5982   450.2    6.937      43.982
2015    5        7     3  16    5.5985   450.4    6.933      44.010
2015    5        7     3  22    5.5988   450.5    6.929      44.037
2015    5        7     3  27    5.5991   450.7    6.924      44.064
2015    5        7     3  33    5.5995   450.8    6.920      44.090
2015    5        7     3  39    5.5997   450.9    6.916      44.117
2015    5        7     3  44    5.6000   451.1    6.912      44.143
2015    5        7     3  50    5.6003   451.2    6.907      44.169
2015    5        7     3  56    5.6006   451.4    6.903      44.195
2015    5        7     4   1    5.6009   451.5    6.899      44.221
2015    5        7     4   7    5.6012   451.6    6.895      44.247
2015    5        7     4  12    5.6015   451.8    6.891      44.272
2015    5        7     4  18    5.6018   451.9    6.887      44.297
2015    5        7     4  24    5.6020   452.1    6.883      44.324
2015    5        7     4  29    5.6022   452.2    6.879      44.350
2015    5        7     4  35    5.6025   452.3    6.875      44.377
2015    5        7     4  41    5.6026   452.5    6.872      44.404
2015    5        7     4  46    5.6028   452.6    6.868      44.432
2015    5        7     4  52    5.6029   452.8    6.864      44.460
2015    5        7     4  58    5.6029   453.0    6.860      44.488
2015    5        7     5   3    5.6030   453.1    6.856      44.516
2015    5        7     5   9    5.6029   453.3    6.852      44.543
2015    5        7     5  15    5.6029   453.4    6.848      44.570
2015    5        7     5  20    5.6027   453.6    6.844      44.596
2015    5        7     5  26    5.6025   453.8    6.840      44.622
2015    5        7     5  32    5.6023   453.9    6.835      44.648
2015    5        7     5  37    5.6020   454.1    6.831      44.672
2015    5        7     5  43    5.6017   454.2    6.827      44.696
2015    5        7     5  48    5.6013   454.4    6.822      44.719
2015    5        7     5  54    5.6009   454.6    6.818      44.742
2015    5        7     6   0    5.6004   454.7    6.813      44.765
2015    5        7     6   5    5.5999   454.9    6.809      44.787
2015    5        7     6  11    5.5994   455.0    6.804      44.810
2015    5        7     6  17    5.5988   455.2    6.799      44.832
2015    5        7     6  22    5.5982   455.4    6.795      44.855
2015    5        7     6  28    5.5976   455.5    6.790      44.878
2015    5        7     6  34    5.5969   455.7    6.785      44.902
2015    5        7     6  39    5.5962   455.9    6.780      44.925
2015    5        7     6  45    5.5955   456.0    6.775      44.948
2015    5        7     6  51    5.5947   456.2    6.770      44.971
2015    5        7     6  56    5.5939   456.3    6.765      44.993
2015    5        7     7   2    5.5931   456.5    6.759      45.015
2015    5        7     7   8    5.5923   456.7    6.754      45.037
2015    5        7     7  13    5.5914   456.8    6.748      45.059
2015    5        7     7  19    5.5905   457.0    6.743      45.081
2015    5        7     7  25    5.5896   457.2    6.737      45.103
2015    5        7     7  30    5.5887   457.3    6.731      45.124
2015    5        7     7  36    5.5878   457.5    6.725      45.146
2015    5        7     7  41    5.5869   457.7    6.719      45.167
2015    5        7     7  47    5.5859   457.9    6.713      45.188
2015    5        7     7  53    5.5850   458.0    6.707      45.208
2015    5        7     7  58    5.5839   458.2    6.700      45.228
2015    5        7     8   4    5.5829   458.4    6.694      45.247
2015    5        7     8  10    5.5819   458.5    6.688      45.266
2015    5        7     8  15    5.5808   458.7    6.681      45.285
2015    5        7     8  21    5.5797   458.9    6.674      45.303
2015    5        7     8  27    5.5785   459.0    6.667      45.320
2015    5        7     8  32    5.5773   459.2    6.660      45.337
2015    5        7     8  38    5.5761   459.4    6.653      45.354
2015    5        7     8  44    5.5749   459.6    6.646      45.370
2015    5        7     8  49    5.5736   459.7    6.639      45.385
2015    5        7     8  55    5.5722   459.9    6.632      45.400
2015    5        7     9   1    5.5709   460.1    6.625      45.415
2015    5        7     9   6    5.5694   460.2    6.617      45.429
2015    5        7     9  12    5.5680   460.4    6.610      45.442
2015    5        7     9  17    5.5665   460.6    6.602      45.456
2015    5        7     9  23    5.5650   460.7    6.594      45.468
2015    5        7     9  29    5.5634   460.9    6.586      45.480
2015    5        7     9  34    5.5618   461.1    6.579      45.492
2015    5        7     9  40    5.5602   461.2    6.571      45.504
2015    5        7     9  46    5.5585   461.4    6.563      45.514
2015    5        7     9  51    5.5568   461.6    6.555      45.525
2015    5        7     9  57    5.5550   461.7    6.547      45.535
2015    5        7    10   3    5.5532   461.9    6.539      45.544
2015    5        7    10   8    5.5514   462.1    6.531      45.553
2015    5        7    10  14    5.5495   462.2    6.522      45.562
2015    5        7    10  20    5.5476   462.4    6.514      45.571
2015    5        7    10  25    5.5457   462.5    6.506      45.579
2015    5        7    10  31    5.5437   462.7    6.498      45.587
2015    5        7    10  37    5.5418   462.9    6.490      45.594
2015    5        7    10  42    5.5398   463.0    6.482      45.601
2015    5        7    10  48    5.5377   463.2    6.473      45.608
2015    5        7    10  53    5.5357   463.3    6.465      45.615
2015    5        7    10  59    5.5337   463.5    6.457      45.621
2015    5        7    11   5    5.5317   463.6    6.449      45.627
2015    5        7    11  10    5.5296   463.8    6.441      45.633
2015    5        7    11  16    5.5276   463.9    6.433      45.639
2015    5        7    11  22    5.5256   464.0    6.425      45.645
2015    5        7    11  27    5.5235   464.2    6.418      45.651
2015    5        7    11  33    5.5215   464.3    6.410      45.656
2015    5        7    11  39    5.5194   464.5    6.403      45.662
2015    5        7    11  44    5.5174   464.6    6.395      45.669
2015    5        7    11  50    5.5153   464.8    6.388      45.676
2015    5        7    11  56    5.5132   464.9    6.380      45.684
2015    5        7    12   1    5.5110   465.0    6.373      45.691
2015    5        7    12   7    5.5089   465.2    6.366      45.700
2015    5        7    12  13    5.5067   465.3    6.358      45.708
2015    5        7    12  18    5.5045   465.5    6.351      45.716
2015    5        7    12  24    5.5023   465.6    6.343      45.724
2015    5        7    12  29    5.5000   465.8    6.336      45.731
2015    5        7    12  35    5.4978   465.9    6.329      45.738
2015    5        7    12  41    5.4954   466.1    6.321      45.744
2015    5        7    12  46    5.4931   466.2    6.314      45.750
2015    5        7    12  52    5.4907   466.4    6.306      45.755
2015    5        7    12  58    5.4883   466.5    6.298      45.760
2015    5        7    13   3    5.4859   466.7    6.291      45.764
2015    5        7    13   9    5.4834   466.8    6.283      45.768
2015    5        7    13  15    5.4810   466.9    6.276      45.771
2015    5        7    13  20    5.4785   467.1    6.268      45.774
2015    5        7    13  26    5.4760   467.2    6.261      45.777
2015    5        7    13  32    5.4735   467.3    6.254      45.780
2015    5        7    13  37    5.4710   467.5    6.246      45.782
2015    5        7    13  43    5.4685   467.6    6.239      45.784
2015    5        7    13  49    5.4660   467.7    6.232      45.786
2015    5        7    13  54    5.4635   467.9    6.225      45.788
2015    5        7    14   0    5.4610   468.0    6.218      45.790
2015    5        7    14   5    5.4585   468.1    6.211      45.792
2015    5        7    14  11    5.4561   468.3    6.204      45.794
2015    5        7    14  17    5.4536   468.4    6.197      45.795
2015    5        7    14  22    5.4512   468.5    6.190      45.797
2015    5        7    14  28    5.4488   468.6    6.184      45.798
2015    5        7    14  34    5.4464   468.8    6.177      45.800
2015    5        7    14  39    5.4440   468.9    6.171      45.802
2015    5        7    14  45    5.4417   469.0    6.165      45.804
2015    5        7    14  51    5.4394   469.1    6.158      45.806
2015    5        7    14  56    5.4371   469.2    6.152      45.808
2015    5        7    15   2    5.4348   469.4    6.146      45.810
2015    5        7    15   8    5.4326   469.5    6.140      45.812
2015    5        7    15  13    5.4303   469.6    6.133      45.814
2015    5        7    15  19    5.4280   469.7    6.127      45.815
2015    5        7    15  24    5.4258   469.9    6.121      45.816
2015    5        7    15  30    5.4235   470.0    6.115      45.817
2015    5        7    15  36    5.4212   470.1    6.109      45.818
2015    5        7    15  41    5.4189   470.2    6.102      45.818
2015    5        7    15  47    5.4165   470.4    6.096      45.817
2015    5        7    15  53    5.4141   470.5    6.090      45.816
2015    5        7    15  58    5.4117   470.6    6.084      45.815
2015    5        7    16   4    5.4093   470.7    6.077      45.814
2015    5        7    16  10    5.4068   470.9    6.071      45.812
2015    5        7    16  15    5.4043   471.0    6.065      45.809
2015    5        7    16  21    5.4017   471.1    6.058      45.807
2015    5        7    16  27    5.3991   471.2    6.052      45.804
2015    5        7    16  32    5.3965   471.4    6.045      45.800
2015    5        7    16  38    5.3938   471.5    6.039      45.796
2015    5        7    16  43    5.3911   471.6    6.032      45.792
2015    5        7    16  49    5.3884   471.7    6.025      45.787
2015    5        7    16  55    5.3856   471.8    6.019      45.782
2015    5        7    17   0    5.3828   472.0    6.012      45.777
2015    5        7    17   6    5.3800   472.1    6.005      45.771
2015    5        7    17  12    5.3771   472.2    5.998      45.764
2015    5        7    17  17    5.3742   472.3    5.991      45.757
2015    5        7    17  23    5.3713   472.4    5.985      45.750
2015    5        7    17  29    5.3684   472.5    5.978      45.742
2015    5        7    17  34    5.3654   472.7    5.971      45.734
2015    5        7    17  40    5.3624   472.8    5.963      45.726
2015    5        7    17  46    5.3595   472.9    5.956      45.717
2015    5        7    17  51    5.3565   473.0    5.949      45.707
2015    5        7    17  57    5.3534   473.1    5.942      45.698
2015    5        7    18   3    5.3504   473.2    5.935      45.688
2015    5        7    18   8    5.3474   473.3    5.928      45.677
2015    5        7    18  14    5.3444   473.4    5.921      45.666
2015    5        7    18  19    5.3414   473.5    5.914      45.655
2015    5        7    18  25    5.3383   473.6    5.906      45.644
2015    5        7    18  31    5.3353   473.7    5.899      45.632
2015    5        7    18  36    5.3323   473.8    5.892      45.620
2015    5        7    18  42    5.3293   473.9    5.885      45.607
2015    5        7    18  48    5.3262   474.0    5.878      45.595
2015    5        7    18  53    5.3232   474.0    5.871      45.582
2015    5        7    18  59    5.3202   474.1    5.864      45.568
2015    5        7    19   5    5.3173   474.2    5.857      45.555
2015    5        7    19  10    5.3143   474.3    5.850      45.541
2015    5        7    19  16    5.3114   474.4    5.843      45.527
2015    5        7    19  22    5.3084   474.5    5.836      45.513
2015    5        7    19  27    5.3055   474.5    5.829      45.499
2015    5        7    19  33    5.3026   474.6    5.823      45.484
2015    5        7    19  39    5.2998   474.7    5.816      45.469
2015    5        7    19  44    5.2969   474.8    5.809      45.455
2015    5        7    19  50    5.2941   474.8    5.803      45.440
2015    5        7    19  55    5.2913   474.9    5.796      45.425
2015    5        7    20   1    5.2886   475.0    5.790      45.409
2015    5        7    20   7    5.2858   475.1    5.784      45.394
2015    5        7    20  12    5.2831   475.1    5.778      45.378
2015    5        7    20  18    5.2804   475.2    5.772      45.363
2015    5        7    20  24    5.2777   475.3    5.766      45.347
2015    5        7    20  29    5.2750   475.3    5.760      45.331
2015    5        7    20  35    5.2724   475.4    5.754      45.315
2015    5        7    20  41    5.2697   475.4    5.748      45.299
2015    5        7    20  46    5.2671   475.5    5.743      45.282
2015    5        7    20  52    5.2645   475.6    5.737      45.266
2015    5        7    20  58    5.2620   475.6    5.732      45.250
2015    5        7    21   3    5.2594   475.7    5.726      45.234
2015    5        7    21   9    5.2569   475.7    5.721      45.218
2015    5        7    21  14    5.2544   475.8    5.716      45.202
2015    5        7    21  20    5.2519   475.8    5.711      45.185
2015    5        7    21  26    5.2495   475.9    5.707      45.170
2015    5        7    21  31    5.2471   475.9    5.702      45.154
2015    5        7    21  37    5.2448   476.0    5.698      45.138
2015    5        7    21  43    5.2425   476.0    5.693      45.123
2015    5        7    21  48    5.2402   476.0    5.689      45.107
2015    5        7    21  54    5.2380   476.1    5.685      45.092
2015    5        7    22   0    5.2358   476.1    5.681      45.077
2015    5        7    22   5    5.2336   476.2    5.677      45.061
2015    5        7    22  11    5.2314   476.2    5.674      45.046
2015    5        7    22  17    5.2294   476.3    5.670      45.031
2015    5        7    22  22    5.2273   476.3    5.667      45.015
2015    5        7    22  28    5.2252   476.3    5.663      45.000
2015    5        7    22  34    5.2232   476.4    5.660      44.985
2015    5        7    22  39    5.2212   476.4    5.657      44.970
2015    5        7    22  45    5.2192   476.4    5.653      44.956
2015    5        7    22  50    5.2172   476.5    5.650      44.942
2015    5        7    22  56    5.2153   476.5    5.647      44.928
2015    5        7    23   2    5.2133   476.6    5.644      44.915
2015    5        7    23   7    5.2113   476.6    5.641      44.901
2015    5        7    23  13    5.2094   476.6    5.638      44.889
2015    5        7    23  19    5.2074   476.7    5.635      44.876
2015    5        7    23  24    5.2054   476.7    5.632      44.863
2015    5        7    23  30    5.2034   476.7    5.629      44.850
2015    5        7    23  36    5.2014   476.8    5.626      44.837
2015    5        7    23  41    5.1994   476.8    5.623      44.825
2015    5        7    23  47    5.1974   476.8    5.621      44.812
2015    5        7    23  53    5.1953   476.9    5.618      44.799
2015    5        7    23  58    5.1933   476.9    5.615      44.786
2015    5        8     0   4    5.1912   476.9    5.612      44.774
2015    5        8     0  10    5.1892   476.9    5.609      44.761
2015    5        8     0  15    5.1871   477.0    5.606      44.748
2015    5        8     0  21    5.1851   477.0    5.604      44.735
2015    5        8     0  26    5.1831   477.0    5.601      44.722
2015    5        8     0  32    5.1810   477.0    5.598      44.709
2015    5        8     0  38    5.1790   477.1    5.595      44.696
2015    5        8     0  43    5.1770   477.1    5.592      44.683
2015    5        8     0  49    5.1750   477.1    5.589      44.670
2015    5        8     0  55    5.1730   477.1    5.586      44.657
2015    5        8     1   0    5.1710   477.2    5.583      44.644
2015    5        8     1   6    5.1691   477.2    5.580      44.630
2015    5        8     1  12    5.1671   477.2    5.577      44.617
2015    5        8     1  17    5.1652   477.2    5.574      44.603
2015    5        8     1  23    5.1633   477.2    5.571      44.590
2015    5        8     1  29    5.1614   477.2    5.568      44.575
2015    5        8     1  34    5.1595   477.3    5.565      44.561
2015    5        8     1  40    5.1577   477.3    5.562      44.546
2015    5        8     1  45    5.1559   477.3    5.559      44.532
2015    5        8     1  51    5.1540   477.3    5.556      44.517
2015    5        8     1  57    5.1523   477.3    5.553      44.501
2015    5        8     2   2    5.1505   477.3    5.550      44.486
2015    5        8     2   8    5.1487   477.3    5.547      44.470
2015    5        8     2  14    5.1470   477.3    5.544      44.454
2015    5        8     2  19    5.1453   477.4    5.540      44.439
2015    5        8     2  25    5.1436   477.4    5.537      44.423
2015    5        8     2  31    5.1419   477.4    5.535      44.407
2015    5        8     2  36    5.1403   477.4    5.532      44.391
2015    5        8     2  42    5.1387   477.4    5.529      44.375
2015    5        8     2  48    5.1371   477.4    5.526      44.359
2015    5        8     2  53    5.1356   477.4    5.523      44.343
2015    5        8     2  59    5.1341   477.4    5.520      44.327
2015    5        8     3   5    5.1326   477.4    5.518      44.311
2015    5        8     3  10    5.1311   477.4    5.515      44.295
2015    5        8     3  16    5.1296   477.4    5.513      44.279
2015    5        8     3  21    5.1283   477.4    5.510      44.264
2015    5        8     3  27    5.1269   477.4    5.508      44.248
2015    5        8     3  33    5.1255   477.4    5.505      44.233
2015    5        8     3  38    5.1242   477.4    5.503      44.217
2015    5        8     3  44    5.1229   477.4    5.501      44.201
2015    5        8     3  50    5.1216   477.4    5.499      44.186
2015    5        8     3  55    5.1203   477.4    5.497      44.170
2015    5        8     4   1    5.1191   477.4    5.494      44.155
2015    5        8     4   7    5.1178   477.4    5.493      44.139
2015    5        8     4  12    5.1166   477.4    5.491      44.124
2015    5        8     4  18    5.1154   477.4    5.489      44.108
2015    5        8     4  24    5.1143   477.4    5.487      44.093
2015    5        8     4  29    5.1131   477.4    5.485      44.078
2015    5        8     4  35    5.1120   477.4    5.484      44.062
2015    5        8     4  41    5.1109   477.3    5.482      44.047
2015    5        8     4  46    5.1098   477.3    5.481      44.032
2015    5        8     4  52    5.1087   477.3    5.480      44.018
2015    5        8     4  57    5.1077   477.3    5.479      44.003
2015    5        8     5   3    5.1067   477.3    5.478      43.989
2015    5        8     5   9    5.1057   477.3    5.477      43.975
2015    5        8     5  14    5.1048   477.3    5.476      43.961
2015    5        8     5  20    5.1038   477.2    5.475      43.947
2015    5        8     5  26    5.1029   477.2    5.474      43.934
2015    5        8     5  31    5.1021   477.2    5.473      43.920
2015    5        8     5  37    5.1012   477.2    5.473      43.907
2015    5        8     5  43    5.1004   477.2    5.472      43.894
2015    5        8     5  48    5.0996   477.2    5.471      43.881
2015    5        8     5  54    5.0988   477.1    5.471      43.869
2015    5        8     6   0    5.0981   477.1    5.470      43.856
2015    5        8     6   5    5.0973   477.1    5.470      43.845
2015    5        8     6  11    5.0966   477.1    5.469      43.833
2015    5        8     6  17    5.0959   477.1    5.469      43.822
2015    5        8     6  22    5.0952   477.0    5.469      43.811
2015    5        8     6  28    5.0945   477.0    5.468      43.800
2015    5        8     6  33    5.0938   477.0    5.468      43.789
2015    5        8     6  39    5.0931   477.0    5.467      43.778
2015    5        8     6  45    5.0925   476.9    5.467      43.768
2015    5        8     6  50    5.0918   476.9    5.466      43.757
2015    5        8     6  56    5.0912   476.9    5.466      43.747
2015    5        8     7   2    5.0906   476.9    5.466      43.736
2015    5        8     7   7    5.0900   476.9    5.465      43.726
2015    5        8     7  13    5.0894   476.8    5.465      43.716
2015    5        8     7  19    5.0889   476.8    5.465      43.706
2015    5        8     7  24    5.0883   476.8    5.465      43.697
2015    5        8     7  30    5.0878   476.8    5.465      43.688
2015    5        8     7  36    5.0873   476.7    5.465      43.678
2015    5        8     7  41    5.0869   476.7    5.465      43.670
2015    5        8     7  47    5.0864   476.7    5.465      43.661
2015    5        8     7  53    5.0860   476.7    5.465      43.653
2015    5        8     7  58    5.0856   476.6    5.465      43.645
2015    5        8     8   4    5.0853   476.6    5.465      43.637
2015    5        8     8   9    5.0849   476.6    5.465      43.629
2015    5        8     8  15    5.0846   476.6    5.465      43.622
2015    5        8     8  21    5.0844   476.5    5.465      43.615
2015    5        8     8  26    5.0841   476.5    5.465      43.608
2015    5        8     8  32    5.0839   476.5    5.466      43.601
2015    5        8     8  38    5.0837   476.5    5.466      43.594
2015    5        8     8  43    5.0835   476.5    5.466      43.587
2015    5        8     8  49    5.0833   476.4    5.466      43.579
2015    5        8     8  55    5.0831   476.4    5.466      43.572
2015    5        8     9   0    5.0830   476.4    5.465      43.564
2015    5        8     9   6    5.0829   476.4    5.465      43.556
2015    5        8     9  12    5.0828   476.3    5.465      43.548
2015    5        8     9  17    5.0827   476.3    5.465      43.539
2015    5        8     9  23    5.0826   476.3    5.465      43.530
2015    5        8     9  29    5.0825   476.3    5.465      43.521
2015    5        8     9  34    5.0825   476.2    5.464      43.512
2015    5        8     9  40    5.0824   476.2    5.464      43.502
2015    5        8     9  45    5.0824   476.2    5.464      43.493
2015    5        8     9  51    5.0824   476.1    5.464      43.483
2015    5        8     9  57    5.0825   476.1    5.463      43.473
2015    5        8    10   2    5.0825   476.1    5.463      43.463
2015    5        8    10   8    5.0825   476.1    5.463      43.454
2015    5        8    10  14    5.0826   476.0    5.463      43.444
2015    5        8    10  19    5.0827   476.0    5.463      43.434
2015    5        8    10  25    5.0828   476.0    5.463      43.424
2015    5        8    10  31    5.0829   475.9    5.463      43.415
2015    5        8    10  36    5.0831   475.9    5.463      43.405
2015    5        8    10  42    5.0832   475.9    5.463      43.396
2015    5        8    10  48    5.0834   475.8    5.463      43.387
2015    5        8    10  53    5.0836   475.8    5.463      43.378
2015    5        8    10  59    5.0838   475.8    5.463      43.369
2015    5        8    11   5    5.0840   475.7    5.463      43.360
2015    5        8    11  10    5.0842   475.7    5.464      43.352
2015    5        8    11  16    5.0844   475.7    5.464      43.343
2015    5        8    11  21    5.0847   475.6    5.465      43.335
2015    5        8    11  27    5.0850   475.6    5.465      43.327
2015    5        8    11  33    5.0852   475.6    5.465      43.319
2015    5        8    11  38    5.0855   475.5    5.466      43.312
2015    5        8    11  44    5.0858   475.5    5.467      43.304
2015    5        8    11  50    5.0861   475.5    5.467      43.297
2015    5        8    11  55    5.0865   475.4    5.468      43.289
2015    5        8    12   1    5.0868   475.4    5.469      43.282
2015    5        8    12   7    5.0872   475.3    5.470      43.276
2015    5        8    12  12    5.0876   475.3    5.470      43.269
2015    5        8    12  18    5.0880   475.3    5.471      43.262
2015    5        8    12  24    5.0884   475.2    5.472      43.256
2015    5        8    12  29    5.0888   475.2    5.473      43.249
2015    5        8    12  35    5.0893   475.1    5.474      43.243
2015    5        8    12  41    5.0898   475.1    5.476      43.237
2015    5        8    12  46    5.0903   475.1    5.477      43.231
2015    5        8    12  52    5.0909   475.0    5.478      43.226
2015    5        8    12  58    5.0914   475.0    5.479      43.221
2015    5        8    13   3    5.0920   474.9    5.481      43.215
2015    5        8    13   9    5.0926   474.9    5.482      43.211
2015    5        8    13  14    5.0933   474.8    5.484      43.206
2015    5        8    13  20    5.0940   474.8    5.485      43.201
2015    5        8    13  26    5.0947   474.7    5.487      43.197
2015    5        8    13  31    5.0955   474.7    5.489      43.193
2015    5        8    13  37    5.0963   474.7    5.490      43.189
2015    5        8    13  43    5.0971   474.6    5.492      43.186
2015    5        8    13  48    5.0980   474.6    5.494      43.183
2015    5        8    13  54    5.0989   474.5    5.496      43.180
2015    5        8    14   0    5.0999   474.5    5.498      43.177
2015    5        8    14   5    5.1009   474.4    5.500      43.175
2015    5        8    14  11    5.1019   474.4    5.502      43.173
2015    5        8    14  17    5.1030   474.3    5.505      43.172
2015    5        8    14  22    5.1041   474.3    5.507      43.171
2015    5        8    14  28    5.1053   474.3    5.509      43.170
2015    5        8    14  34    5.1064   474.2    5.511      43.169
2015    5        8    14  39    5.1077   474.2    5.514      43.169
2015    5        8    14  45    5.1089   474.1    5.516      43.169
2015    5        8    14  50    5.1102   474.1    5.519      43.169
2015    5        8    14  56    5.1116   474.0    5.521      43.169
2015    5        8    15   2    5.1130   474.0    5.523      43.170
2015    5        8    15   7    5.1144   474.0    5.526      43.170
2015    5        8    15  13    5.1158   473.9    5.529      43.170
2015    5        8    15  19    5.1173   473.9    5.531      43.171
2015    5        8    15  24    5.1189   473.8    5.534      43.171
2015    5        8    15  30    5.1204   473.8    5.536      43.172
2015    5        8    15  36    5.1220   473.8    5.539      43.173
2015    5        8    15  41    5.1237   473.7    5.542      43.175
2015    5        8    15  47    5.1254   473.7    5.545      43.176
2015    5        8    15  53    5.1271   473.6    5.547      43.177
2015    5        8    15  58    5.1288   473.6    5.550      43.178
2015    5        8    16   4    5.1306   473.5    5.553      43.180
2015    5        8    16  10    5.1325   473.5    5.556      43.181
2015    5        8    16  15    5.1344   473.4    5.558      43.182
2015    5        8    16  21    5.1363   473.4    5.561      43.184
2015    5        8    16  26    5.1383   473.4    5.564      43.185
2015    5        8    16  32    5.1403   473.3    5.567      43.187
2015    5        8    16  38    5.1424   473.3    5.570      43.189
2015    5        8    16  43    5.1445   473.2    5.573      43.191
2015    5        8    16  49    5.1467   473.2    5.577      43.194
2015    5        8    16  55    5.1489   473.1    5.580      43.197
2015    5        8    17   0    5.1512   473.1    5.584      43.200
2015    5        8    17   6    5.1535   473.1    5.587      43.204
2015    5        8    17  12    5.1558   473.0    5.591      43.208
2015    5        8    17  17    5.1582   473.0    5.595      43.213
2015    5        8    17  23    5.1606   472.9    5.599      43.219
2015    5        8    17  29    5.1630   472.9    5.603      43.225
2015    5        8    17  34    5.1653   472.9    5.607      43.232
2015    5        8    17  40    5.1677   472.8    5.611      43.241
2015    5        8    17  46    5.1701   472.8    5.615      43.251
2015    5        8    17  51    5.1725   472.8    5.619      43.262
2015    5        8    17  57    5.1749   472.7    5.623      43.274
2015    5        8    18   2    5.1773   472.7    5.627      43.286
2015    5        8    18   8    5.1797   472.7    5.631      43.299
2015    5        8    18  14    5.1821   472.7    5.635      43.313
2015    5        8    18  19    5.1844   472.6    5.639      43.327
2015    5        8    18  25    5.1868   472.6    5.643      43.341
2015    5        8    18  31    5.1892   472.6    5.647      43.355
2015    5        8    18  36    5.1916   472.6    5.651      43.370
2015    5        8    18  42    5.1940   472.6    5.654      43.385
2015    5        8    18  48    5.1963   472.5    5.658      43.401
2015    5        8    18  53    5.1987   472.5    5.662      43.417
2015    5        8    18  59    5.2011   472.5    5.666      43.433
2015    5        8    19   5    5.2035   472.5    5.670      43.450
2015    5        8    19  10    5.2059   472.5    5.673      43.467
2015    5        8    19  16    5.2083   472.5    5.677      43.483
2015    5        8    19  22    5.2108   472.4    5.681      43.500
2015    5        8    19  27    5.2132   472.4    5.685      43.516
2015    5        8    19  33    5.2157   472.4    5.688      43.532
2015    5        8    19  38    5.2181   472.4    5.692      43.549
2015    5        8    19  44    5.2206   472.4    5.696      43.565
2015    5        8    19  50    5.2231   472.4    5.699      43.581
2015    5        8    19  55    5.2257   472.3    5.703      43.597
2015    5        8    20   1    5.2282   472.3    5.707      43.613
2015    5        8    20   7    5.2308   472.3    5.711      43.629
2015    5        8    20  12    5.2335   472.3    5.715      43.645
2015    5        8    20  18    5.2361   472.3    5.718      43.661
2015    5        8    20  24    5.2388   472.3    5.722      43.677
2015    5        8    20  29    5.2416   472.2    5.726      43.693
2015    5        8    20  35    5.2444   472.2    5.731      43.710
2015    5        8    20  41    5.2472   472.2    5.735      43.727
2015    5        8    20  46    5.2501   472.2    5.739      43.744
2015    5        8    20  52    5.2530   472.2    5.743      43.761
2015    5        8    20  58    5.2560   472.2    5.748      43.779
2015    5        8    21   3    5.2591   472.2    5.752      43.797
2015    5        8    21   9    5.2622   472.2    5.757      43.815
2015    5        8    21  14    5.2653   472.2    5.761      43.834
2015    5        8    21  20    5.2685   472.2    5.766      43.853
2015    5        8    21  26    5.2718   472.1    5.771      43.873
2015    5        8    21  31    5.2751   472.1    5.775      43.893
2015    5        8    21  37    5.2785   472.1    5.780      43.913
2015    5        8    21  43    5.2819   472.1    5.785      43.934
2015    5        8    21  48    5.2854   472.1    5.790      43.956
2015    5        8    21  54    5.2890   472.1    5.795      43.978
2015    5        8    22   0    5.2926   472.1    5.801      44.000
2015    5        8    22   5    5.2962   472.1    5.806      44.023
2015    5        8    22  11    5.2999   472.1    5.811      44.046
2015    5        8    22  17    5.3037   472.1    5.817      44.069
2015    5        8    22  22    5.3075   472.1    5.822      44.093
2015    5        8    22  28    5.3114   472.1    5.828      44.117
2015    5        8    22  34    5.3153   472.1    5.834      44.141
2015    5        8    22  39    5.3194   472.1    5.840      44.166
2015    5        8    22  45    5.3235   472.1    5.846      44.192
2015    5        8    22  51    5.3276   472.1    5.853      44.218
2015    5        8    22  56    5.3319   472.1    5.859      44.245
2015    5        8    23   2    5.3362   472.1    5.866      44.272
2015    5        8    23   7    5.3407   472.1    5.874      44.301
2015    5        8    23  13    5.3452   472.1    5.881      44.331
2015    5        8    23  19    5.3499   472.2    5.889      44.363
2015    5        8    23  24    5.3546   472.2    5.897      44.399
2015    5        8    23  30    5.3594   472.2    5.904      44.436
2015    5        8    23  36    5.3642   472.2    5.912      44.476
2015    5        8    23  41    5.3691   472.3    5.920      44.518
2015    5        8    23  47    5.3740   472.3    5.928      44.562
2015    5        8    23  53    5.3789   472.4    5.935      44.605
2015    5        8    23  58    5.3838   472.4    5.943      44.649
2015    5        9     0   4    5.3888   472.5    5.950      44.691
2015    5        9     0  10    5.3937   472.5    5.958      44.734
2015    5        9     0  15    5.3986   472.5    5.965      44.776
2015    5        9     0  21    5.4035   472.6    5.972      44.818
2015    5        9     0  27    5.4083   472.6    5.979      44.859
2015    5        9     0  32    5.4131   472.7    5.986      44.900
2015    5        9     0  38    5.4180   472.7    5.992      44.940
2015    5        9     0  43    5.4227   472.8    5.999      44.981
2015    5        9     0  49    5.4274   472.8    6.005      45.021
2015    5        9     0  55    5.4321   472.9    6.011      45.062
2015    5        9     1   0    5.4368   473.0    6.018      45.104
2015    5        9     1   6    5.4414   473.0    6.023      45.146
2015    5        9     1  12    5.4460   473.1    6.029      45.188
2015    5        9     1  17    5.4505   473.1    6.035      45.230
2015    5        9     1  23    5.4550   473.2    6.040      45.272
2015    5        9     1  29    5.4595   473.3    6.045      45.314
2015    5        9     1  34    5.4640   473.3    6.051      45.356
2015    5        9     1  40    5.4685   473.4    6.055      45.397
2015    5        9     1  46    5.4729   473.5    6.060      45.439
2015    5        9     1  51    5.4773   473.5    6.065      45.481
2015    5        9     1  57    5.4817   473.6    6.069      45.522
2015    5        9     2   3    5.4861   473.6    6.073      45.563
2015    5        9     2   8    5.4905   473.7    6.077      45.604
2015    5        9     2  14    5.4948   473.8    6.081      45.644
2015    5        9     2  19    5.4992   473.8    6.085      45.684
2015    5        9     2  25    5.5035   473.9    6.089      45.723
2015    5        9     2  31    5.5079   474.0    6.092      45.762
2015    5        9     2  36    5.5122   474.0    6.096      45.800
2015    5        9     2  42    5.5166   474.1    6.099      45.838
2015    5        9     2  48    5.5209   474.2    6.103      45.875
2015    5        9     2  53    5.5252   474.2    6.106      45.912
2015    5        9     2  59    5.5296   474.3    6.109      45.948
2015    5        9     3   5    5.5340   474.4    6.112      45.984
2015    5        9     3  10    5.5383   474.4    6.116      46.020
2015    5        9     3  16    5.5427   474.5    6.119      46.055
2015    5        9     3  22    5.5471   474.5    6.122      46.090
2015    5        9     3  27    5.5515   474.6    6.125      46.125
2015    5        9     3  33    5.5560   474.7    6.128      46.160
2015    5        9     3  39    5.5605   474.7    6.131      46.195
2015    5        9     3  44    5.5649   474.8    6.134      46.230
2015    5        9     3  50    5.5695   474.9    6.137      46.265
2015    5        9     3  56    5.5740   474.9    6.140      46.300
2015    5        9     4   1    5.5786   475.0    6.143      46.336
2015    5        9     4   7    5.5833   475.1    6.146      46.372
2015    5        9     4  12    5.5879   475.1    6.150      46.409
2015    5        9     4  18    5.5927   475.2    6.153      46.446
2015    5        9     4  24    5.5974   475.3    6.157      46.484
2015    5        9     4  29    5.6022   475.4    6.160      46.523
2015    5        9     4  35    5.6071   475.4    6.164      46.563
2015    5        9     4  41    5.6120   475.5    6.168      46.603
2015    5        9     4  46    5.6170   475.6    6.172      46.644
2015    5        9     4  52    5.6220   475.7    6.176      46.687
2015    5        9     4  58    5.6271   475.8    6.180      46.731
2015    5        9     5   3    5.6322   475.8    6.185      46.775
2015    5        9     5   9    5.6373   475.9    6.190      46.821
2015    5        9     5  15    5.6425   476.0    6.195      46.868
2015    5        9     5  20    5.6477   476.1    6.200      46.917
2015    5        9     5  26    5.6529   476.2    6.205      46.967
2015    5        9     5  32    5.6582   476.3    6.211      47.020
2015    5        9     5  37    5.6635   476.4    6.217      47.074
2015    5        9     5  43    5.6688   476.5    6.223      47.130
2015    5        9     5  48    5.6741   476.6    6.229      47.188
2015    5        9     5  54    5.6794   476.8    6.235      47.247
2015    5        9     6   0    5.6848   476.9    6.241      47.307
2015    5        9     6   5    5.6902   477.0    6.248      47.367
2015    5        9     6  11    5.6956   477.1    6.254      47.427
2015    5        9     6  17    5.7011   477.2    6.261      47.488
2015    5        9     6  22    5.7066   477.4    6.268      47.550
2015    5        9     6  28    5.7122   477.5    6.275      47.612
2015    5        9     6  34    5.7178   477.6    6.283      47.675
2015    5        9     6  39    5.7234   477.7    6.290      47.739
2015    5        9     6  45    5.7291   477.9    6.298      47.806
2015    5        9     6  51    5.7348   478.0    6.305      47.875
2015    5        9     6  56    5.7405   478.2    6.313      47.945
2015    5        9     7   2    5.7461   478.3    6.320      48.016
2015    5        9     7   8    5.7517   478.5    6.327      48.088
2015    5        9     7  13    5.7573   478.7    6.334      48.161
2015    5        9     7  19    5.7628   478.8    6.341      48.233
2015    5        9     7  24    5.7683   479.0    6.348      48.304
2015    5        9     7  30    5.7738   479.1    6.354      48.375
2015    5        9     7  36    5.7792   479.3    6.361      48.445
2015    5        9     7  41    5.7846   479.5    6.367      48.515
2015    5        9     7  47    5.7899   479.6    6.373      48.584
2015    5        9     7  53    5.7953   479.8    6.379      48.652
2015    5        9     7  58    5.8006   480.0    6.385      48.721
2015    5        9     8   4    5.8060   480.1    6.392      48.788
2015    5        9     8  10    5.8114   480.3    6.398      48.856
2015    5        9     8  15    5.8169   480.4    6.404      48.923
2015    5        9     8  21    5.8224   480.6    6.411      48.992
2015    5        9     8  27    5.8280   480.8    6.418      49.063
2015    5        9     8  32    5.8337   480.9    6.425      49.136
2015    5        9     8  38    5.8394   481.1    6.432      49.209
2015    5        9     8  44    5.8451   481.3    6.439      49.284
2015    5        9     8  49    5.8509   481.5    6.446      49.361
2015    5        9     8  55    5.8568   481.6    6.452      49.441
2015    5        9     9   0    5.8627   481.8    6.459      49.522
2015    5        9     9   6    5.8687   482.0    6.466      49.603
2015    5        9     9  12    5.8746   482.2    6.472      49.687
2015    5        9     9  17    5.8805   482.4    6.478      49.772
2015    5        9     9  23    5.8863   482.6    6.483      49.858
2015    5        9     9  29    5.8921   482.8    6.488      49.943
2015    5        9     9  34    5.8977   483.0    6.493      50.026
2015    5        9     9  40    5.9033   483.2    6.497      50.107
2015    5        9     9  46    5.9087   483.4    6.500      50.186
2015    5        9     9  51    5.9140   483.6    6.503      50.264
2015    5        9     9  57    5.9192   483.8    6.505      50.340
2015    5        9    10   3    5.9243   484.0    6.507      50.414
2015    5        9    10   8    5.9292   484.2    6.509      50.486
2015    5        9    10  14    5.9341   484.4    6.510      50.556
2015    5        9    10  20    5.9387   484.6    6.510      50.623
2015    5        9    10  25    5.9433   484.8    6.510      50.689
2015    5        9    10  31    5.9477   485.0    6.510      50.753
2015    5        9    10  37    5.9521   485.2    6.509      50.816
2015    5        9    10  42    5.9563   485.4    6.509      50.876
2015    5        9    10  48    5.9603   485.6    6.507      50.935
2015    5        9    10  53    5.9643   485.8    6.506      50.992
2015    5        9    10  59    5.9682   485.9    6.504      51.047
2015    5        9    11   5    5.9720   486.1    6.502      51.101
2015    5        9    11  10    5.9757   486.3    6.500      51.153
2015    5        9    11  16    5.9793   486.5    6.497      51.204
2015    5        9    11  22    5.9828   486.7    6.495      51.254
2015    5        9    11  27    5.9863   486.8    6.492      51.302
2015    5        9    11  33    5.9897   487.0    6.489      51.349
2015    5        9    11  39    5.9931   487.2    6.486      51.395
2015    5        9    11  44    5.9963   487.4    6.483      51.441
2015    5        9    11  50    5.9996   487.5    6.480      51.485
2015    5        9    11  56    6.0028   487.7    6.477      51.528
2015    5        9    12   1    6.0060   487.9    6.474      51.571
2015    5        9    12   7    6.0092   488.0    6.470      51.613
2015    5        9    12  13    6.0123   488.2    6.467      51.654
2015    5        9    12  18    6.0153   488.4    6.464      51.695
2015    5        9    12  24    6.0183   488.5    6.461      51.736
2015    5        9    12  29    6.0212   488.7    6.457      51.776
2015    5        9    12  35    6.0240   488.9    6.454      51.816
2015    5        9    12  41    6.0267   489.0    6.451      51.855
2015    5        9    12  46    6.0293   489.2    6.448      51.894
2015    5        9    12  52    6.0317   489.4    6.445      51.934
2015    5        9    12  58    6.0340   489.5    6.442      51.974
2015    5        9    13   3    6.0361   489.7    6.439      52.014
2015    5        9    13   9    6.0381   489.9    6.436      52.054
2015    5        9    13  15    6.0399   490.0    6.433      52.095
2015    5        9    13  20    6.0416   490.2    6.430      52.136
2015    5        9    13  26    6.0430   490.4    6.427      52.176
2015    5        9    13  32    6.0442   490.6    6.424      52.215
2015    5        9    13  37    6.0452   490.7    6.421      52.255
2015    5        9    13  43    6.0461   490.9    6.418      52.293
2015    5        9    13  49    6.0468   491.1    6.415      52.331
2015    5        9    13  54    6.0473   491.3    6.412      52.368
2015    5        9    14   0    6.0476   491.4    6.409      52.405
2015    5        9    14   5    6.0479   491.6    6.405      52.441
2015    5        9    14  11    6.0481   491.8    6.402      52.477
2015    5        9    14  17    6.0482   491.9    6.399      52.513
2015    5        9    14  22    6.0483   492.1    6.397      52.549
2015    5        9    14  28    6.0483   492.2    6.394      52.584
2015    5        9    14  34    6.0482   492.4    6.391      52.620
2015    5        9    14  39    6.0481   492.6    6.389      52.656
2015    5        9    14  45    6.0480   492.7    6.387      52.693
2015    5        9    14  51    6.0479   492.9    6.385      52.730
2015    5        9    14  56    6.0477   493.0    6.383      52.769
2015    5        9    15   2    6.0476   493.2    6.382      52.810
2015    5        9    15   8    6.0474   493.3    6.381      52.853
2015    5        9    15  13    6.0472   493.5    6.380      52.898
2015    5        9    15  19    6.0470   493.7    6.380      52.945
2015    5        9    15  25    6.0469   493.8    6.380      52.995
2015    5        9    15  30    6.0467   494.0    6.380      53.047
2015    5        9    15  36    6.0465   494.1    6.380      53.102
2015    5        9    15  42    6.0463   494.3    6.382      53.158
2015    5        9    15  47    6.0460   494.4    6.383      53.217
2015    5        9    15  53    6.0458   494.6    6.385      53.281
2015    5        9    15  58    6.0455   494.8    6.387      53.349
2015    5        9    16   4    6.0452   495.0    6.390      53.419
2015    5        9    16  10    6.0449   495.1    6.393      53.492
2015    5        9    16  15    6.0446   495.3    6.396      53.568
2015    5        9    16  21    6.0442   495.5    6.399      53.648
2015    5        9    16  27    6.0438   495.7    6.402      53.732
2015    5        9    16  32    6.0434   495.9    6.405      53.817
2015    5        9    16  38    6.0429   496.1    6.408      53.903
2015    5        9    16  44    6.0424   496.4    6.410      53.990
2015    5        9    16  49    6.0418   496.6    6.412      54.078
2015    5        9    16  55    6.0411   496.8    6.413      54.167
2015    5        9    17   1    6.0403   497.0    6.414      54.252
2015    5        9    17   6    6.0394   497.3    6.415      54.336
2015    5        9    17  12    6.0384   497.5    6.415      54.418
2015    5        9    17  18    6.0372   497.7    6.415      54.498
2015    5        9    17  23    6.0358   497.9    6.414      54.576
2015    5        9    17  29    6.0343   498.2    6.413      54.653
2015    5        9    17  34    6.0327   498.4    6.411      54.728
2015    5        9    17  40    6.0309   498.6    6.410      54.801
2015    5        9    17  46    6.0289   498.8    6.407      54.873
2015    5        9    17  51    6.0269   499.1    6.405      54.944
2015    5        9    17  57    6.0247   499.3    6.403      55.014
2015    5        9    18   3    6.0224   499.6    6.400      55.083
2015    5        9    18   8    6.0200   499.8    6.397      55.151
2015    5        9    18  14    6.0175   500.0    6.393      55.217
2015    5        9    18  20    6.0150   500.3    6.390      55.283
2015    5        9    18  25    6.0125   500.5    6.386      55.349
2015    5        9    18  31    6.0100   500.8    6.383      55.413
2015    5        9    18  37    6.0076   501.0    6.379      55.476
2015    5        9    18  42    6.0052   501.2    6.375      55.539
2015    5        9    18  48    6.0028   501.5    6.370      55.600
2015    5        9    18  54    6.0005   501.7    6.366      55.661
2015    5        9    18  59    5.9982   502.0    6.361      55.722
2015    5        9    19   5    5.9960   502.2    6.356      55.781
2015    5        9    19  10    5.9938   502.5    6.351      55.840
2015    5        9    19  16    5.9918   502.8    6.346      55.897
2015    5        9    19  22    5.9898   503.0    6.341      55.954
2015    5        9    19  27    5.9879   503.3    6.335      56.011
2015    5        9    19  33    5.9862   503.5    6.329      56.066
2015    5        9    19  39    5.9846   503.8    6.324      56.121
2015    5        9    19  44    5.9832   504.1    6.318      56.175
2015    5        9    19  50    5.9819   504.3    6.312      56.228
2015    5        9    19  56    5.9807   504.6    6.305      56.281
2015    5        9    20   1    5.9798   504.9    6.299      56.333
2015    5        9    20   7    5.9790   505.1    6.293      56.384
2015    5        9    20  13    5.9783   505.4    6.286      56.435
2015    5        9    20  18    5.9778   505.7    6.280      56.486
2015    5        9    20  24    5.9775   505.9    6.273      56.536
2015    5        9    20  30    5.9773   506.2    6.266      56.586
2015    5        9    20  35    5.9774   506.5    6.259      56.636
2015    5        9    20  41    5.9775   506.8    6.253      56.686
2015    5        9    20  47    5.9779   507.0    6.246      56.736
2015    5        9    20  52    5.9783   507.3    6.239      56.785
2015    5        9    20  58    5.9790   507.6    6.232      56.834
2015    5        9    21   3    5.9798   507.9    6.226      56.884
2015    5        9    21   9    5.9807   508.1    6.219      56.934
2015    5        9    21  15    5.9818   508.4    6.213      56.983
2015    5        9    21  20    5.9831   508.7    6.206      57.033
2015    5        9    21  26    5.9845   509.0    6.200      57.084
2015    5        9    21  32    5.9861   509.3    6.193      57.134
2015    5        9    21  37    5.9877   509.6    6.187      57.185
2015    5        9    21  43    5.9896   509.9    6.181      57.236
2015    5        9    21  49    5.9915   510.1    6.176      57.288
2015    5        9    21  54    5.9936   510.4    6.170      57.340
2015    5        9    22   0    5.9958   510.7    6.165      57.393
2015    5        9    22   6    5.9982   511.0    6.159      57.446
2015    5        9    22  11    6.0007   511.3    6.155      57.501
2015    5        9    22  17    6.0033   511.6    6.150      57.556
2015    5        9    22  23    6.0060   511.9    6.146      57.613
2015    5        9    22  28    6.0088   512.2    6.142      57.671
2015    5        9    22  34    6.0118   512.5    6.138      57.730
2015    5        9    22  39    6.0148   512.8    6.135      57.791
2015    5        9    22  45    6.0180   513.1    6.132      57.855
2015    5        9    22  51    6.0213   513.4    6.130      57.920
2015    5        9    22  56    6.0247   513.7    6.128      57.987
2015    5        9    23   2    6.0282   514.0    6.126      58.057
2015    5        9    23   8    6.0318   514.3    6.126      58.130
2015    5        9    23  13    6.0355   514.6    6.125      58.205
2015    5        9    23  19    6.0393   515.0    6.126      58.284
2015    5        9    23  25    6.0433   515.3    6.127      58.365
2015    5        9    23  30    6.0474   515.6    6.129      58.450
2015    5        9    23  36    6.0517   515.9    6.132      58.539
2015    5        9    23  42    6.0560   516.3    6.135      58.631
2015    5        9    23  47    6.0606   516.6    6.139      58.728
2015    5        9    23  53    6.0653   516.9    6.145      58.828
2015    5        9    23  59    6.0702   517.3    6.151      58.933
2015    5       10     0   4    6.0752   517.6    6.158      59.042
2015    5       10     0  10    6.0804   518.0    6.166      59.155
2015    5       10     0  15    6.0858   518.3    6.175      59.273
2015    5       10     0  21    6.0914   518.7    6.186      59.397
2015    5       10     0  27    6.0971   519.0    6.197      59.527
2015    5       10     0  32    6.1029   519.4    6.209      59.664
2015    5       10     0  38    6.1089   519.7    6.222      59.807
2015    5       10     0  44    6.1149   520.1    6.236      59.959
2015    5       10     0  49    6.1211   520.5    6.250      60.120
2015    5       10     0  55    6.1273   520.9    6.265      60.289
2015    5       10     1   1    6.1337   521.2    6.280      60.470
2015    5       10     1   6    6.1400   521.6    6.296      60.664
2015    5       10     1  12    6.1464   522.1    6.311      60.871
2015    5       10     1  18    6.1527   522.5    6.326      61.090
2015    5       10     1  23    6.1590   522.9    6.342      61.319
2015    5       10     1  29    6.1652   523.3    6.357      61.555
2015    5       10     1  35    6.1713   523.7    6.372      61.797
2015    5       10     1  40    6.1773   524.1    6.387      62.042
2015    5       10     1  46    6.1833   524.5    6.402      62.289
2015    5       10     1  52    6.1892   524.9    6.417      62.537
2015    5       10     1  57    6.1951   525.3    6.432      62.786
2015    5       10     2   3    6.2009   525.7    6.448      63.037
2015    5       10     2   8    6.2067   526.1    6.464      63.291
2015    5       10     2  14    6.2125   526.5    6.479      63.551
2015    5       10     2  20    6.2184   527.0    6.495      63.819
2015    5       10     2  25    6.2243   527.4    6.510      64.098
2015    5       10     2  31    6.2304   527.9    6.525      64.388
2015    5       10     2  37    6.2364   528.4    6.539      64.690
2015    5       10     2  42    6.2425   528.9    6.552      65.002
2015    5       10     2  48    6.2485   529.5    6.564      65.323
2015    5       10     2  54    6.2545   530.0    6.576      65.651
2015    5       10     2  59    6.2602   530.5    6.586      65.984
2015    5       10     3   5    6.2659   531.0    6.596      66.320
2015    5       10     3  11    6.2713   531.6    6.605      66.661
2015    5       10     3  16    6.2766   532.1    6.613      67.007
2015    5       10     3  22    6.2817   532.7    6.620      67.357
2015    5       10     3  28    6.2866   533.2    6.627      67.711
2015    5       10     3  33    6.2912   533.8    6.632      68.068
2015    5       10     3  39    6.2956   534.4    6.636      68.426
2015    5       10     3  44    6.2997   535.0    6.639      68.781
2015    5       10     3  50    6.3036   535.5    6.641      69.129
2015    5       10     3  56    6.3073   536.1    6.642      69.470
2015    5       10     4   1    6.3107   536.7    6.641      69.804
2015    5       10     4   7    6.3138   537.2    6.640      70.131
2015    5       10     4  13    6.3167   537.8    6.638      70.448
2015    5       10     4  18    6.3193   538.3    6.634      70.756
2015    5       10     4  24    6.3217   538.9    6.630      71.055
2015    5       10     4  30    6.3239   539.4    6.625      71.343
2015    5       10     4  35    6.3260   540.0    6.619      71.621
2015    5       10     4  41    6.3278   540.5    6.612      71.890
2015    5       10     4  47    6.3295   541.0    6.604      72.148
2015    5       10     4  52    6.3311   541.6    6.596      72.395
2015    5       10     4  58    6.3325   542.1    6.588      72.631
2015    5       10     5   4    6.3339   542.6    6.579      72.858
2015    5       10     5   9    6.3351   543.1    6.569      73.075
2015    5       10     5  15    6.3364   543.6    6.559      73.283
2015    5       10     5  20    6.3375   544.1    6.549      73.481
2015    5       10     5  26    6.3386   544.6    6.539      73.668
2015    5       10     5  32    6.3397   545.1    6.528      73.847
2015    5       10     5  37    6.3408   545.6    6.516      74.017
2015    5       10     5  43    6.3419   546.2    6.505      74.178
2015    5       10     5  49    6.3430   546.7    6.493      74.330
2015    5       10     5  54    6.3441   547.2    6.480      74.477
2015    5       10     6   0    6.3453   547.8    6.467      74.619
2015    5       10     6   6    6.3464   548.3    6.454      74.755
2015    5       10     6  11    6.3475   548.9    6.440      74.885
2015    5       10     6  17    6.3485   549.4    6.426      75.008
2015    5       10     6  23    6.3497   550.0    6.412      75.128
2015    5       10     6  28    6.3508   550.5    6.398      75.244
2015    5       10     6  34    6.3521   551.0    6.384      75.354
2015    5       10     6  40    6.3533   551.6    6.371      75.463
2015    5       10     6  45    6.3547   552.1    6.357      75.573
2015    5       10     6  51    6.3562   552.6    6.344      75.684
2015    5       10     6  56    6.3578   553.1    6.330      75.795
2015    5       10     7   2    6.3594   553.6    6.317      75.906
2015    5       10     7   8    6.3613   554.1    6.305      76.017
2015    5       10     7  13    6.3633   554.7    6.292      76.127
2015    5       10     7  19    6.3655   555.2    6.279      76.236
2015    5       10     7  25    6.3678   555.7    6.267      76.341
2015    5       10     7  30    6.3703   556.3    6.255      76.438
2015    5       10     7  36    6.3729   556.9    6.243      76.531
2015    5       10     7  42    6.3755   557.5    6.231      76.618
2015    5       10     7  47    6.3781   558.1    6.219      76.697
2015    5       10     7  53    6.3807   558.7    6.207      76.766
2015    5       10     7  59    6.3831   559.3    6.196      76.823
2015    5       10     8   4    6.3854   559.9    6.185      76.871
2015    5       10     8  10    6.3876   560.5    6.173      76.906
2015    5       10     8  16    6.3895   561.1    6.162      76.929
2015    5       10     8  21    6.3913   561.7    6.150      76.944
2015    5       10     8  27    6.3930   562.3    6.139      76.950
2015    5       10     8  33    6.3945   562.9    6.127      76.950
2015    5       10     8  38    6.3960   563.5    6.115      76.944
2015    5       10     8  44    6.3975   564.0    6.103      76.934
2015    5       10     8  49    6.3989   564.6    6.090      76.921
2015    5       10     8  55    6.4003   565.2    6.078      76.904
2015    5       10     9   1    6.4018   565.7    6.065      76.886
2015    5       10     9   6    6.4034   566.3    6.052      76.867
2015    5       10     9  12    6.4051   566.8    6.039      76.849
2015    5       10     9  18    6.4069   567.4    6.025      76.832
2015    5       10     9  23    6.4089   568.0    6.012      76.818
2015    5       10     9  29    6.4110   568.5    5.998      76.806
2015    5       10     9  35    6.4133   569.1    5.984      76.796
2015    5       10     9  40    6.4158   569.7    5.970      76.787
2015    5       10     9  46    6.4186   570.3    5.956      76.779
2015    5       10     9  52    6.4215   570.8    5.942      76.771
2015    5       10     9  57    6.4246   571.4    5.928      76.761
2015    5       10    10   3    6.4277   572.0    5.913      76.751
2015    5       10    10   9    6.4309   572.5    5.898      76.740
2015    5       10    10  14    6.4340   573.1    5.883      76.729
2015    5       10    10  20    6.4371   573.7    5.868      76.718
2015    5       10    10  25    6.4401   574.3    5.853      76.707
2015    5       10    10  31    6.4431   574.9    5.838      76.697
2015    5       10    10  37    6.4459   575.5    5.822      76.686
2015    5       10    10  42    6.4487   576.1    5.806      76.674
2015    5       10    10  48    6.4513   576.7    5.789      76.662
2015    5       10    10  54    6.4538   577.3    5.772      76.648
2015    5       10    10  59    6.4560   578.0    5.755      76.632
2015    5       10    11   5    6.4580   578.7    5.737      76.614
2015    5       10    11  11    6.4598   579.3    5.719      76.593
2015    5       10    11  16    6.4614   580.1    5.699      76.569
2015    5       10    11  22    6.4628   580.8    5.679      76.538
2015    5       10    11  28    6.4639   581.5    5.658      76.499
2015    5       10    11  33    6.4647   582.2    5.636      76.451
2015    5       10    11  39    6.4653   583.0    5.613      76.396
2015    5       10    11  45    6.4655   583.8    5.587      76.320
2015    5       10    11  50    6.4653   584.5    5.559      76.220
2015    5       10    11  56    6.4646   585.3    5.530      76.099
2015    5       10    12   2    6.4637   586.0    5.500      75.964
2015    5       10    12   7    6.4627   586.7    5.469      75.819
2015    5       10    12  13    6.4615   587.3    5.439      75.665
2015    5       10    12  18    6.4605   587.9    5.410      75.516
2015    5       10    12  24    6.4597   588.5    5.383      75.379
2015    5       10    12  30    6.4592   589.0    5.356      75.254
2015    5       10    12  35    6.4591   589.6    5.331      75.142
2015    5       10    12  41    6.4592   590.2    5.306      75.045
2015    5       10    12  47    6.4596   590.8    5.283      74.956
2015    5       10    12  52    6.4603   591.3    5.261      74.876
2015    5       10    12  58    6.4613   591.8    5.239      74.806
2015    5       10    13   4    6.4625   592.3    5.219      74.744
2015    5       10    13   9    6.4639   592.7    5.199      74.689
2015    5       10    13  15    6.4654   593.2    5.181      74.637
2015    5       10    13  21    6.4672   593.6    5.163      74.591
2015    5       10    13  26    6.4692   594.0    5.145      74.551
2015    5       10    13  32    6.4715   594.4    5.129      74.518
2015    5       10    13  38    6.4740   594.8    5.113      74.490
2015    5       10    13  43    6.4768   595.3    5.098      74.469
2015    5       10    13  49    6.4799   595.8    5.083      74.463
2015    5       10    13  54    6.4832   596.3    5.070      74.470
2015    5       10    14   0    6.4869   596.8    5.057      74.486
2015    5       10    14   6    6.4908   597.3    5.045      74.508
2015    5       10    14  11    6.4951   597.8    5.033      74.537
2015    5       10    14  17    6.4996   598.3    5.021      74.569
2015    5       10    14  23    6.5045   598.8    5.010      74.597
2015    5       10    14  28    6.5095   599.2    4.998      74.623
2015    5       10    14  34    6.5148   599.7    4.987      74.648
2015    5       10    14  40    6.5204   600.1    4.977      74.677
2015    5       10    14  45    6.5261   600.5    4.966      74.710
2015    5       10    14  51    6.5319   600.9    4.955      74.752
2015    5       10    14  57    6.5378   601.4    4.945      74.806
2015    5       10    15   2    6.5435   601.9    4.935      74.868
2015    5       10    15   8    6.5491   602.4    4.924      74.935
2015    5       10    15  14    6.5544   603.0    4.914      75.007
2015    5       10    15  19    6.5595   603.5    4.903      75.080
2015    5       10    15  25    6.5643   604.0    4.893      75.151
2015    5       10    15  30    6.5688   604.5    4.882      75.216
2015    5       10    15  36    6.5729   605.0    4.871      75.275
2015    5       10    15  42    6.5769   605.5    4.860      75.331
2015    5       10    15  47    6.5804   606.0    4.849      75.382
2015    5       10    15  53    6.5836   606.5    4.837      75.430
2015    5       10    15  59    6.5865   607.0    4.826      75.473
2015    5       10    16   4    6.5892   607.4    4.814      75.514
2015    5       10    16  10    6.5915   607.9    4.802      75.554
2015    5       10    16  16    6.5935   608.5    4.790      75.592
2015    5       10    16  21    6.5952   609.0    4.777      75.630
2015    5       10    16  27    6.5967   609.5    4.765      75.666
2015    5       10    16  33    6.5978   610.0    4.752      75.700
2015    5       10    16  38    6.5987   610.6    4.740      75.731
2015    5       10    16  44    6.5992   611.1    4.727      75.757
2015    5       10    16  50    6.5995   611.5    4.714      75.780
2015    5       10    16  55    6.5994   612.0    4.702      75.800
2015    5       10    17   1    6.5991   612.5    4.689      75.814
2015    5       10    17   6    6.5983   612.9    4.677      75.825
2015    5       10    17  12    6.5974   613.4    4.664      75.835
2015    5       10    17  18    6.5961   613.8    4.652      75.846
2015    5       10    17  23    6.5946   614.3    4.639      75.856
2015    5       10    17  29    6.5926   614.8    4.627      75.866
2015    5       10    17  35    6.5904   615.3    4.614      75.884
2015    5       10    17  40    6.5877   615.9    4.601      75.908
2015    5       10    17  46    6.5849   616.5    4.588      75.938
2015    5       10    17  52    6.5815   617.2    4.574      75.969
2015    5       10    17  57    6.5780   617.8    4.559      75.996
2015    5       10    18   3    6.5739   618.5    4.543      76.017
2015    5       10    18   9    6.5697   619.2    4.527      76.036
2015    5       10    18  14    6.5649   619.9    4.509      76.042
2015    5       10    18  20    6.5596   620.5    4.490      76.025
2015    5       10    18  26    6.5537   621.1    4.471      75.990
2015    5       10    18  31    6.5473   621.7    4.452      75.945
2015    5       10    18  37    6.5405   622.2    4.432      75.891
2015    5       10    18  43    6.5334   622.7    4.413      75.824
2015    5       10    18  48    6.5258   623.2    4.394      75.754
2015    5       10    18  54    6.5183   623.6    4.377      75.687
2015    5       10    18  59    6.5105   624.1    4.359      75.624
2015    5       10    19   5    6.5028   624.5    4.343      75.564
2015    5       10    19  11    6.4949   625.0    4.327      75.507
2015    5       10    19  16    6.4871   625.4    4.311      75.452
2015    5       10    19  22    6.4791   625.8    4.297      75.401
2015    5       10    19  28    6.4712   626.2    4.282      75.353
2015    5       10    19  33    6.4631   626.6    4.269      75.310
2015    5       10    19  39    6.4550   627.0    4.255      75.273
2015    5       10    19  45    6.4467   627.3    4.242      75.239
2015    5       10    19  50    6.4385   627.7    4.229      75.208
2015    5       10    19  56    6.4300   628.1    4.217      75.180
2015    5       10    20   2    6.4215   628.5    4.205      75.154
2015    5       10    20   7    6.4126   628.9    4.193      75.129
2015    5       10    20  13    6.4038   629.3    4.181      75.106
2015    5       10    20  19    6.3946   629.7    4.169      75.084
2015    5       10    20  24    6.3854   630.1    4.157      75.061
2015    5       10    20  30    6.3758   630.4    4.145      75.035
2015    5       10    20  35    6.3661   630.8    4.133      75.005
2015    5       10    20  41    6.3561   631.2    4.122      74.975
2015    5       10    20  47    6.3459   631.5    4.110      74.943
2015    5       10    20  52    6.3355   631.8    4.099      74.911
2015    5       10    20  58    6.3251   632.2    4.087      74.883
2015    5       10    21   4    6.3144   632.5    4.076      74.856
2015    5       10    21   9    6.3039   632.8    4.065      74.832
2015    5       10    21  15    6.2931   633.2    4.055      74.806
2015    5       10    21  21    6.2824   633.5    4.044      74.779
2015    5       10    21  26    6.2715   633.8    4.034      74.751
2015    5       10    21  32    6.2606   634.1    4.023      74.724
2015    5       10    21  38    6.2494   634.5    4.013      74.697
2015    5       10    21  43    6.2381   634.9    4.002      74.671
2015    5       10    21  49    6.2265   635.3    3.992      74.649
2015    5       10    21  55    6.2147   635.7    3.981      74.630
2015    5       10    22   0    6.2025   636.2    3.969      74.612
2015    5       10    22   6    6.1901   636.7    3.957      74.587
2015    5       10    22  11    6.1772   637.1    3.945      74.553
2015    5       10    22  17    6.1641   637.6    3.932      74.509
2015    5       10    22  23    6.1504   638.1    3.919      74.460
2015    5       10    22  28    6.1365   638.5    3.905      74.400
2015    5       10    22  34    6.1221   638.9    3.891      74.326
2015    5       10    22  40    6.1074   639.2    3.877      74.244
2015    5       10    22  45    6.0924   639.6    3.863      74.157
2015    5       10    22  51    6.0773   640.0    3.848      74.067
2015    5       10    22  57    6.0620   640.3    3.835      73.970
2015    5       10    23   2    6.0465   640.7    3.821      73.872
2015    5       10    23   8    6.0311   641.0    3.808      73.778
2015    5       10    23  14    6.0158   641.3    3.795      73.689
2015    5       10    23  19    6.0006   641.7    3.783      73.603
2015    5       10    23  25    5.9855   642.0    3.771      73.520
2015    5       10    23  31    5.9708   642.3    3.760      73.439
2015    5       10    23  36    5.9562   642.5    3.749      73.360
2015    5       10    23  42    5.9420   642.8    3.738      73.285
2015    5       10    23  48    5.9279   643.0    3.728      73.211
2015    5       10    23  53    5.9141   643.2    3.718      73.140
2015    5       10    23  59    5.9004   643.4    3.709      73.072
2015    5       11     0   4    5.8870   643.7    3.700      73.010
2015    5       11     0  10    5.8738   643.9    3.691      72.952
2015    5       11     0  16    5.8609   644.1    3.683      72.899
2015    5       11     0  21    5.8480   644.4    3.674      72.850
2015    5       11     0  27    5.8356   644.7    3.666      72.804
2015    5       11     0  33    5.8231   645.0    3.659      72.765
2015    5       11     0  38    5.8109   645.3    3.651      72.729
2015    5       11     0  44    5.7988   645.6    3.643      72.693
2015    5       11     0  50    5.7868   646.0    3.635      72.658
2015    5       11     0  55    5.7749   646.3    3.627      72.624
2015    5       11     1   1    5.7632   646.6    3.619      72.589
2015    5       11     1   7    5.7515   646.9    3.611      72.552
2015    5       11     1  12    5.7401   647.2    3.603      72.512
2015    5       11     1  18    5.7286   647.5    3.595      72.473
2015    5       11     1  24    5.7174   647.8    3.586      72.435
2015    5       11     1  29    5.7061   648.1    3.578      72.395
2015    5       11     1  35    5.6951   648.5    3.569      72.356
2015    5       11     1  40    5.6841   648.8    3.561      72.317
2015    5       11     1  46    5.6733   649.1    3.552      72.280
2015    5       11     1  52    5.6625   649.5    3.543      72.243
2015    5       11     1  57    5.6519   649.8    3.535      72.205
2015    5       11     2   3    5.6413   650.2    3.526      72.168
2015    5       11     2   9    5.6308   650.6    3.517      72.133
2015    5       11     2  14    5.6204   651.0    3.508      72.093
2015    5       11     2  20    5.6101   651.3    3.498      72.046
2015    5       11     2  26    5.5999   651.7    3.489      71.996
2015    5       11     2  31    5.5900   652.0    3.480      71.941
2015    5       11     2  37    5.5801   652.3    3.471      71.883
2015    5       11     2  43    5.5706   652.5    3.463      71.824
2015    5       11     2  48    5.5611   652.8    3.455      71.769
2015    5       11     2  54    5.5520   653.0    3.447      71.719
2015    5       11     3   0    5.5430   653.2    3.440      71.672
2015    5       11     3   5    5.5343   653.4    3.433      71.632
2015    5       11     3  11    5.5256   653.6    3.427      71.597
2015    5       11     3  16    5.5173   653.8    3.421      71.562
2015    5       11     3  22    5.5090   654.0    3.415      71.531
2015    5       11     3  28    5.5009   654.2    3.409      71.502
2015    5       11     3  33    5.4929   654.4    3.404      71.476
2015    5       11     3  39    5.4850   654.6    3.399      71.457
2015    5       11     3  45    5.4772   654.9    3.393      71.439
2015    5       11     3  50    5.4696   655.1    3.388      71.423
2015    5       11     3  56    5.4619   655.3    3.383      71.409
2015    5       11     4   2    5.4544   655.6    3.378      71.396
2015    5       11     4   7    5.4470   655.8    3.372      71.381
2015    5       11     4  13    5.4397   656.1    3.367      71.364
2015    5       11     4  19    5.4323   656.3    3.362      71.344
2015    5       11     4  24    5.4250   656.5    3.357      71.325
2015    5       11     4  30    5.4177   656.8    3.351      71.306
2015    5       11     4  36    5.4105   657.0    3.346      71.288
2015    5       11     4  41    5.4032   657.3    3.340      71.269
2015    5       11     4  47    5.3961   657.6    3.334      71.250
2015    5       11     4  52    5.3890   657.8    3.328      71.228
2015    5       11     4  58    5.3820   658.1    3.323      71.204
2015    5       11     5   4    5.3751   658.3    3.317      71.178
2015    5       11     5   9    5.3684   658.5    3.311      71.151
2015    5       11     5  15    5.3617   658.7    3.306      71.124
2015    5       11     5  21    5.3552   658.9    3.300      71.098
2015    5       11     5  26    5.3487   659.1    3.295      71.072
2015    5       11     5  32    5.3425   659.3    3.290      71.049
2015    5       11     5  38    5.3363   659.5    3.284      71.027
2015    5       11     5  43    5.3302   659.7    3.279      71.008
2015    5       11     5  49    5.3243   660.0    3.274      70.992
2015    5       11     5  55    5.3185   660.2    3.270      70.978
2015    5       11     6   0    5.3128   660.4    3.265      70.967
2015    5       11     6   6    5.3072   660.6    3.260      70.958
2015    5       11     6  12    5.3018   660.9    3.256      70.950
2015    5       11     6  17    5.2964   661.1    3.251      70.944
2015    5       11     6  23    5.2911   661.3    3.247      70.938
2015    5       11     6  29    5.2858   661.5    3.243      70.931
2015    5       11     6  34    5.2807   661.7    3.238      70.924
2015    5       11     6  40    5.2757   661.9    3.234      70.918
2015    5       11     6  45    5.2708   662.1    3.230      70.912
2015    5       11     6  51    5.2660   662.3    3.226      70.906
2015    5       11     6  57    5.2612   662.5    3.222      70.900
2015    5       11     7   2    5.2566   662.7    3.219      70.894
2015    5       11     7   8    5.2521   662.8    3.215      70.889
2015    5       11     7  14    5.2476   663.0    3.212      70.886
2015    5       11     7  19    5.2432   663.1    3.209      70.883
2015    5       11     7  25    5.2390   663.3    3.206      70.882
2015    5       11     7  31    5.2347   663.4    3.203      70.883
2015    5       11     7  36    5.2306   663.6    3.200      70.885
2015    5       11     7  42    5.2264   663.7    3.198      70.888
2015    5       11     7  48    5.2224   663.8    3.195      70.894
2015    5       11     7  53    5.2184   664.0    3.193      70.901
2015    5       11     7  59    5.2145   664.1    3.191      70.909
2015    5       11     8   5    5.2105   664.2    3.189      70.919
2015    5       11     8  10    5.2067   664.4    3.187      70.928
2015    5       11     8  16    5.2029   664.5    3.184      70.938
2015    5       11     8  21    5.1991   664.6    3.182      70.947
2015    5       11     8  27    5.1954   664.7    3.180      70.955
2015    5       11     8  33    5.1917   664.9    3.178      70.963
2015    5       11     8  38    5.1880   665.0    3.175      70.969
2015    5       11     8  44    5.1844   665.1    3.173      70.975
2015    5       11     8  50    5.1809   665.3    3.171      70.980
2015    5       11     8  55    5.1773   665.4    3.168      70.984
2015    5       11     9   1    5.1738   665.5    3.166      70.987
2015    5       11     9   7    5.1704   665.7    3.163      70.991
2015    5       11     9  12    5.1669   665.8    3.161      70.993
2015    5       11     9  18    5.1635   665.9    3.158      70.995
2015    5       11     9  24    5.1601   666.1    3.156      70.997
2015    5       11     9  29    5.1568   666.2    3.153      70.999
2015    5       11     9  35    5.1535   666.3    3.151      71.001
2015    5       11     9  41    5.1502   666.5    3.148      71.002
2015    5       11     9  46    5.1469   666.6    3.146      71.004
2015    5       11     9  52    5.1437   666.7    3.143      71.005
2015    5       11     9  57    5.1405   666.8    3.141      71.006
2015    5       11    10   3    5.1373   667.0    3.138      71.008
2015    5       11    10   9    5.1341   667.1    3.136      71.010
2015    5       11    10  14    5.1310   667.2    3.133      71.012
2015    5       11    10  20    5.1279   667.3    3.131      71.014
2015    5       11    10  26    5.1249   667.5    3.129      71.016
2015    5       11    10  31    5.1218   667.6    3.126      71.019
2015    5       11    10  37    5.1188   667.7    3.124      71.021
2015    5       11    10  43    5.1159   667.8    3.122      71.025
2015    5       11    10  48    5.1129   667.9    3.120      71.028
2015    5       11    10  54    5.1100   668.0    3.118      71.032
2015    5       11    11   0    5.1071   668.2    3.116      71.036
2015    5       11    11   5    5.1043   668.3    3.114      71.040
2015    5       11    11  11    5.1015   668.4    3.112      71.045
2015    5       11    11  17    5.0987   668.5    3.110      71.050
2015    5       11    11  22    5.0959   668.6    3.108      71.055
2015    5       11    11  28    5.0932   668.7    3.106      71.061
2015    5       11    11  34    5.0905   668.8    3.104      71.067
2015    5       11    11  39    5.0878   668.9    3.102      71.073
2015    5       11    11  45    5.0851   669.0    3.100      71.080
2015    5       11    11  50    5.0825   669.1    3.098      71.086
2015    5       11    11  56    5.0799   669.2    3.097      71.093
2015    5       11    12   2    5.0773   669.3    3.095      71.100
2015    5       11    12   7    5.0747   669.4    3.093      71.107
2015    5       11    12  13    5.0721   669.5    3.092      71.114
2015    5       11    12  19    5.0695   669.6    3.090      71.120
2015    5       11    12  24    5.0670   669.7    3.088      71.127
2015    5       11    12  30    5.0645   669.8    3.086      71.133
2015    5       11    12  36    5.0620   669.9    3.085      71.139
2015    5       11    12  41    5.0595   670.0    3.083      71.145
2015    5       11    12  47    5.0569   670.1    3.081      71.150
2015    5       11    12  53    5.0545   670.2    3.080      71.156
2015    5       11    12  58    5.0520   670.3    3.078      71.160
2015    5       11    13   4    5.0495   670.4    3.076      71.165
2015    5       11    13  10    5.0471   670.5    3.074      71.169
2015    5       11    13  15    5.0447   670.6    3.073      71.173
2015    5       11    13  21    5.0423   670.7    3.071      71.177
2015    5       11    13  26    5.0399   670.8    3.069      71.180
2015    5       11    13  32    5.0375   670.9    3.067      71.183
2015    5       11    13  38    5.0351   671.0    3.066      71.187
2015    5       11    13  43    5.0328   671.1    3.064      71.190
2015    5       11    13  49    5.0304   671.2    3.062      71.193
2015    5       11    13  55    5.0281   671.3    3.061      71.196
2015    5       11    14   0    5.0258   671.4    3.059      71.198
2015    5       11    14   6    5.0235   671.5    3.057      71.201
2015    5       11    14  12    5.0213   671.6    3.056      71.204
2015    5       11    14  17    5.0190   671.6    3.054      71.207
2015    5       11    14  23    5.0168   671.7    3.053      71.210
2015    5       11    14  29    5.0146   671.8    3.051      71.214
2015    5       11    14  34    5.0124   671.9    3.049      71.217
2015    5       11    14  40    5.0102   672.0    3.048      71.220
2015    5       11    14  46    5.0080   672.1    3.046      71.224
2015    5       11    14  51    5.0059   672.2    3.045      71.228
2015    5       11    14  57    5.0037   672.2    3.043      71.231
2015    5       11    15   2    5.0016   672.3    3.042      71.235
2015    5       11    15   8    4.9995   672.4    3.040      71.239
2015    5       11    15  14    4.9974   672.5    3.039      71.243
2015    5       11    15  19    4.9953   672.6    3.037      71.247
2015    5       11    15  25    4.9933   672.7    3.036      71.251
2015    5       11    15  31    4.9912   672.7    3.035      71.256
2015    5       11    15  36    4.9892   672.8    3.033      71.260
2015    5       11    15  42    4.9872   672.9    3.032      71.264
2015    5       11    15  48    4.9851   673.0    3.030      71.269
2015    5       11    15  53    4.9832   673.0    3.029      71.273
2015    5       11    15  59    4.9812   673.1    3.028      71.278
2015    5       11    16   5    4.9792   673.2    3.026      71.282
2015    5       11    16  10    4.9772   673.3    3.025      71.287
2015    5       11    16  16    4.9753   673.4    3.023      71.292
2015    5       11    16  22    4.9733   673.4    3.022      71.297
2015    5       11    16  27    4.9714   673.5    3.021      71.302
2015    5       11    16  33    4.9695   673.6    3.020      71.307
2015    5       11    16  38    4.9676   673.6    3.018      71.312
2015    5       11    16  44    4.9657   673.7    3.017      71.317
2015    5       11    16  50    4.9638   673.8    3.016      71.322
2015    5       11    16  55    4.9620   673.9    3.014      71.328
2015    5       11    17   1    4.9601   673.9    3.013      71.333
2015    5       11    17   7    4.9582   674.0    3.012      71.339
2015    5       11    17  12    4.9564   674.1    3.011      71.345
2015    5       11    17  18    4.9546   674.1    3.009      71.350
2015    5       11    17  24    4.9527   674.2    3.008      71.356
2015    5       11    17  29    4.9509   674.3    3.007      71.362
2015    5       11    17  35    4.9491   674.4    3.006      71.368
2015    5       11    17  41    4.9473   674.4    3.005      71.374
2015    5       11    17  46    4.9455   674.5    3.004      71.380
2015    5       11    17  52    4.9437   674.6    3.003      71.386
2015    5       11    17  58    4.9419   674.6    3.001      71.392
2015    5       11    18   3    4.9401   674.7    3.000      71.399
2015    5       11    18   9    4.9384   674.7    2.999      71.405
2015    5       11    18  15    4.9366   674.8    2.998      71.411
2015    5       11    18  20    4.9348   674.9    2.997      71.417
2015    5       11    18  26    4.9331   674.9    2.996      71.424
2015    5       11    18  31    4.9314   675.0    2.995      71.430
2015    5       11    18  37    4.9296   675.1    2.994      71.436
2015    5       11    18  43    4.9279   675.1    2.993      71.442
2015    5       11    18  48    4.9262   675.2    2.992      71.448
2015    5       11    18  54    4.9245   675.2    2.991      71.455
2015    5       11    19   0    4.9229   675.3    2.990      71.461
2015    5       11    19   5    4.9212   675.4    2.989      71.467
2015    5       11    19  11    4.9195   675.4    2.988      71.473
2015    5       11    19  17    4.9179   675.5    2.987      71.478
2015    5       11    19  22    4.9162   675.5    2.987      71.484
2015    5       11    19  28    4.9146   675.6    2.986      71.490
2015    5       11    19  34    4.9130   675.6    2.985      71.496
2015    5       11    19  39    4.9114   675.7    2.984      71.501
2015    5       11    19  45    4.9098   675.8    2.983      71.506
2015    5       11    19  51    4.9082   675.8    2.982      71.511
2015    5       11    19  56    4.9066   675.9    2.981      71.516
2015    5       11    20   2    4.9050   675.9    2.980      71.521
2015    5       11    20   7    4.9035   676.0    2.980      71.526
2015    5       11    20  13    4.9019   676.0    2.979      71.530
2015    5       11    20  19    4.9004   676.1    2.978      71.535
2015    5       11    20  24    4.8989   676.1    2.977      71.539
2015    5       11    20  30    4.8973   676.2    2.976      71.543
2015    5       11    20  36    4.8958   676.2    2.975      71.547
2015    5       11    20  41    4.8943   676.3    2.974      71.550
2015    5       11    20  47    4.8928   676.3    2.974      71.554
2015    5       11    20  53    4.8913   676.4    2.973      71.557
2015    5       11    20  58    4.8898   676.4    2.972      71.560
2015    5       11    21   4    4.8883   676.5    2.971      71.563
2015    5       11    21  10    4.8869   676.5    2.970      71.566
2015    5       11    21  15    4.8854   676.6    2.969      71.568
2015    5       11    21  21    4.8840   676.6    2.969      71.571
2015    5       11    21  27    4.8825   676.7    2.968      71.573
2015    5       11    21  32    4.8811   676.7    2.967      71.575
2015    5       11    21  38    4.8796   676.8    2.966      71.577
2015    5       11    21  43    4.8782   676.8    2.965      71.579
2015    5       11    21  49    4.8768   676.9    2.964      71.581
2015    5       11    21  55    4.8754   676.9    2.963      71.583
2015    5       11    22   0    4.8740   677.0    2.962      71.585
2015    5       11    22   6    4.8726   677.0    2.962      71.587
2015    5       11    22  12    4.8712   677.1    2.961      71.588
2015    5       11    22  17    4.8698   677.1    2.960      71.590
2015    5       11    22  23    4.8684   677.2    2.959      71.592
2015    5       11    22  29    4.8671   677.2    2.958      71.594
2015    5       11    22  34    4.8657   677.3    2.957      71.595
2015    5       11    22  40    4.8643   677.3    2.956      71.597
2015    5       11    22  46    4.8630   677.3    2.956      71.599
2015    5       11    22  51    4.8617   677.4    2.955      71.601
2015    5       11    22  57    4.8603   677.4    2.954      71.603
2015    5       11    23   3    4.8590   677.5    2.953      71.605
2015    5       11    23   8    4.8576   677.5    2.952      71.607
2015    5       11    23  14    4.8563   677.6    2.951      71.610
2015    5       11    23  20    4.8550   677.6    2.951      71.612
2015    5       11    23  25    4.8537   677.6    2.950      71.615
2015    5       11    23  31    4.8524   677.7    2.949      71.618
2015    5       11    23  36    4.8511   677.7    2.948      71.621
2015    5       11    23  42    4.8498   677.8    2.948      71.624
2015    5       11    23  48    4.8486   677.8    2.947      71.628
2015    5       11    23  53    4.8473   677.8    2.946      71.631
2015    5       11    23  59    4.8460   677.9    2.945      71.635
2015    5       12     0   5    4.8447   677.9    2.945      71.639
2015    5       12     0  10    4.8435   678.0    2.944      71.643
2015    5       12     0  16    4.8422   678.0    2.943      71.648
2015    5       12     0  22    4.8410   678.0    2.943      71.652
2015    5       12     0  27    4.8397   678.1    2.942      71.657
2015    5       12     0  33    4.8385   678.1    2.941      71.662
2015    5       12     0  39    4.8372   678.1    2.941      71.668
2015    5       12     0  44    4.8360   678.2    2.940      71.673
2015    5       12     0  50    4.8348   678.2    2.940      71.678
2015    5       12     0  56    4.8336   678.3    2.939      71.684
2015    5       12     1   1    4.8323   678.3    2.938      71.690
2015    5       12     1   7    4.8311   678.3    2.938      71.696
2015    5       12     1  12    4.8299   678.4    2.937      71.702
2015    5       12     1  18    4.8287   678.4    2.937      71.709
2015    5       12     1  24    4.8275   678.4    2.936      71.715
2015    5       12     1  29    4.8263   678.5    2.936      71.721
2015    5       12     1  35    4.8251   678.5    2.935      71.728
2015    5       12     1  41    4.8239   678.5    2.935      71.735
2015    5       12     1  46    4.8228   678.6    2.934      71.741
2015    5       12     1  52    4.8216   678.6    2.934      71.748
2015    5       12     1  58    4.8204   678.6    2.933      71.755
2015    5       12     2   3    4.8192   678.7    2.933      71.762
2015    5       12     2   9    4.8181   678.7    2.932      71.769
2015    5       12     2  15    4.8169   678.7    2.932      71.775
2015    5       12     2  20    4.8157   678.8    2.931      71.782
2015    5       12     2  26    4.8146   678.8    2.931      71.789
2015    5       12     2  32    4.8134   678.8    2.930      71.795
2015    5       12     2  37    4.8123   678.9    2.930      71.802
2015    5       12     2  43    4.8111   678.9    2.929      71.808
2015    5       12     2  48    4.8100   678.9    2.929      71.815
2015    5       12     2  54    4.8088   679.0    2.929      71.821
2015    5       12     3   0    4.8077   679.0    2.928      71.828
2015    5       12     3   5    4.8066   679.0    2.928      71.834
2015    5       12     3  11    4.8054   679.0    2.927      71.840
2015    5       12     3  17    4.8043   679.1    2.927      71.846
2015    5       12     3  22    4.8032   679.1    2.926      71.852
2015    5       12     3  28    4.8021   679.1    2.926      71.857
2015    5       12     3  34    4.8009   679.2    2.925      71.863
2015    5       12     3  39    4.7998   679.2    2.925      71.868
2015    5       12     3  45    4.7987   679.2    2.925      71.873
2015    5       12     3  51    4.7976   679.2    2.924      71.878
2015    5       12     3  56    4.7965   679.3    2.924      71.883
2015    5       12     4   2    4.7954   679.3    2.923      71.888
2015    5       12     4   8    4.7943   679.3    2.923      71.893
2015    5       12     4  13    4.7932   679.4    2.922      71.897
2015    5       12     4  19    4.7921   679.4    2.922      71.902
2015    5       12     4  24    4.7910   679.4    2.921      71.906
2015    5       12     4  30    4.7899   679.4    2.921      71.910
2015    5       12     4  36    4.7888   679.5    2.921      71.914
2015    5       12     4  41    4.7877   679.5    2.920      71.918
2015    5       12     4  47    4.7866   679.5    2.920      71.922
2015    5       12     4  53    4.7855   679.5    2.919      71.925
2015    5       12     4  58    4.7844   679.6    2.919      71.929
2015    5       12     5   4    4.7833   679.6    2.918      71.933
2015    5       12     5  10    4.7822   679.6    2.918      71.936
2015    5       12     5  15    4.7811   679.6    2.917      71.939
2015    5       12     5  21    4.7800   679.7    2.917      71.942
2015    5       12     5  27    4.7790   679.7    2.916      71.945
2015    5       12     5  32    4.7779   679.7    2.916      71.948
2015    5       12     5  38    4.7768   679.7    2.915      71.951
2015    5       12     5  44    4.7757   679.8    2.915      71.954
2015    5       12     5  49    4.7746   679.8    2.914      71.957
2015    5       12     5  55    4.7735   679.8    2.914      71.960
2015    5       12     6   1    4.7725   679.8    2.914      71.963
2015    5       12     6   6    4.7714   679.8    2.913      71.966
2015    5       12     6  12    4.7703   679.9    2.913      71.969
2015    5       12     6  17    4.7693   679.9    2.912      71.972
2015    5       12     6  23    4.7682   679.9    2.912      71.975
2015    5       12     6  29    4.7671   679.9    2.911      71.978
2015    5       12     6  34    4.7660   680.0    2.911      71.981
2015    5       12     6  40    4.7650   680.0    2.910      71.984
2015    5       12     6  46    4.7639   680.0    2.910      71.987
2015    5       12     6  51    4.7629   680.0    2.910      71.990
2015    5       12     6  57    4.7618   680.0    2.909      71.994
2015    5       12     7   3    4.7608   680.1    2.909      71.998
2015    5       12     7   8    4.7597   680.1    2.908      72.001
2015    5       12     7  14    4.7587   680.1    2.908      72.005
2015    5       12     7  20    4.7576   680.1    2.907      72.010
2015    5       12     7  25    4.7566   680.2    2.907      72.014
2015    5       12     7  31    4.7556   680.2    2.907      72.018
2015    5       12     7  37    4.7545   680.2    2.906      72.023
2015    5       12     7  42    4.7535   680.2    2.906      72.027
2015    5       12     7  48    4.7524   680.2    2.906      72.032
2015    5       12     7  53    4.7514   680.3    2.905      72.037
2015    5       12     7  59    4.7504   680.3    2.905      72.042
2015    5       12     8   5    4.7493   680.3    2.904      72.047
2015    5       12     8  10    4.7483   680.3    2.904      72.052
2015    5       12     8  16    4.7473   680.4    2.904      72.058
2015    5       12     8  22    4.7462   680.4    2.903      72.063
2015    5       12     8  27    4.7452   680.4    2.903      72.069
2015    5       12     8  33    4.7442   680.4    2.903      72.075
2015    5       12     8  39    4.7431   680.4    2.902      72.080
2015    5       12     8  44    4.7421   680.5    2.902      72.086
2015    5       12     8  50    4.7411   680.5    2.902      72.092
2015    5       12     8  56    4.7400   680.5    2.901      72.098
2015    5       12     9   1    4.7390   680.5    2.901      72.104
2015    5       12     9   7    4.7379   680.5    2.900      72.110
2015    5       12     9  13    4.7369   680.6    2.900      72.116
2015    5       12     9  18    4.7359   680.6    2.900      72.122
2015    5       12     9  24    4.7348   680.6    2.899      72.128
2015    5       12     9  29    4.7338   680.6    2.899      72.134
2015    5       12     9  35    4.7327   680.6    2.899      72.140
2015    5       12     9  41    4.7317   680.7    2.898      72.146
2015    5       12     9  46    4.7306   680.7    2.898      72.152
2015    5       12     9  52    4.7295   680.7    2.897      72.158
2015    5       12     9  58    4.7285   680.7    2.897      72.163
2015    5       12    10   3    4.7274   680.7    2.897      72.169
2015    5       12    10   9    4.7263   680.8    2.896      72.175
2015    5       12    10  15    4.7253   680.8    2.896      72.181
2015    5       12    10  20    4.7242   680.8    2.896      72.186
2015    5       12    10  26    4.7231   680.8    2.895      72.192
2015    5       12    10  32    4.7220   680.8    2.895      72.197
2015    5       12    10  37    4.7209   680.9    2.894      72.202
2015    5       12    10  43    4.7198   680.9    2.894      72.207
2015    5       12    10  49    4.7188   680.9    2.894      72.212
2015    5       12    10  54    4.7176   680.9    2.893      72.216
2015    5       12    11   0    4.7165   680.9    2.893      72.221
2015    5       12    11   6    4.7154   680.9    2.893      72.225
2015    5       12    11  11    4.7143   681.0    2.892      72.229
2015    5       12    11  17    4.7132   681.0    2.892      72.233
2015    5       12    11  22    4.7121   681.0    2.891      72.237
2015    5       12    11  28    4.7109   681.0    2.891      72.240
2015    5       12    11  34    4.7098   681.0    2.891      72.243
2015    5       12    11  39    4.7087   681.0    2.890      72.246
2015    5       12    11  45    4.7075   681.1    2.890      72.249
2015    5       12    11  51    4.7064   681.1    2.890      72.251
2015    5       12    11  56    4.7052   681.1    2.889      72.254
2015    5       12    12   2    4.7041   681.1    2.889      72.256
2015    5       12    12   8    4.7029   681.1    2.888      72.258
2015    5       12    12  13    4.7017   681.1    2.888      72.260
2015    5       12    12  19    4.7006   681.1    2.888      72.261
2015    5       12    12  25    4.6994   681.2    2.887      72.263
2015    5       12    12  30    4.6982   681.2    2.887      72.264
2015    5       12    12  36    4.6970   681.2    2.886      72.265
2015    5       12    12  42    4.6959   681.2    2.886      72.266
2015    5       12    12  47    4.6947   681.2    2.886      72.267
2015    5       12    12  53    4.6935   681.2    2.885      72.268
2015    5       12    12  58    4.6923   681.2    2.885      72.269
2015    5       12    13   4    4.6911   681.3    2.884      72.270
2015    5       12    13  10    4.6899   681.3    2.884      72.271
2015    5       12    13  15    4.6887   681.3    2.884      72.272
2015    5       12    13  21    4.6875   681.3    2.883      72.273
2015    5       12    13  27    4.6863   681.3    2.883      72.274
2015    5       12    13  32    4.6851   681.3    2.882      72.275
2015    5       12    13  38    4.6838   681.3    2.882      72.276
2015    5       12    13  44    4.6826   681.3    2.881      72.277
2015    5       12    13  49    4.6814   681.4    2.881      72.278
2015    5       12    13  55    4.6802   681.4    2.880      72.279
2015    5       12    14   1    4.6790   681.4    2.880      72.281
2015    5       12    14   6    4.6777   681.4    2.879      72.282
2015    5       12    14  12    4.6765   681.4    2.879      72.284
2015    5       12    14  18    4.6753   681.4    2.879      72.285
2015    5       12    14  23    4.6740   681.4    2.878      72.287
2015    5       12    14  29    4.6728   681.5    2.878      72.289
2015    5       12    14  34    4.6716   681.5    2.877      72.291
2015    5       12    14  40    4.6703   681.5    2.877      72.293
2015    5       12    14  46    4.6691   681.5    2.876      72.295
2015    5       12    14  51    4.6679   681.5    2.876      72.297
2015    5       12    14  57    4.6666   681.5    2.875      72.299
2015    5       12    15   3    4.6654   681.5    2.875      72.301
2015    5       12    15   8    4.6642   681.6    2.874      72.303
2015    5       12    15  14    4.6629   681.6    2.874      72.306
2015    5       12    15  20    4.6617   681.6    2.874      72.308
2015    5       12    15  25    4.6604   681.6    2.873      72.310
2015    5       12    15  31    4.6592   681.6    2.873      72.312
2015    5       12    15  37    4.6579   681.6    2.872      72.314
2015    5       12    15  42    4.6566   681.6    2.872      72.317
2015    5       12    15  48    4.6554   681.7    2.871      72.319
2015    5       12    15  54    4.6541   681.7    2.871      72.321
2015    5       12    15  59    4.6528   681.7    2.870      72.323
2015    5       12    16   5    4.6515   681.7    2.870      72.325
2015    5       12    16  10    4.6502   681.7    2.869      72.326
2015    5       12    16  16    4.6489   681.7    2.868      72.328
2015    5       12    16  22    4.6475   681.7    2.868      72.328
2015    5       12    16  27    4.6462   681.8    2.867      72.329
2015    5       12    16  33    4.6449   681.8    2.867      72.329
2015    5       12    16  39    4.6435   681.8    2.866      72.328
2015    5       12    16  44    4.6422   681.8    2.865      72.327
2015    5       12    16  50    4.6408   681.8    2.865      72.325
2015    5       12    16  56    4.6394   681.8    2.864      72.323
2015    5       12    17   1    4.6380   681.8    2.863      72.321
2015    5       12    17   7    4.6366   681.8    2.862      72.318
2015    5       12    17  13    4.6352   681.9    2.862      72.315
2015    5       12    17  18    4.6338   681.9    2.861      72.311
2015    5       12    17  24    4.6324   681.9    2.860      72.307
2015    5       12    17  30    4.6309   681.9    2.859      72.303
2015    5       12    17  35    4.6295   681.9    2.858      72.297
2015    5       12    17  41    4.6280   681.9    2.858      72.292
2015    5       12    17  46    4.6265   681.9    2.857      72.286
2015    5       12    17  52    4.6250   681.9    2.856      72.279
2015    5       12    17  58    4.6235   681.9    2.855      72.272
2015    5       12    18   3    4.6220   682.0    2.854      72.265
2015    5       12    18   9    4.6205   682.0    2.853      72.257
2015    5       12    18  15    4.6189   682.0    2.852      72.249
2015    5       12    18  20    4.6174   682.0    2.851      72.240
2015    5       12    18  26    4.6158   682.0    2.850      72.231
2015    5       12    18  32    4.6143   682.0    2.849      72.221
2015    5       12    18  37    4.6127   682.0    2.849      72.211
2015    5       12    18  43    4.6111   682.0    2.848      72.201
2015    5       12    18  49    4.6095   682.0    2.847      72.190
2015    5       12    18  54    4.6079   682.0    2.846      72.179
2015    5       12    19   0    4.6062   682.0    2.845      72.168
2015    5       12    19   6    4.6046   682.0    2.844      72.157
2015    5       12    19  11    4.6029   682.0    2.843      72.146
2015    5       12    19  17    4.6013   682.0    2.842      72.134
2015    5       12    19  23    4.5996   682.0    2.841      72.123
2015    5       12    19  28    4.5979   682.0    2.840      72.111
2015    5       12    19  34    4.5962   682.0    2.839      72.099
2015    5       12    19  39    4.5945   682.0    2.838      72.087
2015    5       12    19  45    4.5928   682.0    2.837      72.075
2015    5       12    19  51    4.5910   682.0    2.836      72.063
2015    5       12    19  56    4.5893   682.0    2.835      72.050
2015    5       12    20   2    4.5875   682.0    2.835      72.038
2015    5       12    20   8    4.5857   682.0    2.834      72.025
2015    5       12    20  13    4.5840   682.0    2.833      72.013
2015    5       12    20  19    4.5822   682.0    2.832      72.000
2015    5       12    20  25    4.5804   682.0    2.831      71.988
2015    5       12    20  30    4.5785   681.9    2.830      71.975
2015    5       12    20  36    4.5767   681.9    2.829      71.962
2015    5       12    20  42    4.5749   681.9    2.828      71.950
2015    5       12    20  47    4.5730   681.9    2.827      71.937
2015    5       12    20  53    4.5712   681.9    2.826      71.924
2015    5       12    20  59    4.5693   681.9    2.826      71.911
2015    5       12    21   4    4.5675   681.9    2.825      71.899
2015    5       12    21  10    4.5656   681.9    2.824      71.886
2015    5       12    21  15    4.5637   681.8    2.823      71.873
2015    5       12    21  21    4.5619   681.8    2.822      71.861
2015    5       12    21  27    4.5600   681.8    2.821      71.848
2015    5       12    21  32    4.5582   681.8    2.820      71.836
2015    5       12    21  38    4.5563   681.8    2.819      71.823
2015    5       12    21  44    4.5544   681.8    2.818      71.811
2015    5       12    21  49    4.5526   681.7    2.818      71.799
2015    5       12    21  55    4.5507   681.7    2.817      71.787
2015    5       12    22   1    4.5489   681.7    2.816      71.775
2015    5       12    22   6    4.5470   681.7    2.815      71.763
2015    5       12    22  12    4.5452   681.7    2.814      71.751
2015    5       12    22  18    4.5433   681.7    2.813      71.739
2015    5       12    22  23    4.5415   681.6    2.812      71.727
2015    5       12    22  29    4.5396   681.6    2.812      71.715
2015    5       12    22  35    4.5378   681.6    2.811      71.703
2015    5       12    22  40    4.5359   681.6    2.810      71.690
2015    5       12    22  46    4.5340   681.6    2.809      71.678
2015    5       12    22  51    4.5322   681.5    2.808      71.666
2015    5       12    22  57    4.5303   681.5    2.807      71.654
2015    5       12    23   3    4.5284   681.5    2.806      71.642
2015    5       12    23   8    4.5265   681.5    2.805      71.629
2015    5       12    23  14    4.5246   681.5    2.804      71.617
2015    5       12    23  20    4.5226   681.5    2.803      71.604
2015    5       12    23  25    4.5207   681.4    2.802      71.590
2015    5       12    23  31    4.5188   681.4    2.801      71.576
2015    5       12    23  37    4.5168   681.4    2.800      71.561
2015    5       12    23  42    4.5149   681.4    2.799      71.546
2015    5       12    23  48    4.5129   681.4    2.798      71.531
2015    5       12    23  54    4.5109   681.3    2.797      71.515
2015    5       12    23  59    4.5089   681.3    2.796      71.498
2015    5       13     0   5    4.5069   681.3    2.795      71.481
2015    5       13     0  11    4.5049   681.3    2.794      71.463
2015    5       13     0  16    4.5029   681.2    2.792      71.445
2015    5       13     0  22    4.5009   681.2    2.791      71.427
2015    5       13     0  28    4.4988   681.2    2.790      71.407
2015    5       13     0  33    4.4968   681.2    2.789      71.388
2015    5       13     0  39    4.4948   681.1    2.788      71.368
2015    5       13     0  44    4.4927   681.1    2.786      71.348
2015    5       13     0  50    4.4907   681.1    2.785      71.327
2015    5       13     0  56    4.4886   681.1    2.784      71.306
2015    5       13     1   1    4.4865   681.0    2.783      71.285
2015    5       13     1   7    4.4845   681.0    2.782      71.264
2015    5       13     1  13    4.4824   681.0    2.780      71.243
2015    5       13     1  18    4.4803   680.9    2.779      71.221
2015    5       13     1  24    4.4782   680.9    2.778      71.200
2015    5       13     1  30    4.4761   680.9    2.777      71.178
2015    5       13     1  35    4.4740   680.8    2.776      71.156
2015    5       13     1  41    4.4719   680.8    2.774      71.134
2015    5       13     1  47    4.4697   680.8    2.773      71.112
2015    5       13     1  52    4.4676   680.8    2.772      71.090
2015    5       13     1  58    4.4654   680.7    2.771      71.068
2015    5       13     2   4    4.4632   680.7    2.770      71.046
2015    5       13     2   9    4.4609   680.7    2.769      71.023
2015    5       13     2  15    4.4587   680.6    2.768      71.001
2015    5       13     2  20    4.4564   680.6    2.767      70.978
2015    5       13     2  26    4.4541   680.5    2.765      70.955
2015    5       13     2  32    4.4518   680.5    2.764      70.932
2015    5       13     2  37    4.4495   680.5    2.763      70.909
2015    5       13     2  43    4.4471   680.4    2.762      70.885
2015    5       13     2  49    4.4448   680.4    2.761      70.861
2015    5       13     2  54    4.4424   680.3    2.760      70.836
2015    5       13     3   0    4.4400   680.3    2.759      70.810
2015    5       13     3   6    4.4376   680.3    2.758      70.784
2015    5       13     3  11    4.4352   680.2    2.757      70.757
2015    5       13     3  17    4.4327   680.2    2.755      70.730
2015    5       13     3  23    4.4303   680.1    2.754      70.703
2015    5       13     3  28    4.4279   680.0    2.753      70.674
2015    5       13     3  34    4.4254   680.0    2.752      70.646
2015    5       13     3  40    4.4230   679.9    2.751      70.617
2015    5       13     3  45    4.4205   679.9    2.750      70.587
2015    5       13     3  51    4.4180   679.8    2.748      70.556
2015    5       13     3  56    4.4156   679.8    2.747      70.526
2015    5       13     4   2    4.4131   679.7    2.746      70.495
2015    5       13     4   8    4.4106   679.6    2.745      70.463
2015    5       13     4  13    4.4082   679.6    2.743      70.431
2015    5       13     4  19    4.4057   679.5    2.742      70.398
2015    5       13     4  25    4.4033   679.4    2.741      70.365
2015    5       13     4  30    4.4008   679.4    2.740      70.332
2015    5       13     4  36    4.3984   679.3    2.738      70.298
2015    5       13     4  42    4.3960   679.2    2.737      70.264
2015    5       13     4  47    4.3936   679.1    2.736      70.229
2015    5       13     4  53    4.3911   679.1    2.735      70.194
2015    5       13     4  59    4.3887   679.0    2.733      70.159
2015    5       13     5   4    4.3863   678.9    2.732      70.123
2015    5       13     5  10    4.3839   678.8    2.731      70.087
2015    5       13     5  16    4.3816   678.8    2.730      70.050
2015    5       13     5  21    4.3792   678.7    2.728      70.013
2015    5       13     5  27    4.3768   678.6    2.727      69.976
2015    5       13     5  32    4.3744   678.5    2.726      69.938
2015    5       13     5  38    4.3720   678.4    2.724      69.900
2015    5       13     5  44    4.3697   678.4    2.723      69.862
2015    5       13     5  49    4.3673   678.3    2.722      69.823
2015    5       13     5  55    4.3650   678.2    2.720      69.784
2015    5       13     6   1    4.3626   678.1    2.719      69.744
2015    5       13     6   6    4.3602   678.0    2.717      69.704
2015    5       13     6  12    4.3579   677.9    2.716      69.664
2015    5       13     6  18    4.3555   677.9    2.715      69.624
2015    5       13     6  23    4.3531   677.8    2.713      69.584
2015    5       13     6  29    4.3507   677.7    2.712      69.543
2015    5       13     6  35    4.3483   677.6    2.710      69.502
2015    5       13     6  40    4.3460   677.5    2.709      69.462
2015    5       13     6  46    4.3436   677.4    2.708      69.421
2015    5       13     6  52    4.3412   677.3    2.706      69.381
2015    5       13     6  57    4.3388   677.2    2.705      69.340
2015    5       13     7   3    4.3364   677.1    2.704      69.300
2015    5       13     7   9    4.3340   677.0    2.702      69.259
2015    5       13     7  14    4.3316   676.9    2.701      69.219
2015    5       13     7  20    4.3292   676.8    2.700      69.179
2015    5       13     7  25    4.3269   676.7    2.698      69.140
2015    5       13     7  31    4.3245   676.6    2.697      69.101
2015    5       13     7  37    4.3221   676.5    2.696      69.063
2015    5       13     7  42    4.3198   676.4    2.695      69.025
2015    5       13     7  48    4.3174   676.3    2.694      68.989
2015    5       13     7  54    4.3151   676.2    2.693      68.953
2015    5       13     7  59    4.3128   676.1    2.692      68.919
2015    5       13     8   5    4.3105   676.0    2.691      68.886
2015    5       13     8  11    4.3082   675.9    2.690      68.853
2015    5       13     8  16    4.3059   675.8    2.690      68.823
2015    5       13     8  22    4.3036   675.7    2.689      68.793
2015    5       13     8  28    4.3013   675.6    2.688      68.765
2015    5       13     8  33    4.2990   675.5    2.688      68.737
2015    5       13     8  39    4.2967   675.4    2.688      68.711
2015    5       13     8  45    4.2944   675.3    2.687      68.686
2015    5       13     8  50    4.2920   675.2    2.687      68.662
2015    5       13     8  56    4.2897   675.2    2.687      68.640
2015    5       13     9   1    4.2873   675.1    2.686      68.618
2015    5       13     9   7    4.2848   675.0    2.686      68.598
2015    5       13     9  13    4.2824   674.9    2.685      68.577
2015    5       13     9  18    4.2799   674.8    2.685      68.555
2015    5       13     9  24    4.2775   674.7    2.685      68.534
2015    5       13     9  30    4.2750   674.6    2.684      68.511
2015    5       13     9  35    4.2725   674.5    2.684      68.488
2015    5       13     9  41    4.2699   674.4    2.683      68.463
2015    5       13     9  47    4.2674   674.3    2.683      68.438
2015    5       13     9  52    4.2649   674.2    2.682      68.412
2015    5       13     9  58    4.2623   674.1    2.681      68.384
2015    5       13    10   4    4.2597   674.0    2.681      68.356
2015    5       13    10   9    4.2572   673.9    2.680      68.326
2015    5       13    10  15    4.2546   673.8    2.679      68.295
2015    5       13    10  21    4.2521   673.7    2.679      68.263
2015    5       13    10  26    4.2495   673.6    2.678      68.230
2015    5       13    10  32    4.2470   673.4    2.677      68.197
2015    5       13    10  37    4.2444   673.3    2.676      68.162
2015    5       13    10  43    4.2419   673.2    2.676      68.126
2015    5       13    10  49    4.2393   673.1    2.675      68.090
2015    5       13    10  54    4.2368   673.0    2.674      68.053
2015    5       13    11   0    4.2342   672.9    2.673      68.014
2015    5       13    11   6    4.2317   672.8    2.672      67.975
2015    5       13    11  11    4.2292   672.6    2.671      67.935
2015    5       13    11  17    4.2266   672.5    2.670      67.894
2015    5       13    11  23    4.2241   672.4    2.669      67.852
2015    5       13    11  28    4.2216   672.3    2.668      67.809
2015    5       13    11  34    4.2190   672.2    2.667      67.765
2015    5       13    11  40    4.2165   672.0    2.666      67.720
2015    5       13    11  45    4.2140   671.9    2.665      67.674
2015    5       13    11  51    4.2115   671.8    2.664      67.628
2015    5       13    11  57    4.2090   671.7    2.663      67.580
2015    5       13    12   2    4.2065   671.5    2.662      67.532
2015    5       13    12   8    4.2040   671.4    2.661      67.483
2015    5       13    12  13    4.2015   671.3    2.660      67.433
2015    5       13    12  19    4.1990   671.2    2.659      67.382
2015    5       13    12  25    4.1965   671.0    2.657      67.330
2015    5       13    12  30    4.1940   670.9    2.656      67.278
2015    5       13    12  36    4.1915   670.8    2.655      67.225
2015    5       13    12  42    4.1890   670.6    2.654      67.171
2015    5       13    12  47    4.1865   670.5    2.653      67.117
2015    5       13    12  53    4.1840   670.4    2.651      67.062
2015    5       13    12  59    4.1815   670.2    2.650      67.007
2015    5       13    13   4    4.1790   670.1    2.649      66.951
2015    5       13    13  10    4.1765   669.9    2.648      66.895
2015    5       13    13  16    4.1740   669.8    2.647      66.838
2015    5       13    13  21    4.1716   669.6    2.645      66.782
2015    5       13    13  27    4.1691   669.5    2.644      66.725
2015    5       13    13  33    4.1666   669.3    2.643      66.669
2015    5       13    13  38    4.1641   669.2    2.642      66.612
2015    5       13    13  44    4.1617   669.0    2.641      66.556
2015    5       13    13  49    4.1592   668.9    2.640      66.500
2015    5       13    13  55    4.1567   668.7    2.639      66.444
2015    5       13    14   1    4.1543   668.6    2.638      66.389
2015    5       13    14   6    4.1518   668.4    2.637      66.334
2015    5       13    14  12    4.1494   668.3    2.636      66.280
2015    5       13    14  18    4.1470   668.1    2.635      66.227
2015    5       13    14  23    4.1446   668.0    2.635      66.174
2015    5       13    14  29    4.1421   667.8    2.634      66.122
2015    5       13    14  35    4.1397   667.6    2.633      66.071
2015    5       13    14  40    4.1373   667.5    2.633      66.020
2015    5       13    14  46    4.1350   667.3    2.632      65.971
2015    5       13    14  52    4.1326   667.2    2.632      65.922
2015    5       13    14  57    4.1302   667.0    2.631      65.875
2015    5       13    15   3    4.1278   666.8    2.631      65.829
2015    5       13    15   9    4.1255   666.7    2.630      65.784
2015    5       13    15  14    4.1232   666.5    2.630      65.740
2015    5       13    15  20    4.1208   666.3    2.630      65.697
2015    5       13    15  26    4.1185   666.2    2.630      65.656
2015    5       13    15  31    4.1162   666.0    2.629      65.615
2015    5       13    15  37    4.1139   665.9    2.629      65.576
2015    5       13    15  42    4.1116   665.7    2.629      65.538
2015    5       13    15  48    4.1093   665.5    2.629      65.501
2015    5       13    15  54    4.1069   665.4    2.629      65.464
2015    5       13    15  59    4.1046   665.2    2.629      65.430
2015    5       13    16   5    4.1022   665.1    2.630      65.396
2015    5       13    16  11    4.0998   664.9    2.630      65.364
2015    5       13    16  16    4.0975   664.7    2.630      65.332
2015    5       13    16  22    4.0951   664.6    2.630      65.302
2015    5       13    16  28    4.0927   664.4    2.630      65.270
2015    5       13    16  33    4.0903   664.3    2.630      65.237
2015    5       13    16  39    4.0878   664.1    2.629      65.204
2015    5       13    16  45    4.0854   664.0    2.629      65.170
2015    5       13    16  50    4.0830   663.8    2.629      65.135
2015    5       13    16  56    4.0806   663.7    2.629      65.099
2015    5       13    17   2    4.0782   663.5    2.628      65.062
2015    5       13    17   7    4.0758   663.3    2.628      65.024
2015    5       13    17  13    4.0733   663.2    2.627      64.985
2015    5       13    17  18    4.0709   663.0    2.627      64.945
2015    5       13    17  24    4.0685   662.8    2.627      64.904
2015    5       13    17  30    4.0661   662.7    2.626      64.862
2015    5       13    17  35    4.0637   662.5    2.626      64.820
2015    5       13    17  41    4.0613   662.4    2.625      64.777
2015    5       13    17  47    4.0588   662.2    2.625      64.733
2015    5       13    17  52    4.0564   662.0    2.624      64.688
2015    5       13    17  58    4.0540   661.9    2.623      64.642
2015    5       13    18   4    4.0516   661.7    2.623      64.596
2015    5       13    18   9    4.0492   661.5    2.622      64.549
2015    5       13    18  15    4.0468   661.4    2.622      64.501
2015    5       13    18  21    4.0444   661.2    2.621      64.452
2015    5       13    18  26    4.0420   661.0    2.620      64.403
2015    5       13    18  32    4.0396   660.9    2.620      64.353
2015    5       13    18  38    4.0371   660.7    2.619      64.302
2015    5       13    18  43    4.0347   660.5    2.618      64.250
2015    5       13    18  49    4.0323   660.4    2.618      64.197
2015    5       13    18  54    4.0299   660.2    2.617      64.144
2015    5       13    19   0    4.0274   660.0    2.616      64.090
2015    5       13    19   6    4.0250   659.8    2.615      64.035
2015    5       13    19  11    4.0226   659.7    2.615      63.980
2015    5       13    19  17    4.0202   659.5    2.614      63.924
2015    5       13    19  23    4.0177   659.3    2.613      63.867
2015    5       13    19  28    4.0153   659.1    2.612      63.810
2015    5       13    19  34    4.0129   659.0    2.612      63.753
2015    5       13    19  40    4.0104   658.8    2.611      63.695
2015    5       13    19  45    4.0080   658.6    2.610      63.638
2015    5       13    19  51    4.0056   658.4    2.610      63.580
2015    5       13    19  57    4.0031   658.2    2.609      63.521
2015    5       13    20   2    4.0007   658.0    2.608      63.463
2015    5       13    20   8    3.9983   657.9    2.608      63.405
2015    5       13    20  14    3.9959   657.7    2.607      63.346
2015    5       13    20  19    3.9935   657.5    2.607      63.288
2015    5       13    20  25    3.9910   657.3    2.606      63.230
2015    5       13    20  30    3.9886   657.1    2.606      63.172
2015    5       13    20  36    3.9862   656.9    2.605      63.115
2015    5       13    20  42    3.9838   656.8    2.605      63.057
2015    5       13    20  47    3.9814   656.6    2.604      63.000
2015    5       13    20  53    3.9790   656.4    2.604      62.943
2015    5       13    20  59    3.9766   656.2    2.604      62.886
2015    5       13    21   4    3.9742   656.0    2.603      62.830
2015    5       13    21  10    3.9718   655.8    2.603      62.773
2015    5       13    21  16    3.9694   655.6    2.603      62.717
2015    5       13    21  21    3.9670   655.4    2.602      62.661
2015    5       13    21  27    3.9646   655.2    2.602      62.605
2015    5       13    21  33    3.9622   655.0    2.601      62.550
2015    5       13    21  38    3.9598   654.8    2.601      62.494
2015    5       13    21  44    3.9574   654.6    2.601      62.439
2015    5       13    21  50    3.9550   654.4    2.600      62.383
2015    5       13    21  55    3.9526   654.2    2.600      62.328
2015    5       13    22   1    3.9503   654.0    2.600      62.273
2015    5       13    22   6    3.9479   653.8    2.599      62.218
2015    5       13    22  12    3.9455   653.6    2.599      62.163
2015    5       13    22  18    3.9431   653.4    2.599      62.108
2015    5       13    22  23    3.9407   653.2    2.598      62.053
2015    5       13    22  29    3.9383   653.0    2.598      61.997
2015    5       13    22  35    3.9359   652.8    2.597      61.942
2015    5       13    22  40    3.9335   652.6    2.597      61.886
2015    5       13    22  46    3.9312   652.4    2.597      61.830
2015    5       13    22  52    3.9288   652.2    2.596      61.774
2015    5       13    22  57    3.9264   652.0    2.596      61.718
2015    5       13    23   3    3.9240   651.8    2.595      61.662
2015    5       13    23   9    3.9216   651.5    2.595      61.606
2015    5       13    23  14    3.9192   651.3    2.594      61.549
2015    5       13    23  20    3.9168   651.1    2.594      61.492
2015    5       13    23  26    3.9144   650.9    2.594      61.436
2015    5       13    23  31    3.9121   650.7    2.593      61.379
2015    5       13    23  37    3.9097   650.5    2.593      61.322
2015    5       13    23  42    3.9073   650.3    2.592      61.266
2015    5       13    23  48    3.9049   650.0    2.592      61.209
2015    5       13    23  54    3.9026   649.8    2.592      61.152
2015    5       13    23  59    3.9002   649.6    2.591      61.095
2015    5       14     0   5    3.8978   649.4    2.591      61.039
2015    5       14     0  11    3.8955   649.1    2.591      60.982
2015    5       14     0  16    3.8931   648.9    2.591      60.926
2015    5       14     0  22    3.8908   648.7    2.590      60.869
2015    5       14     0  28    3.8884   648.5    2.590      60.813
2015    5       14     0  33    3.8861   648.3    2.590      60.757
2015    5       14     0  39    3.8838   648.0    2.590      60.701
2015    5       14     0  45    3.8815   647.8    2.590      60.645
2015    5       14     0  50    3.8792   647.6    2.590      60.589
2015    5       14     0  56    3.8769   647.4    2.590      60.534
2015    5       14     1   2    3.8746   647.1    2.590      60.479
2015    5       14     1   7    3.8723   646.9    2.590      60.424
2015    5       14     1  13    3.8700   646.7    2.590      60.369
2015    5       14     1  19    3.8677   646.4    2.590      60.315
2015    5       14     1  24    3.8654   646.2    2.590      60.261
2015    5       14     1  30    3.8632   646.0    2.590      60.207
2015    5       14     1  35    3.8609   645.8    2.590      60.154
2015    5       14     1  41    3.8587   645.5    2.590      60.101
2015    5       14     1  47    3.8564   645.3    2.591      60.048
2015    5       14     1  52    3.8542   645.1    2.591      59.995
2015    5       14     1  58    3.8519   644.8    2.591      59.943
2015    5       14     2   4    3.8496   644.6    2.591      59.890
2015    5       14     2   9    3.8474   644.4    2.591      59.836
2015    5       14     2  15    3.8451   644.2    2.591      59.781
2015    5       14     2  21    3.8428   643.9    2.591      59.726
2015    5       14     2  26    3.8405   643.7    2.591      59.671
2015    5       14     2  32    3.8382   643.5    2.591      59.615
2015    5       14     2  38    3.8359   643.3    2.591      59.559
2015    5       14     2  43    3.8336   643.1    2.591      59.503
2015    5       14     2  49    3.8312   642.8    2.591      59.446
2015    5       14     2  55    3.8289   642.6    2.591      59.389
2015    5       14     3   0    3.8266   642.4    2.591      59.332
2015    5       14     3   6    3.8243   642.2    2.591      59.275
2015    5       14     3  11    3.8220   641.9    2.591      59.218
2015    5       14     3  17    3.8197   641.7    2.591      59.160
2015    5       14     3  23    3.8174   641.5    2.591      59.103
2015    5       14     3  28    3.8150   641.3    2.591      59.046
2015    5       14     3  34    3.8127   641.0    2.590      58.988
2015    5       14     3  40    3.8104   640.8    2.590      58.930
2015    5       14     3  45    3.8081   640.6    2.590      58.873
2015    5       14     3  51    3.8057   640.4    2.590      58.815
2015    5       14     3  57    3.8034   640.1    2.590      58.757
2015    5       14     4   2    3.8011   639.9    2.590      58.698
2015    5       14     4   8    3.7987   639.7    2.590      58.640
2015    5       14     4  14    3.7964   639.5    2.590      58.581
2015    5       14     4  19    3.7940   639.2    2.590      58.522
2015    5       14     4  25    3.7917   639.0    2.589      58.462
2015    5       14     4  31    3.7894   638.8    2.589      58.402
2015    5       14     4  36    3.7870   638.5    2.589      58.342
2015    5       14     4  42    3.7846   638.3    2.589      58.282
2015    5       14     4  47    3.7823   638.1    2.588      58.221
2015    5       14     4  53    3.7799   637.9    2.588      58.159
2015    5       14     4  59    3.7776   637.6    2.588      58.098
2015    5       14     5   4    3.7752   637.4    2.587      58.035
2015    5       14     5  10    3.7729   637.1    2.587      57.973
2015    5       14     5  16    3.7705   636.9    2.586      57.909
2015    5       14     5  21    3.7681   636.7    2.586      57.845
2015    5       14     5  27    3.7658   636.4    2.586      57.781
2015    5       14     5  33    3.7634   636.2    2.585      57.716
2015    5       14     5  38    3.7611   635.9    2.585      57.651
2015    5       14     5  44    3.7587   635.7    2.584      57.585
2015    5       14     5  50    3.7563   635.4    2.584      57.519
2015    5       14     5  55    3.7540   635.2    2.583      57.452
2015    5       14     6   1    3.7516   634.9    2.583      57.385
2015    5       14     6   7    3.7492   634.7    2.582      57.317
2015    5       14     6  12    3.7468   634.4    2.582      57.250
2015    5       14     6  18    3.7445   634.2    2.581      57.182
2015    5       14     6  23    3.7421   633.9    2.581      57.113
2015    5       14     6  29    3.7397   633.7    2.581      57.045
2015    5       14     6  35    3.7373   633.4    2.580      56.976
2015    5       14     6  40    3.7349   633.1    2.580      56.907
2015    5       14     6  46    3.7326   632.9    2.579      56.838
2015    5       14     6  52    3.7302   632.6    2.579      56.768
2015    5       14     6  57    3.7278   632.3    2.578      56.699
2015    5       14     7   3    3.7255   632.1    2.578      56.630
2015    5       14     7   9    3.7231   631.8    2.578      56.560
2015    5       14     7  14    3.7207   631.5    2.577      56.491
2015    5       14     7  20    3.7184   631.3    2.577      56.421
2015    5       14     7  26    3.7160   631.0    2.577      56.352
2015    5       14     7  31    3.7137   630.7    2.577      56.282
2015    5       14     7  37    3.7113   630.4    2.576      56.213
2015    5       14     7  43    3.7090   630.2    2.576      56.144
2015    5       14     7  48    3.7067   629.9    2.576      56.075
2015    5       14     7  54    3.7044   629.6    2.576      56.006
2015    5       14     7  59    3.7021   629.3    2.576      55.938
2015    5       14     8   5    3.6998   629.1    2.576      55.870
2015    5       14     8  11    3.6975   628.8    2.576      55.803
2015    5       14     8  16    3.6952   628.5    2.576      55.736
2015    5       14     8  22    3.6929   628.2    2.576      55.670
2015    5       14     8  28    3.6907   628.0    2.576      55.605
2015    5       14     8  33    3.6884   627.7    2.576      55.540
2015    5       14     8  39    3.6862   627.4    2.576      55.477
2015    5       14     8  45    3.6839   627.1    2.577      55.413
2015    5       14     8  50    3.6817   626.8    2.577      55.351
2015    5       14     8  56    3.6795   626.6    2.577      55.291
2015    5       14     9   2    3.6773   626.3    2.578      55.231
2015    5       14     9   7    3.6751   626.0    2.578      55.171
2015    5       14     9  13    3.6729   625.7    2.579      55.112
2015    5       14     9  19    3.6707   625.5    2.579      55.054
2015    5       14     9  24    3.6685   625.2    2.579      54.996
2015    5       14     9  30    3.6663   624.9    2.580      54.937
2015    5       14     9  36    3.6641   624.7    2.580      54.878
2015    5       14     9  41    3.6618   624.4    2.581      54.819
2015    5       14     9  47    3.6596   624.1    2.581      54.760
2015    5       14     9  52    3.6574   623.8    2.581      54.700
2015    5       14     9  58    3.6552   623.6    2.582      54.641
2015    5       14    10   4    3.6529   623.3    2.582      54.581
2015    5       14    10   9    3.6507   623.0    2.582      54.522
2015    5       14    10  15    3.6485   622.7    2.583      54.462
2015    5       14    10  21    3.6463   622.5    2.583      54.402
2015    5       14    10  26    3.6440   622.2    2.583      54.343
2015    5       14    10  32    3.6418   621.9    2.584      54.284
2015    5       14    10  38    3.6396   621.6    2.584      54.225
2015    5       14    10  43    3.6374   621.3    2.585      54.166
2015    5       14    10  49    3.6352   621.0    2.585      54.107
2015    5       14    10  55    3.6330   620.8    2.585      54.049
2015    5       14    11   0    3.6309   620.5    2.586      53.991
2015    5       14    11   6    3.6287   620.2    2.586      53.934
2015    5       14    11  12    3.6265   619.9    2.587      53.877
2015    5       14    11  17    3.6244   619.6    2.588      53.820
2015    5       14    11  23    3.6223   619.4    2.588      53.763
2015    5       14    11  28    3.6202   619.1    2.589      53.707
2015    5       14    11  34    3.6180   618.8    2.589      53.652
2015    5       14    11  40    3.6159   618.5    2.590      53.596
2015    5       14    11  45    3.6138   618.2    2.590      53.541
2015    5       14    11  51    3.6116   618.0    2.591      53.486
2015    5       14    11  57    3.6095   617.7    2.592      53.431
2015    5       14    12   2    3.6074   617.4    2.592      53.375
2015    5       14    12   8    3.6052   617.1    2.593      53.318
2015    5       14    12  14    3.6031   616.8    2.593      53.261
2015    5       14    12  19    3.6009   616.6    2.594      53.203
2015    5       14    12  25    3.5987   616.3    2.594      53.145
2015    5       14    12  31    3.5965   616.0    2.594      53.086
2015    5       14    12  36    3.5944   615.7    2.595      53.026
2015    5       14    12  42    3.5922   615.4    2.595      52.966
2015    5       14    12  48    3.5900   615.1    2.595      52.905
2015    5       14    12  53    3.5878   614.9    2.596      52.844
2015    5       14    12  59    3.5856   614.6    2.596      52.782
2015    5       14    13   4    3.5834   614.3    2.596      52.719
2015    5       14    13  10    3.5812   614.0    2.597      52.656
2015    5       14    13  16    3.5790   613.7    2.597      52.593
2015    5       14    13  21    3.5768   613.4    2.597      52.529
2015    5       14    13  27    3.5746   613.1    2.598      52.465
2015    5       14    13  33    3.5724   612.8    2.598      52.401
2015    5       14    13  38    3.5702   612.5    2.598      52.337
2015    5       14    13  44    3.5680   612.2    2.598      52.272
2015    5       14    13  50    3.5658   612.0    2.599      52.207
2015    5       14    13  55    3.5636   611.7    2.599      52.142
2015    5       14    14   1    3.5615   611.4    2.599      52.076
2015    5       14    14   7    3.5593   611.1    2.600      52.011
2015    5       14    14  12    3.5571   610.8    2.600      51.944
2015    5       14    14  18    3.5549   610.5    2.600      51.878
2015    5       14    14  24    3.5528   610.2    2.601      51.812
2015    5       14    14  29    3.5506   609.9    2.601      51.745
2015    5       14    14  35    3.5484   609.6    2.601      51.677
2015    5       14    14  40    3.5463   609.3    2.601      51.609
2015    5       14    14  46    3.5441   609.0    2.601      51.541
2015    5       14    14  52    3.5420   608.7    2.602      51.472
2015    5       14    14  57    3.5398   608.4    2.602      51.403
2015    5       14    15   3    3.5377   608.0    2.602      51.333
2015    5       14    15   9    3.5355   607.7    2.602      51.262
2015    5       14    15  14    3.5334   607.4    2.602      51.191
2015    5       14    15  20    3.5313   607.1    2.602      51.120
2015    5       14    15  26    3.5292   606.8    2.602      51.048
2015    5       14    15  31    3.5270   606.5    2.602      50.977
2015    5       14    15  37    3.5249   606.2    2.602      50.905
2015    5       14    15  43    3.5228   605.8    2.602      50.833
2015    5       14    15  48    3.5207   605.5    2.602      50.760
2015    5       14    15  54    3.5187   605.2    2.602      50.688
2015    5       14    16   0    3.5166   604.9    2.602      50.615
2015    5       14    16   5    3.5145   604.6    2.602      50.543
2015    5       14    16  11    3.5125   604.2    2.602      50.471
2015    5       14    16  16    3.5104   603.9    2.602      50.398
2015    5       14    16  22    3.5084   603.6    2.603      50.326
2015    5       14    16  28    3.5064   603.3    2.603      50.254
2015    5       14    16  33    3.5044   602.9    2.603      50.182
2015    5       14    16  39    3.5023   602.6    2.603      50.111
2015    5       14    16  45    3.5004   602.3    2.603      50.040
2015    5       14    16  50    3.4984   601.9    2.603      49.970
2015    5       14    16  56    3.4964   601.6    2.603      49.900
2015    5       14    17   2    3.4945   601.3    2.604      49.831
2015    5       14    17   7    3.4925   600.9    2.604      49.762
2015    5       14    17  13    3.4906   600.6    2.604      49.693
2015    5       14    17  19    3.4887   600.3    2.605      49.626
2015    5       14    17  24    3.4868   599.9    2.605      49.559
2015    5       14    17  30    3.4849   599.6    2.606      49.492
2015    5       14    17  36    3.4830   599.2    2.606      49.427
2015    5       14    17  41    3.4811   598.9    2.607      49.362
2015    5       14    17  47    3.4793   598.5    2.608      49.298
2015    5       14    17  52    3.4775   598.2    2.609      49.235
2015    5       14    17  58    3.4756   597.8    2.610      49.173
2015    5       14    18   4    3.4738   597.5    2.611      49.111
2015    5       14    18   9    3.4721   597.1    2.612      49.051
2015    5       14    18  15    3.4703   596.8    2.613      48.992
2015    5       14    18  21    3.4686   596.4    2.614      48.934
2015    5       14    18  26    3.4668   596.1    2.615      48.876
2015    5       14    18  32    3.4651   595.7    2.616      48.820
2015    5       14    18  38    3.4634   595.4    2.618      48.765
2015    5       14    18  43    3.4618   595.0    2.620      48.711
2015    5       14    18  49    3.4602   594.7    2.621      48.658
2015    5       14    18  55    3.4585   594.3    2.623      48.607
2015    5       14    19   0    3.4569   594.0    2.625      48.556
2015    5       14    19   6    3.4553   593.6    2.627      48.506
2015    5       14    19  12    3.4537   593.3    2.628      48.457
2015    5       14    19  17    3.4521   592.9    2.630      48.408
2015    5       14    19  23    3.4505   592.6    2.632      48.360
2015    5       14    19  28    3.4489   592.2    2.634      48.311
2015    5       14    19  34    3.4473   591.9    2.637      48.263
2015    5       14    19  40    3.4457   591.5    2.639      48.214
2015    5       14    19  45    3.4441   591.2    2.641      48.164
2015    5       14    19  51    3.4425   590.9    2.643      48.115
2015    5       14    19  57    3.4409   590.5    2.645      48.064
2015    5       14    20   2    3.4392   590.2    2.647      48.013
2015    5       14    20   8    3.4376   589.8    2.649      47.962
2015    5       14    20  14    3.4360   589.5    2.651      47.909
2015    5       14    20  19    3.4343   589.1    2.653      47.855
2015    5       14    20  25    3.4327   588.8    2.655      47.800
2015    5       14    20  31    3.4310   588.4    2.656      47.745
2015    5       14    20  36    3.4294   588.1    2.658      47.689
2015    5       14    20  42    3.4277   587.7    2.660      47.632
2015    5       14    20  48    3.4260   587.4    2.662      47.574
2015    5       14    20  53    3.4244   587.0    2.664      47.516
2015    5       14    20  59    3.4227   586.7    2.665      47.458
2015    5       14    21   4    3.4211   586.3    2.667      47.399
2015    5       14    21  10    3.4194   586.0    2.668      47.340
2015    5       14    21  16    3.4178   585.6    2.670      47.280
2015    5       14    21  21    3.4162   585.3    2.672      47.220
2015    5       14    21  27    3.4146   584.9    2.673      47.160
2015    5       14    21  33    3.4130   584.6    2.675      47.099
2015    5       14    21  38    3.4114   584.2    2.676      47.037
2015    5       14    21  44    3.4098   583.9    2.677      46.975
2015    5       14    21  50    3.4082   583.5    2.679      46.912
2015    5       14    21  55    3.4066   583.1    2.680      46.849
2015    5       14    22   1    3.4050   582.8    2.682      46.786
2015    5       14    22   7    3.4034   582.4    2.683      46.722
2015    5       14    22  12    3.4019   582.1    2.684      46.658
2015    5       14    22  18    3.4003   581.7    2.685      46.594
2015    5       14    22  24    3.3987   581.4    2.687      46.529
2015    5       14    22  29    3.3971   581.0    2.688      46.464
2015    5       14    22  35    3.3956   580.6    2.689      46.398
2015    5       14    22  40    3.3940   580.3    2.690      46.332
2015    5       14    22  46    3.3925   579.9    2.691      46.265
2015    5       14    22  52    3.3909   579.6    2.692      46.199
2015    5       14    22  57    3.3894   579.2    2.694      46.132
2015    5       14    23   3    3.3878   578.8    2.695      46.065
2015    5       14    23   9    3.3863   578.5    2.696      45.998
2015    5       14    23  14    3.3848   578.1    2.697      45.931
2015    5       14    23  20    3.3833   577.7    2.698      45.863
2015    5       14    23  26    3.3818   577.3    2.699      45.796
2015    5       14    23  31    3.3804   577.0    2.700      45.729
2015    5       14    23  37    3.3789   576.6    2.701      45.661
2015    5       14    23  43    3.3775   576.2    2.703      45.594
2015    5       14    23  48    3.3761   575.8    2.704      45.527
2015    5       14    23  54    3.3747   575.5    2.705      45.461
2015    5       15     0   0    3.3733   575.1    2.706      45.394
2015    5       15     0   5    3.3719   574.7    2.707      45.328
2015    5       15     0  11    3.3705   574.3    2.709      45.262
2015    5       15     0  17    3.3692   573.9    2.710      45.196
2015    5       15     0  22    3.3679   573.5    2.712      45.131
2015    5       15     0  28    3.3666   573.1    2.713      45.066
2015    5       15     0  33    3.3653   572.7    2.715      45.002
2015    5       15     0  39    3.3640   572.4    2.716      44.938
2015    5       15     0  45    3.3628   572.0    2.718      44.875
2015    5       15     0  50    3.3616   571.6    2.719      44.812
2015    5       15     0  56    3.3604   571.2    2.721      44.750
2015    5       15     1   2    3.3592   570.8    2.723      44.689
2015    5       15     1   7    3.3581   570.4    2.725      44.629
2015    5       15     1  13    3.3570   570.0    2.727      44.569
2015    5       15     1  19    3.3559   569.6    2.729      44.510
2015    5       15     1  24    3.3548   569.2    2.731      44.453
2015    5       15     1  30    3.3538   568.8    2.734      44.395
2015    5       15     1  36    3.3528   568.4    2.736      44.339
2015    5       15     1  41    3.3518   568.0    2.739      44.284
2015    5       15     1  47    3.3509   567.6    2.742      44.230
2015    5       15     1  53    3.3499   567.2    2.744      44.176
2015    5       15     1  58    3.3491   566.8    2.747      44.124
2015    5       15     2   4    3.3482   566.4    2.750      44.072
2015    5       15     2   9    3.3473   566.0    2.753      44.021
2015    5       15     2  15    3.3465   565.6    2.756      43.971
2015    5       15     2  21    3.3456   565.2    2.759      43.921
2015    5       15     2  26    3.3448   564.8    2.763      43.872
2015    5       15     2  32    3.3440   564.4    2.766      43.823
2015    5       15     2  38    3.3432   564.0    2.770      43.775
2015    5       15     2  43    3.3425   563.6    2.773      43.727
2015    5       15     2  49    3.3417   563.2    2.777      43.678
2015    5       15     2  55    3.3410   562.8    2.780      43.630
2015    5       15     3   0    3.3403   562.4    2.784      43.582
2015    5       15     3   6    3.3396   562.0    2.787      43.534
2015    5       15     3  12    3.3389   561.6    2.791      43.486
2015    5       15     3  17    3.3382   561.2    2.795      43.438
2015    5       15     3  23    3.3375   560.8    2.798      43.391
2015    5       15     3  29    3.3368   560.5    2.802      43.343
2015    5       15     3  34    3.3362   560.1    2.806      43.295
2015    5       15     3  40    3.3355   559.7    2.810      43.246
2015    5       15     3  45    3.3349   559.3    2.813      43.197
2015    5       15     3  51    3.3342   558.9    2.817      43.148
2015    5       15     3  57    3.3336   558.5    2.820      43.097
2015    5       15     4   2    3.3330   558.1    2.824      43.046
2015    5       15     4   8    3.3324   557.7    2.828      42.995
2015    5       15     4  14    3.3319   557.3    2.831      42.943
2015    5       15     4  19    3.3313   556.9    2.834      42.890
2015    5       15     4  25    3.3307   556.5    2.838      42.838
2015    5       15     4  31    3.3302   556.2    2.841      42.785
2015    5       15     4  36    3.3297   555.8    2.845      42.731
2015    5       15     4  42    3.3291   555.4    2.848      42.678
2015    5       15     4  48    3.3287   555.0    2.851      42.623
2015    5       15     4  53    3.3282   554.6    2.854      42.569
2015    5       15     4  59    3.3278   554.2    2.858      42.514
2015    5       15     5   5    3.3274   553.8    2.861      42.459
2015    5       15     5  10    3.3269   553.4    2.864      42.403
2015    5       15     5  16    3.3265   553.0    2.867      42.347
2015    5       15     5  21    3.3262   552.6    2.870      42.291
2015    5       15     5  27    3.3258   552.2    2.873      42.234
2015    5       15     5  33    3.3254   551.9    2.876      42.177
2015    5       15     5  38    3.3251   551.5    2.879      42.119
2015    5       15     5  44    3.3247   551.1    2.882      42.062
2015    5       15     5  50    3.3244   550.7    2.885      42.004
2015    5       15     5  55    3.3241   550.3    2.888      41.946
2015    5       15     6   1    3.3237   549.9    2.891      41.887
2015    5       15     6   7    3.3234   549.5    2.894      41.829
2015    5       15     6  12    3.3231   549.1    2.897      41.770
2015    5       15     6  18    3.3229   548.7    2.900      41.711
2015    5       15     6  24    3.3226   548.3    2.903      41.651
2015    5       15     6  29    3.3223   547.9    2.906      41.592
2015    5       15     6  35    3.3221   547.5    2.909      41.533
2015    5       15     6  41    3.3218   547.2    2.912      41.473
2015    5       15     6  46    3.3216   546.8    2.914      41.413
2015    5       15     6  52    3.3214   546.4    2.917      41.353
2015    5       15     6  57    3.3212   546.0    2.920      41.293
2015    5       15     7   3    3.3210   545.6    2.923      41.233
2015    5       15     7   9    3.3208   545.2    2.926      41.173
2015    5       15     7  14    3.3207   544.8    2.929      41.113
2015    5       15     7  20    3.3205   544.4    2.932      41.052
2015    5       15     7  26    3.3204   544.0    2.935      40.992
2015    5       15     7  31    3.3203   543.6    2.937      40.932
2015    5       15     7  37    3.3202   543.2    2.940      40.872
2015    5       15     7  43    3.3202   542.8    2.944      40.812
2015    5       15     7  48    3.3202   542.4    2.947      40.752
2015    5       15     7  54    3.3201   542.0    2.950      40.693
2015    5       15     8   0    3.3202   541.5    2.953      40.635
2015    5       15     8   5    3.3202   541.1    2.956      40.577
2015    5       15     8  11    3.3203   540.7    2.960      40.519
2015    5       15     8  17    3.3205   540.3    2.963      40.463
2015    5       15     8  22    3.3207   539.9    2.967      40.407
2015    5       15     8  28    3.3209   539.5    2.971      40.353
2015    5       15     8  33    3.3212   539.1    2.975      40.299
2015    5       15     8  39    3.3215   538.7    2.979      40.247
2015    5       15     8  45    3.3219   538.3    2.983      40.196
2015    5       15     8  50    3.3223   537.9    2.988      40.146
2015    5       15     8  56    3.3228   537.5    2.992      40.098
2015    5       15     9   2    3.3233   537.1    2.997      40.051
2015    5       15     9   7    3.3239   536.7    3.002      40.005
2015    5       15     9  13    3.3245   536.3    3.007      39.961
2015    5       15     9  19    3.3252   535.9    3.012      39.918
2015    5       15     9  24    3.3259   535.5    3.017      39.876
2015    5       15     9  30    3.3267   535.1    3.023      39.836
2015    5       15     9  36    3.3275   534.7    3.029      39.796
2015    5       15     9  41    3.3284   534.3    3.034      39.758
2015    5       15     9  47    3.3292   533.9    3.040      39.720
2015    5       15     9  53    3.3301   533.5    3.046      39.683
2015    5       15     9  58    3.3311   533.1    3.052      39.647
2015    5       15    10   4    3.3320   532.7    3.058      39.611
2015    5       15    10   9    3.3330   532.3    3.064      39.575
2015    5       15    10  15    3.3340   532.0    3.070      39.539
2015    5       15    10  21    3.3350   531.6    3.077      39.502
2015    5       15    10  26    3.3360   531.2    3.083      39.466
2015    5       15    10  32    3.3370   530.8    3.089      39.430
2015    5       15    10  38    3.3381   530.4    3.095      39.394
2015    5       15    10  43    3.3391   530.0    3.102      39.358
2015    5       15    10  49    3.3402   529.6    3.108      39.323
2015    5       15    10  55    3.3413   529.2    3.114      39.287
2015    5       15    11   0    3.3424   528.9    3.120      39.251
2015    5       15    11   6    3.3435   528.5    3.126      39.215
2015    5       15    11  12    3.3447   528.1    3.133      39.179
2015    5       15    11  17    3.3459   527.7    3.139      39.144
2015    5       15    11  23    3.3471   527.3    3.145      39.108
2015    5       15    11  29    3.3483   527.0    3.151      39.072
2015    5       15    11  34    3.3496   526.6    3.157      39.035
2015    5       15    11  40    3.3508   526.2    3.163      38.999
2015    5       15    11  45    3.3521   525.8    3.169      38.962
2015    5       15    11  51    3.3535   525.5    3.175      38.926
2015    5       15    11  57    3.3548   525.1    3.181      38.889
2015    5       15    12   2    3.3562   524.7    3.187      38.852
2015    5       15    12   8    3.3576   524.4    3.193      38.814
2015    5       15    12  14    3.3590   524.0    3.199      38.777
2015    5       15    12  19    3.3605   523.6    3.205      38.739
2015    5       15    12  25    3.3620   523.3    3.211      38.701
2015    5       15    12  31    3.3635   522.9    3.216      38.663
2015    5       15    12  36    3.3651   522.5    3.222      38.624
2015    5       15    12  42    3.3667   522.2    3.228      38.586
2015    5       15    12  48    3.3683   521.8    3.234      38.547
2015    5       15    12  53    3.3699   521.4    3.239      38.508
2015    5       15    12  59    3.3716   521.1    3.245      38.469
2015    5       15    13   5    3.3733   520.7    3.251      38.429
2015    5       15    13  10    3.3751   520.3    3.257      38.390
2015    5       15    13  16    3.3768   520.0    3.262      38.350
2015    5       15    13  21    3.3786   519.6    3.268      38.311
2015    5       15    13  27    3.3804   519.3    3.273      38.271
2015    5       15    13  33    3.3822   518.9    3.279      38.231
2015    5       15    13  38    3.3840   518.5    3.285      38.191
2015    5       15    13  44    3.3859   518.2    3.290      38.151
2015    5       15    13  50    3.3878   517.8    3.296      38.110
2015    5       15    13  55    3.3896   517.5    3.302      38.070
2015    5       15    14   1    3.3916   517.1    3.307      38.030
2015    5       15    14   7    3.3935   516.8    3.313      37.989
2015    5       15    14  12    3.3954   516.4    3.318      37.949
2015    5       15    14  18    3.3973   516.1    3.324      37.908
2015    5       15    14  24    3.3993   515.7    3.330      37.867
2015    5       15    14  29    3.4013   515.4    3.335      37.827
2015    5       15    14  35    3.4033   515.0    3.341      37.786
2015    5       15    14  41    3.4053   514.7    3.347      37.745
2015    5       15    14  46    3.4074   514.3    3.352      37.705
2015    5       15    14  52    3.4095   514.0    3.358      37.664
2015    5       15    14  57    3.4116   513.6    3.364      37.624
2015    5       15    15   3    3.4137   513.3    3.370      37.583
2015    5       15    15   9    3.4159   512.9    3.375      37.543
2015    5       15    15  14    3.4180   512.6    3.381      37.503
2015    5       15    15  20    3.4202   512.2    3.387      37.463
2015    5       15    15  26    3.4225   511.9    3.393      37.424
2015    5       15    15  31    3.4247   511.5    3.399      37.384
2015    5       15    15  37    3.4270   511.2    3.405      37.345
2015    5       15    15  43    3.4293   510.8    3.411      37.307
2015    5       15    15  48    3.4317   510.5    3.417      37.269
2015    5       15    15  54    3.4341   510.1    3.423      37.231
2015    5       15    16   0    3.4365   509.8    3.429      37.194
2015    5       15    16   5    3.4390   509.4    3.436      37.158
2015    5       15    16  11    3.4415   509.1    3.442      37.123
2015    5       15    16  17    3.4440   508.8    3.449      37.088
2015    5       15    16  22    3.4466   508.4    3.456      37.054
2015    5       15    16  28    3.4492   508.1    3.462      37.020
2015    5       15    16  33    3.4519   507.8    3.469      36.988
2015    5       15    16  39    3.4546   507.4    3.476      36.957
2015    5       15    16  45    3.4574   507.1    3.484      36.927
2015    5       15    16  50    3.4602   506.8    3.491      36.897
2015    5       15    16  56    3.4630   506.4    3.498      36.869
2015    5       15    17   2    3.4659   506.1    3.506      36.842
2015    5       15    17   7    3.4688   505.8    3.514      36.815
2015    5       15    17  13    3.4717   505.4    3.521      36.790
2015    5       15    17  19    3.4747   505.1    3.529      36.765
2015    5       15    17  24    3.4778   504.8    3.537      36.742
2015    5       15    17  30    3.4808   504.5    3.545      36.720
2015    5       15    17  36    3.4839   504.2    3.554      36.698
2015    5       15    17  41    3.4870   503.9    3.562      36.678
2015    5       15    17  47    3.4902   503.5    3.571      36.658
2015    5       15    17  53    3.4934   503.2    3.579      36.639
2015    5       15    17  58    3.4966   502.9    3.588      36.621
2015    5       15    18   4    3.4998   502.6    3.596      36.603
2015    5       15    18   9    3.5031   502.3    3.605      36.587
2015    5       15    18  15    3.5064   502.0    3.614      36.571
2015    5       15    18  21    3.5098   501.7    3.623      36.555
2015    5       15    18  26    3.5132   501.4    3.632      36.541
2015    5       15    18  32    3.5166   501.1    3.641      36.526
2015    5       15    18  38    3.5200   500.8    3.650      36.513
2015    5       15    18  43    3.5235   500.5    3.660      36.499
2015    5       15    18  49    3.5271   500.2    3.669      36.487
2015    5       15    18  55    3.5306   499.9    3.678      36.474
2015    5       15    19   0    3.5342   499.6    3.688      36.462
2015    5       15    19   6    3.5379   499.3    3.697      36.450
2015    5       15    19  12    3.5416   499.0    3.707      36.439
2015    5       15    19  17    3.5453   498.7    3.717      36.428
2015    5       15    19  23    3.5491   498.4    3.726      36.417
2015    5       15    19  29    3.5530   498.1    3.736      36.407
2015    5       15    19  34    3.5569   497.8    3.746      36.397
2015    5       15    19  40    3.5609   497.5    3.756      36.388
2015    5       15    19  45    3.5649   497.2    3.766      36.378
2015    5       15    19  51    3.5690   496.9    3.776      36.368
2015    5       15    19  57    3.5732   496.6    3.786      36.360
2015    5       15    20   2    3.5775   496.3    3.796      36.352
2015    5       15    20   8    3.5817   496.0    3.806      36.345
2015    5       15    20  14    3.5861   495.7    3.817      36.339
2015    5       15    20  19    3.5905   495.5    3.827      36.333
2015    5       15    20  25    3.5949   495.2    3.837      36.327
2015    5       15    20  31    3.5993   494.9    3.847      36.322
2015    5       15    20  36    3.6037   494.7    3.857      36.317
2015    5       15    20  42    3.6081   494.4    3.867      36.311
2015    5       15    20  48    3.6126   494.1    3.876      36.306
2015    5       15    20  53    3.6170   493.9    3.886      36.300
2015    5       15    20  59    3.6214   493.6    3.896      36.294
2015    5       15    21   5    3.6259   493.4    3.905      36.287
2015    5       15    21  10    3.6303   493.1    3.915      36.281
2015    5       15    21  16    3.6348   492.9    3.924      36.275
2015    5       15    21  21    3.6392   492.6    3.934      36.268
2015    5       15    21  27    3.6437   492.4    3.943      36.262
2015    5       15    21  33    3.6482   492.1    3.952      36.255
2015    5       15    21  38    3.6526   491.9    3.961      36.249
2015    5       15    21  44    3.6571   491.7    3.971      36.242
2015    5       15    21  50    3.6616   491.4    3.980      36.235
2015    5       15    21  55    3.6661   491.2    3.989      36.229
2015    5       15    22   1    3.6706   490.9    3.998      36.222
2015    5       15    22   7    3.6751   490.7    4.007      36.216
2015    5       15    22  12    3.6797   490.5    4.016      36.209
2015    5       15    22  18    3.6842   490.3    4.025      36.203
2015    5       15    22  24    3.6888   490.0    4.034      36.197
2015    5       15    22  29    3.6934   489.8    4.043      36.191
2015    5       15    22  35    3.6980   489.6    4.052      36.185
2015    5       15    22  41    3.7026   489.4    4.061      36.179
2015    5       15    22  46    3.7072   489.1    4.070      36.173
2015    5       15    22  52    3.7118   488.9    4.079      36.167
2015    5       15    22  57    3.7165   488.7    4.088      36.162
2015    5       15    23   3    3.7212   488.5    4.097      36.156
2015    5       15    23   9    3.7259   488.3    4.105      36.152
2015    5       15    23  14    3.7306   488.1    4.114      36.147
2015    5       15    23  20    3.7353   487.8    4.123      36.143
2015    5       15    23  26    3.7401   487.6    4.132      36.140
2015    5       15    23  31    3.7449   487.4    4.141      36.137
2015    5       15    23  37    3.7497   487.2    4.149      36.134
2015    5       15    23  43    3.7546   487.0    4.158      36.132
2015    5       15    23  48    3.7594   486.8    4.167      36.130
2015    5       15    23  54    3.7643   486.6    4.176      36.129
2015    5       16     0   0    3.7692   486.4    4.185      36.129
