year    month   day   hour  minute  B_enl V_enl   n_enl       T_enl
[year] [month] [day] [hour][minute] [nT]  [km/s]  [cm-3]      [kK]
2015    5        5     0   5    4.2695   427.6    5.871      35.534
2015    5        5     0  10    4.2721   427.5    5.878      35.535
2015    5        5     0  16    4.2748   427.5    5.886      35.536
2015    5        5     0  22    4.2774   427.4    5.893      35.536
2015    5        5     0  28    4.2800   427.3    5.900      35.537
2015    5        5     0  34    4.2827   427.3    5.908      35.537
2015    5        5     0  40    4.2853   427.2    5.915      35.538
2015    5        5     0  45    4.2878   427.2    5.922      35.538
2015    5        5     0  51    4.2904   427.1    5.929      35.538
2015    5        5     0  57    4.2930   427.0    5.936      35.538
2015    5        5     1   3    4.2956   427.0    5.943      35.537
2015    5        5     1   9    4.2982   426.9    5.950      35.537
2015    5        5     1  14    4.3007   426.8    5.957      35.536
2015    5        5     1  20    4.3033   426.8    5.964      35.535
2015    5        5     1  26    4.3059   426.7    5.970      35.534
2015    5        5     1  32    4.3084   426.7    5.977      35.533
2015    5        5     1  38    4.3109   426.6    5.983      35.532
2015    5        5     1  44    4.3134   426.5    5.990      35.531
2015    5        5     1  49    4.3159   426.5    5.996      35.530
2015    5        5     1  55    4.3185   426.4    6.003      35.528
2015    5        5     2   1    4.3210   426.4    6.009      35.527
2015    5        5     2   7    4.3234   426.3    6.015      35.525
2015    5        5     2  13    4.3259   426.3    6.022      35.524
2015    5        5     2  18    4.3284   426.2    6.028      35.522
2015    5        5     2  24    4.3309   426.2    6.034      35.521
2015    5        5     2  30    4.3333   426.1    6.040      35.519
2015    5        5     2  36    4.3358   426.1    6.046      35.518
2015    5        5     2  42    4.3383   426.0    6.052      35.516
2015    5        5     2  48    4.3407   426.0    6.058      35.514
2015    5        5     2  53    4.3432   425.9    6.064      35.513
2015    5        5     2  59    4.3456   425.8    6.070      35.512
2015    5        5     3   5    4.3480   425.8    6.076      35.510
2015    5        5     3  11    4.3505   425.7    6.082      35.509
2015    5        5     3  17    4.3529   425.7    6.088      35.508
2015    5        5     3  22    4.3554   425.6    6.094      35.507
2015    5        5     3  28    4.3578   425.6    6.100      35.506
2015    5        5     3  34    4.3603   425.6    6.106      35.505
2015    5        5     3  40    4.3627   425.5    6.112      35.505
2015    5        5     3  46    4.3652   425.5    6.118      35.504
2015    5        5     3  52    4.3677   425.4    6.123      35.504
2015    5        5     3  57    4.3701   425.4    6.129      35.503
2015    5        5     4   3    4.3726   425.3    6.135      35.503
2015    5        5     4   9    4.3751   425.3    6.141      35.503
2015    5        5     4  15    4.3776   425.2    6.147      35.504
2015    5        5     4  21    4.3800   425.2    6.153      35.504
2015    5        5     4  27    4.3826   425.1    6.159      35.505
2015    5        5     4  32    4.3851   425.1    6.165      35.505
2015    5        5     4  38    4.3876   425.0    6.171      35.506
2015    5        5     4  44    4.3901   425.0    6.177      35.508
2015    5        5     4  50    4.3927   425.0    6.184      35.509
2015    5        5     4  56    4.3952   424.9    6.190      35.511
2015    5        5     5   1    4.3978   424.9    6.196      35.513
2015    5        5     5   7    4.4004   424.8    6.202      35.515
2015    5        5     5  13    4.4030   424.8    6.209      35.518
2015    5        5     5  19    4.4056   424.7    6.215      35.521
2015    5        5     5  25    4.4083   424.7    6.221      35.524
2015    5        5     5  31    4.4110   424.7    6.228      35.528
2015    5        5     5  36    4.4136   424.6    6.235      35.531
2015    5        5     5  42    4.4164   424.6    6.241      35.536
2015    5        5     5  48    4.4191   424.5    6.248      35.540
2015    5        5     5  54    4.4218   424.5    6.255      35.545
2015    5        5     6   0    4.4246   424.5    6.261      35.551
2015    5        5     6   5    4.4274   424.4    6.268      35.556
2015    5        5     6  11    4.4302   424.4    6.275      35.562
2015    5        5     6  17    4.4331   424.4    6.282      35.569
2015    5        5     6  23    4.4359   424.3    6.289      35.575
2015    5        5     6  29    4.4388   424.3    6.296      35.581
2015    5        5     6  35    4.4417   424.3    6.303      35.588
2015    5        5     6  40    4.4446   424.2    6.310      35.595
2015    5        5     6  46    4.4475   424.2    6.317      35.602
2015    5        5     6  52    4.4504   424.2    6.324      35.609
2015    5        5     6  58    4.4534   424.2    6.331      35.616
2015    5        5     7   4    4.4563   424.1    6.339      35.624
2015    5        5     7   9    4.4593   424.1    6.346      35.631
2015    5        5     7  15    4.4623   424.1    6.353      35.639
2015    5        5     7  21    4.4654   424.0    6.361      35.648
2015    5        5     7  27    4.4684   424.0    6.369      35.656
2015    5        5     7  33    4.4715   424.0    6.376      35.664
2015    5        5     7  39    4.4745   424.0    6.384      35.673
2015    5        5     7  44    4.4776   423.9    6.392      35.682
2015    5        5     7  50    4.4806   423.9    6.400      35.693
2015    5        5     7  56    4.4836   423.9    6.408      35.703
2015    5        5     8   2    4.4866   423.9    6.416      35.714
2015    5        5     8   8    4.4896   423.9    6.424      35.726
2015    5        5     8  14    4.4925   423.9    6.432      35.737
2015    5        5     8  19    4.4954   423.9    6.439      35.749
2015    5        5     8  25    4.4983   423.9    6.447      35.761
2015    5        5     8  31    4.5012   423.8    6.454      35.772
2015    5        5     8  37    4.5040   423.8    6.461      35.783
2015    5        5     8  43    4.5068   423.8    6.468      35.793
2015    5        5     8  48    4.5096   423.8    6.475      35.803
2015    5        5     8  54    4.5123   423.8    6.482      35.813
2015    5        5     9   0    4.5150   423.8    6.489      35.823
2015    5        5     9   6    4.5177   423.8    6.495      35.832
2015    5        5     9  12    4.5203   423.8    6.502      35.841
2015    5        5     9  18    4.5229   423.8    6.508      35.850
2015    5        5     9  23    4.5255   423.8    6.514      35.858
2015    5        5     9  29    4.5281   423.8    6.521      35.866
2015    5        5     9  35    4.5306   423.8    6.526      35.874
2015    5        5     9  41    4.5332   423.8    6.532      35.882
2015    5        5     9  47    4.5357   423.8    6.538      35.889
2015    5        5     9  52    4.5382   423.8    6.544      35.896
2015    5        5     9  58    4.5407   423.8    6.549      35.902
2015    5        5    10   4    4.5431   423.8    6.555      35.909
2015    5        5    10  10    4.5456   423.7    6.560      35.915
2015    5        5    10  16    4.5480   423.7    6.566      35.921
2015    5        5    10  22    4.5505   423.7    6.571      35.927
2015    5        5    10  27    4.5529   423.7    6.576      35.933
2015    5        5    10  33    4.5553   423.7    6.581      35.939
2015    5        5    10  39    4.5578   423.7    6.586      35.944
2015    5        5    10  45    4.5602   423.7    6.591      35.949
2015    5        5    10  51    4.5626   423.7    6.596      35.955
2015    5        5    10  56    4.5650   423.7    6.601      35.959
2015    5        5    11   2    4.5674   423.7    6.606      35.964
2015    5        5    11   8    4.5699   423.7    6.611      35.969
2015    5        5    11  14    4.5723   423.7    6.616      35.974
2015    5        5    11  20    4.5747   423.7    6.621      35.978
2015    5        5    11  26    4.5772   423.7    6.625      35.982
2015    5        5    11  31    4.5796   423.7    6.630      35.987
2015    5        5    11  37    4.5821   423.7    6.635      35.991
2015    5        5    11  43    4.5845   423.7    6.640      35.996
2015    5        5    11  49    4.5869   423.7    6.644      36.001
2015    5        5    11  55    4.5894   423.7    6.649      36.006
2015    5        5    12   1    4.5918   423.7    6.654      36.011
2015    5        5    12   6    4.5942   423.7    6.658      36.017
2015    5        5    12  12    4.5966   423.7    6.662      36.022
2015    5        5    12  18    4.5991   423.7    6.667      36.028
2015    5        5    12  24    4.6015   423.7    6.671      36.035
2015    5        5    12  30    4.6039   423.7    6.675      36.041
2015    5        5    12  35    4.6063   423.7    6.680      36.047
2015    5        5    12  41    4.6087   423.7    6.684      36.054
2015    5        5    12  47    4.6112   423.7    6.688      36.060
2015    5        5    12  53    4.6136   423.7    6.692      36.067
2015    5        5    12  59    4.6160   423.7    6.696      36.074
2015    5        5    13   5    4.6184   423.7    6.700      36.080
2015    5        5    13  10    4.6209   423.7    6.704      36.087
2015    5        5    13  16    4.6233   423.7    6.708      36.094
2015    5        5    13  22    4.6258   423.7    6.712      36.101
2015    5        5    13  28    4.6282   423.7    6.716      36.108
2015    5        5    13  34    4.6307   423.7    6.720      36.115
2015    5        5    13  39    4.6332   423.8    6.724      36.123
2015    5        5    13  45    4.6357   423.8    6.728      36.130
2015    5        5    13  51    4.6382   423.8    6.732      36.138
2015    5        5    13  57    4.6407   423.8    6.736      36.146
2015    5        5    14   3    4.6433   423.8    6.741      36.154
2015    5        5    14   9    4.6458   423.8    6.745      36.162
2015    5        5    14  14    4.6484   423.8    6.749      36.171
2015    5        5    14  20    4.6510   423.8    6.754      36.179
2015    5        5    14  26    4.6536   423.8    6.758      36.189
2015    5        5    14  32    4.6562   423.8    6.763      36.198
2015    5        5    14  38    4.6589   423.8    6.767      36.208
2015    5        5    14  43    4.6615   423.8    6.772      36.218
2015    5        5    14  49    4.6642   423.8    6.777      36.228
2015    5        5    14  55    4.6669   423.9    6.782      36.239
2015    5        5    15   1    4.6696   423.9    6.788      36.251
2015    5        5    15   7    4.6723   423.9    6.793      36.263
2015    5        5    15  13    4.6750   423.9    6.799      36.276
2015    5        5    15  18    4.6777   423.9    6.804      36.290
2015    5        5    15  24    4.6803   423.9    6.810      36.304
2015    5        5    15  30    4.6830   424.0    6.815      36.319
2015    5        5    15  36    4.6857   424.0    6.821      36.334
2015    5        5    15  42    4.6883   424.0    6.826      36.349
2015    5        5    15  48    4.6909   424.0    6.831      36.364
2015    5        5    15  53    4.6935   424.0    6.837      36.380
2015    5        5    15  59    4.6961   424.1    6.842      36.395
2015    5        5    16   5    4.6987   424.1    6.848      36.410
2015    5        5    16  11    4.7012   424.1    6.853      36.425
2015    5        5    16  17    4.7036   424.1    6.859      36.440
2015    5        5    16  22    4.7061   424.2    6.864      36.456
2015    5        5    16  28    4.7085   424.2    6.869      36.472
2015    5        5    16  34    4.7109   424.2    6.874      36.488
2015    5        5    16  40    4.7133   424.2    6.880      36.504
2015    5        5    16  46    4.7157   424.3    6.885      36.521
2015    5        5    16  52    4.7180   424.3    6.889      36.537
2015    5        5    16  57    4.7203   424.3    6.894      36.553
2015    5        5    17   3    4.7226   424.4    6.899      36.569
2015    5        5    17   9    4.7249   424.4    6.904      36.585
2015    5        5    17  15    4.7272   424.4    6.908      36.600
2015    5        5    17  21    4.7295   424.4    6.913      36.615
2015    5        5    17  26    4.7317   424.5    6.917      36.629
2015    5        5    17  32    4.7340   424.5    6.921      36.644
2015    5        5    17  38    4.7362   424.5    6.926      36.658
2015    5        5    17  44    4.7385   424.5    6.930      36.672
2015    5        5    17  50    4.7407   424.6    6.934      36.685
2015    5        5    17  56    4.7430   424.6    6.938      36.699
2015    5        5    18   1    4.7453   424.6    6.942      36.712
2015    5        5    18   7    4.7476   424.7    6.946      36.725
2015    5        5    18  13    4.7499   424.7    6.951      36.737
2015    5        5    18  19    4.7522   424.7    6.955      36.750
2015    5        5    18  25    4.7545   424.7    6.959      36.763
2015    5        5    18  30    4.7568   424.8    6.963      36.777
2015    5        5    18  36    4.7591   424.8    6.967      36.790
2015    5        5    18  42    4.7613   424.8    6.971      36.804
2015    5        5    18  48    4.7636   424.9    6.975      36.818
2015    5        5    18  54    4.7659   424.9    6.979      36.832
2015    5        5    19   0    4.7681   425.0    6.983      36.846
2015    5        5    19   5    4.7703   425.0    6.986      36.861
2015    5        5    19  11    4.7725   425.0    6.990      36.875
2015    5        5    19  17    4.7747   425.1    6.993      36.889
2015    5        5    19  23    4.7768   425.1    6.996      36.903
2015    5        5    19  29    4.7789   425.2    6.999      36.917
2015    5        5    19  34    4.7810   425.2    7.002      36.931
2015    5        5    19  40    4.7831   425.2    7.005      36.944
2015    5        5    19  46    4.7852   425.3    7.007      36.958
2015    5        5    19  52    4.7872   425.3    7.009      36.971
2015    5        5    19  58    4.7892   425.4    7.012      36.984
2015    5        5    20   4    4.7912   425.4    7.014      36.996
2015    5        5    20   9    4.7932   425.5    7.016      37.008
2015    5        5    20  15    4.7951   425.5    7.017      37.020
2015    5        5    20  21    4.7971   425.5    7.019      37.032
2015    5        5    20  27    4.7991   425.6    7.021      37.044
2015    5        5    20  33    4.8010   425.6    7.022      37.055
2015    5        5    20  39    4.8029   425.7    7.024      37.066
2015    5        5    20  44    4.8048   425.7    7.025      37.076
2015    5        5    20  50    4.8068   425.8    7.027      37.087
2015    5        5    20  56    4.8087   425.8    7.028      37.097
2015    5        5    21   2    4.8106   425.8    7.029      37.107
2015    5        5    21   8    4.8125   425.9    7.030      37.117
2015    5        5    21  13    4.8144   425.9    7.031      37.127
2015    5        5    21  19    4.8163   426.0    7.032      37.136
2015    5        5    21  25    4.8182   426.0    7.033      37.146
2015    5        5    21  31    4.8201   426.0    7.034      37.155
2015    5        5    21  37    4.8220   426.1    7.035      37.165
2015    5        5    21  43    4.8239   426.1    7.036      37.174
2015    5        5    21  48    4.8258   426.2    7.037      37.183
2015    5        5    21  54    4.8277   426.2    7.038      37.192
2015    5        5    22   0    4.8296   426.3    7.039      37.201
2015    5        5    22   6    4.8316   426.3    7.040      37.211
2015    5        5    22  12    4.8335   426.3    7.041      37.220
2015    5        5    22  17    4.8354   426.4    7.042      37.229
2015    5        5    22  23    4.8374   426.4    7.043      37.238
2015    5        5    22  29    4.8393   426.5    7.044      37.247
2015    5        5    22  35    4.8413   426.5    7.045      37.257
2015    5        5    22  41    4.8433   426.5    7.046      37.266
2015    5        5    22  47    4.8453   426.6    7.048      37.276
2015    5        5    22  52    4.8473   426.6    7.049      37.286
2015    5        5    22  58    4.8494   426.7    7.050      37.297
2015    5        5    23   4    4.8514   426.7    7.052      37.307
2015    5        5    23  10    4.8534   426.8    7.053      37.318
2015    5        5    23  16    4.8555   426.8    7.055      37.329
2015    5        5    23  21    4.8575   426.8    7.057      37.341
2015    5        5    23  27    4.8596   426.9    7.059      37.353
2015    5        5    23  33    4.8616   426.9    7.060      37.365
2015    5        5    23  39    4.8636   427.0    7.062      37.378
2015    5        5    23  45    4.8656   427.0    7.065      37.392
2015    5        5    23  51    4.8676   427.1    7.067      37.406
2015    5        5    23  56    4.8696   427.1    7.069      37.421
2015    5        6     0   2    4.8716   427.2    7.071      37.436
2015    5        6     0   8    4.8736   427.2    7.073      37.452
2015    5        6     0  14    4.8755   427.3    7.075      37.469
2015    5        6     0  20    4.8774   427.4    7.078      37.485
2015    5        6     0  26    4.8793   427.4    7.080      37.502
2015    5        6     0  31    4.8812   427.5    7.082      37.519
2015    5        6     0  37    4.8831   427.5    7.084      37.536
2015    5        6     0  43    4.8850   427.6    7.086      37.553
2015    5        6     0  49    4.8869   427.6    7.088      37.570
2015    5        6     0  55    4.8887   427.7    7.090      37.588
2015    5        6     1   0    4.8906   427.7    7.092      37.605
2015    5        6     1   6    4.8924   427.8    7.095      37.623
2015    5        6     1  12    4.8943   427.8    7.097      37.641
2015    5        6     1  18    4.8961   427.9    7.099      37.658
2015    5        6     1  24    4.8980   427.9    7.101      37.676
2015    5        6     1  30    4.8999   428.0    7.103      37.694
2015    5        6     1  35    4.9017   428.0    7.106      37.712
2015    5        6     1  41    4.9036   428.1    7.108      37.731
2015    5        6     1  47    4.9055   428.2    7.111      37.750
2015    5        6     1  53    4.9074   428.2    7.113      37.769
2015    5        6     1  59    4.9092   428.3    7.115      37.789
2015    5        6     2   4    4.9111   428.3    7.118      37.809
2015    5        6     2  10    4.9129   428.4    7.120      37.830
2015    5        6     2  16    4.9147   428.4    7.122      37.851
2015    5        6     2  22    4.9165   428.5    7.125      37.872
2015    5        6     2  28    4.9183   428.6    7.127      37.892
2015    5        6     2  34    4.9201   428.6    7.129      37.913
2015    5        6     2  39    4.9218   428.7    7.131      37.933
2015    5        6     2  45    4.9235   428.8    7.133      37.953
2015    5        6     2  51    4.9253   428.8    7.134      37.972
2015    5        6     2  57    4.9269   428.9    7.136      37.992
2015    5        6     3   3    4.9286   428.9    7.137      38.011
2015    5        6     3   8    4.9302   429.0    7.139      38.029
2015    5        6     3  14    4.9318   429.1    7.140      38.047
2015    5        6     3  20    4.9334   429.1    7.141      38.064
2015    5        6     3  26    4.9350   429.2    7.142      38.081
2015    5        6     3  32    4.9366   429.3    7.143      38.097
2015    5        6     3  38    4.9382   429.3    7.144      38.113
2015    5        6     3  43    4.9397   429.4    7.145      38.129
2015    5        6     3  49    4.9413   429.5    7.145      38.144
2015    5        6     3  55    4.9428   429.5    7.146      38.159
2015    5        6     4   1    4.9444   429.6    7.147      38.174
2015    5        6     4   7    4.9459   429.6    7.147      38.188
2015    5        6     4  12    4.9474   429.7    7.147      38.202
2015    5        6     4  18    4.9490   429.8    7.148      38.216
2015    5        6     4  24    4.9505   429.8    7.148      38.230
2015    5        6     4  30    4.9521   429.9    7.148      38.243
2015    5        6     4  36    4.9536   429.9    7.149      38.256
2015    5        6     4  42    4.9552   430.0    7.149      38.269
2015    5        6     4  47    4.9568   430.1    7.149      38.282
2015    5        6     4  53    4.9584   430.1    7.149      38.295
2015    5        6     4  59    4.9600   430.2    7.149      38.308
2015    5        6     5   5    4.9617   430.2    7.149      38.320
2015    5        6     5  11    4.9633   430.3    7.149      38.333
2015    5        6     5  17    4.9650   430.4    7.149      38.345
2015    5        6     5  22    4.9666   430.4    7.149      38.358
2015    5        6     5  28    4.9683   430.5    7.149      38.370
2015    5        6     5  34    4.9700   430.5    7.149      38.382
2015    5        6     5  40    4.9717   430.6    7.149      38.395
2015    5        6     5  46    4.9734   430.7    7.149      38.407
2015    5        6     5  51    4.9752   430.7    7.149      38.419
2015    5        6     5  57    4.9769   430.8    7.148      38.431
2015    5        6     6   3    4.9786   430.9    7.148      38.444
2015    5        6     6   9    4.9804   430.9    7.148      38.456
2015    5        6     6  15    4.9821   431.0    7.148      38.468
2015    5        6     6  21    4.9839   431.1    7.147      38.481
2015    5        6     6  26    4.9857   431.1    7.147      38.493
2015    5        6     6  32    4.9874   431.2    7.147      38.506
2015    5        6     6  38    4.9892   431.3    7.146      38.519
2015    5        6     6  44    4.9909   431.3    7.146      38.532
2015    5        6     6  50    4.9926   431.4    7.146      38.545
2015    5        6     6  55    4.9943   431.5    7.146      38.558
2015    5        6     7   1    4.9960   431.5    7.145      38.572
2015    5        6     7   7    4.9977   431.6    7.145      38.585
2015    5        6     7  13    4.9993   431.7    7.145      38.600
2015    5        6     7  19    5.0009   431.8    7.145      38.614
2015    5        6     7  25    5.0025   431.8    7.144      38.629
2015    5        6     7  30    5.0041   431.9    7.144      38.645
2015    5        6     7  36    5.0057   432.0    7.144      38.661
2015    5        6     7  42    5.0072   432.1    7.144      38.677
2015    5        6     7  48    5.0087   432.2    7.143      38.693
2015    5        6     7  54    5.0102   432.2    7.143      38.709
2015    5        6     7  59    5.0117   432.3    7.142      38.724
2015    5        6     8   5    5.0131   432.4    7.142      38.740
2015    5        6     8  11    5.0145   432.5    7.141      38.756
2015    5        6     8  17    5.0159   432.5    7.140      38.771
2015    5        6     8  23    5.0172   432.6    7.139      38.787
2015    5        6     8  29    5.0186   432.7    7.139      38.802
2015    5        6     8  34    5.0199   432.8    7.138      38.817
2015    5        6     8  40    5.0212   432.8    7.137      38.831
2015    5        6     8  46    5.0225   432.9    7.136      38.846
2015    5        6     8  52    5.0238   433.0    7.135      38.861
2015    5        6     8  58    5.0251   433.1    7.134      38.875
2015    5        6     9   4    5.0264   433.1    7.133      38.889
2015    5        6     9   9    5.0277   433.2    7.132      38.904
2015    5        6     9  15    5.0289   433.3    7.131      38.918
2015    5        6     9  21    5.0302   433.4    7.130      38.932
2015    5        6     9  27    5.0315   433.4    7.130      38.946
2015    5        6     9  33    5.0327   433.5    7.129      38.960
2015    5        6     9  38    5.0340   433.6    7.128      38.974
2015    5        6     9  44    5.0352   433.6    7.127      38.987
2015    5        6     9  50    5.0365   433.7    7.126      39.001
2015    5        6     9  56    5.0377   433.8    7.126      39.015
2015    5        6    10   2    5.0390   433.9    7.125      39.029
2015    5        6    10   8    5.0402   433.9    7.124      39.042
2015    5        6    10  13    5.0415   434.0    7.124      39.056
2015    5        6    10  19    5.0427   434.1    7.123      39.070
2015    5        6    10  25    5.0439   434.1    7.123      39.083
2015    5        6    10  31    5.0451   434.2    7.122      39.097
2015    5        6    10  37    5.0463   434.3    7.121      39.110
2015    5        6    10  42    5.0475   434.3    7.121      39.123
2015    5        6    10  48    5.0487   434.4    7.120      39.136
2015    5        6    10  54    5.0500   434.5    7.119      39.148
2015    5        6    11   0    5.0512   434.5    7.119      39.161
2015    5        6    11   6    5.0524   434.6    7.118      39.174
2015    5        6    11  12    5.0537   434.7    7.118      39.187
2015    5        6    11  17    5.0550   434.7    7.118      39.200
2015    5        6    11  23    5.0563   434.8    7.117      39.213
2015    5        6    11  29    5.0577   434.8    7.117      39.227
2015    5        6    11  35    5.0591   434.9    7.117      39.240
2015    5        6    11  41    5.0605   435.0    7.118      39.254
2015    5        6    11  46    5.0620   435.0    7.118      39.269
2015    5        6    11  52    5.0635   435.1    7.119      39.284
2015    5        6    11  58    5.0651   435.1    7.119      39.300
2015    5        6    12   4    5.0667   435.2    7.120      39.316
2015    5        6    12  10    5.0684   435.3    7.121      39.333
2015    5        6    12  16    5.0702   435.3    7.122      39.350
2015    5        6    12  21    5.0720   435.4    7.124      39.368
2015    5        6    12  27    5.0739   435.5    7.125      39.387
2015    5        6    12  33    5.0759   435.5    7.127      39.407
2015    5        6    12  39    5.0779   435.6    7.129      39.429
2015    5        6    12  45    5.0799   435.7    7.131      39.452
2015    5        6    12  50    5.0819   435.8    7.132      39.477
2015    5        6    12  56    5.0840   435.8    7.134      39.502
2015    5        6    13   2    5.0861   435.9    7.135      39.529
2015    5        6    13   8    5.0881   436.0    7.136      39.556
2015    5        6    13  14    5.0902   436.1    7.137      39.583
2015    5        6    13  20    5.0922   436.2    7.138      39.609
2015    5        6    13  25    5.0941   436.2    7.139      39.635
2015    5        6    13  31    5.0960   436.3    7.139      39.660
2015    5        6    13  37    5.0979   436.4    7.139      39.684
2015    5        6    13  43    5.0998   436.5    7.139      39.708
2015    5        6    13  49    5.1016   436.6    7.139      39.731
2015    5        6    13  55    5.1034   436.6    7.139      39.754
2015    5        6    14   0    5.1051   436.7    7.138      39.777
2015    5        6    14   6    5.1069   436.8    7.138      39.798
2015    5        6    14  12    5.1086   436.9    7.137      39.819
2015    5        6    14  18    5.1103   437.0    7.136      39.839
2015    5        6    14  24    5.1119   437.0    7.135      39.859
2015    5        6    14  29    5.1136   437.1    7.134      39.879
2015    5        6    14  35    5.1152   437.2    7.132      39.898
2015    5        6    14  41    5.1168   437.3    7.131      39.916
2015    5        6    14  47    5.1184   437.4    7.130      39.934
2015    5        6    14  53    5.1200   437.4    7.128      39.952
2015    5        6    14  59    5.1216   437.5    7.127      39.970
2015    5        6    15   4    5.1231   437.6    7.125      39.987
2015    5        6    15  10    5.1246   437.7    7.124      40.004
2015    5        6    15  16    5.1262   437.8    7.122      40.021
2015    5        6    15  22    5.1277   437.9    7.120      40.038
2015    5        6    15  28    5.1291   437.9    7.118      40.055
2015    5        6    15  33    5.1306   438.0    7.117      40.071
2015    5        6    15  39    5.1320   438.1    7.115      40.087
2015    5        6    15  45    5.1335   438.2    7.113      40.103
2015    5        6    15  51    5.1349   438.3    7.110      40.118
2015    5        6    15  57    5.1362   438.4    7.108      40.133
2015    5        6    16   3    5.1376   438.5    7.106      40.147
2015    5        6    16   8    5.1390   438.6    7.104      40.161
2015    5        6    16  14    5.1403   438.6    7.101      40.175
2015    5        6    16  20    5.1416   438.7    7.099      40.188
2015    5        6    16  26    5.1429   438.8    7.096      40.200
2015    5        6    16  32    5.1442   438.9    7.094      40.213
2015    5        6    16  37    5.1454   439.0    7.091      40.225
2015    5        6    16  43    5.1467   439.1    7.088      40.237
2015    5        6    16  49    5.1479   439.2    7.085      40.248
2015    5        6    16  55    5.1492   439.3    7.083      40.259
2015    5        6    17   1    5.1504   439.3    7.080      40.270
2015    5        6    17   7    5.1517   439.4    7.077      40.281
2015    5        6    17  12    5.1529   439.5    7.074      40.291
2015    5        6    17  18    5.1541   439.6    7.071      40.302
2015    5        6    17  24    5.1554   439.7    7.068      40.312
2015    5        6    17  30    5.1566   439.8    7.066      40.322
2015    5        6    17  36    5.1578   439.8    7.063      40.332
2015    5        6    17  41    5.1590   439.9    7.060      40.342
2015    5        6    17  47    5.1603   440.0    7.057      40.351
2015    5        6    17  53    5.1615   440.1    7.054      40.361
2015    5        6    17  59    5.1628   440.2    7.052      40.371
2015    5        6    18   5    5.1641   440.2    7.049      40.381
2015    5        6    18  11    5.1654   440.3    7.047      40.391
2015    5        6    18  16    5.1666   440.4    7.045      40.401
2015    5        6    18  22    5.1680   440.5    7.042      40.412
2015    5        6    18  28    5.1693   440.5    7.040      40.423
2015    5        6    18  34    5.1707   440.6    7.038      40.434
2015    5        6    18  40    5.1722   440.7    7.037      40.446
2015    5        6    18  46    5.1736   440.8    7.035      40.458
2015    5        6    18  51    5.1752   440.8    7.034      40.471
2015    5        6    18  57    5.1767   440.9    7.033      40.484
2015    5        6    19   3    5.1784   441.0    7.032      40.498
2015    5        6    19   9    5.1800   441.1    7.031      40.514
2015    5        6    19  15    5.1818   441.2    7.031      40.531
2015    5        6    19  20    5.1836   441.2    7.030      40.549
2015    5        6    19  26    5.1855   441.3    7.030      40.568
2015    5        6    19  32    5.1875   441.4    7.030      40.589
2015    5        6    19  38    5.1895   441.5    7.031      40.610
2015    5        6    19  44    5.1916   441.6    7.031      40.633
2015    5        6    19  50    5.1937   441.7    7.032      40.658
2015    5        6    19  55    5.1959   441.8    7.032      40.684
2015    5        6    20   1    5.1981   441.9    7.033      40.712
2015    5        6    20   7    5.2004   442.0    7.033      40.740
2015    5        6    20  13    5.2026   442.1    7.034      40.770
2015    5        6    20  19    5.2049   442.2    7.034      40.801
2015    5        6    20  24    5.2071   442.3    7.034      40.833
2015    5        6    20  30    5.2093   442.4    7.034      40.865
2015    5        6    20  36    5.2114   442.5    7.034      40.897
2015    5        6    20  42    5.2135   442.6    7.033      40.929
2015    5        6    20  48    5.2156   442.7    7.033      40.960
2015    5        6    20  54    5.2176   442.8    7.032      40.990
2015    5        6    20  59    5.2195   442.9    7.031      41.021
2015    5        6    21   5    5.2214   443.0    7.030      41.051
2015    5        6    21  11    5.2233   443.1    7.028      41.080
2015    5        6    21  17    5.2251   443.2    7.027      41.109
2015    5        6    21  23    5.2269   443.3    7.025      41.138
2015    5        6    21  28    5.2287   443.4    7.023      41.166
2015    5        6    21  34    5.2304   443.5    7.022      41.193
2015    5        6    21  40    5.2321   443.6    7.020      41.220
2015    5        6    21  46    5.2338   443.7    7.018      41.247
2015    5        6    21  52    5.2355   443.8    7.015      41.273
2015    5        6    21  58    5.2371   443.9    7.013      41.298
2015    5        6    22   3    5.2387   444.0    7.011      41.323
2015    5        6    22   9    5.2403   444.1    7.009      41.348
2015    5        6    22  15    5.2419   444.2    7.006      41.372
2015    5        6    22  21    5.2435   444.3    7.004      41.396
2015    5        6    22  27    5.2450   444.4    7.001      41.419
2015    5        6    22  32    5.2465   444.5    6.999      41.442
2015    5        6    22  38    5.2481   444.6    6.996      41.465
2015    5        6    22  44    5.2496   444.7    6.994      41.487
2015    5        6    22  50    5.2511   444.8    6.991      41.509
2015    5        6    22  56    5.2526   444.9    6.989      41.531
2015    5        6    23   2    5.2541   445.0    6.986      41.553
2015    5        6    23   7    5.2556   445.1    6.983      41.574
2015    5        6    23  13    5.2571   445.2    6.981      41.595
2015    5        6    23  19    5.2586   445.3    6.978      41.616
2015    5        6    23  25    5.2601   445.4    6.976      41.637
2015    5        6    23  31    5.2616   445.5    6.973      41.657
2015    5        6    23  37    5.2631   445.6    6.970      41.678
2015    5        6    23  42    5.2646   445.7    6.968      41.698
2015    5        6    23  48    5.2661   445.8    6.965      41.718
2015    5        6    23  54    5.2675   445.9    6.963      41.739
2015    5        7     0   0    5.2690   446.0    6.960      41.760
2015    5        7     0   6    5.2704   446.1    6.957      41.781
2015    5        7     0  11    5.2718   446.2    6.955      41.803
2015    5        7     0  17    5.2732   446.3    6.952      41.825
2015    5        7     0  23    5.2746   446.5    6.949      41.847
2015    5        7     0  29    5.2760   446.6    6.946      41.869
2015    5        7     0  35    5.2774   446.7    6.944      41.892
2015    5        7     0  41    5.2787   446.8    6.941      41.914
2015    5        7     0  46    5.2800   446.9    6.938      41.937
2015    5        7     0  52    5.2813   447.0    6.935      41.959
2015    5        7     0  58    5.2826   447.1    6.932      41.982
2015    5        7     1   4    5.2838   447.2    6.929      42.004
2015    5        7     1  10    5.2851   447.3    6.926      42.026
2015    5        7     1  15    5.2863   447.4    6.923      42.049
2015    5        7     1  21    5.2876   447.5    6.919      42.071
2015    5        7     1  27    5.2889   447.7    6.916      42.094
2015    5        7     1  33    5.2901   447.8    6.913      42.116
2015    5        7     1  39    5.2914   447.9    6.910      42.139
2015    5        7     1  45    5.2926   448.0    6.907      42.162
2015    5        7     1  50    5.2939   448.1    6.904      42.185
2015    5        7     1  56    5.2952   448.2    6.902      42.208
2015    5        7     2   2    5.2965   448.3    6.899      42.231
2015    5        7     2   8    5.2978   448.4    6.896      42.255
2015    5        7     2  14    5.2991   448.5    6.893      42.279
2015    5        7     2  19    5.3005   448.7    6.891      42.304
2015    5        7     2  25    5.3018   448.8    6.888      42.329
2015    5        7     2  31    5.3033   448.9    6.886      42.355
2015    5        7     2  37    5.3047   449.0    6.883      42.383
2015    5        7     2  43    5.3061   449.1    6.881      42.410
2015    5        7     2  49    5.3076   449.3    6.878      42.439
2015    5        7     2  54    5.3091   449.4    6.875      42.468
2015    5        7     3   0    5.3106   449.5    6.873      42.497
2015    5        7     3   6    5.3121   449.6    6.870      42.526
2015    5        7     3  12    5.3136   449.8    6.868      42.556
2015    5        7     3  18    5.3151   449.9    6.865      42.586
2015    5        7     3  24    5.3166   450.0    6.863      42.616
2015    5        7     3  29    5.3182   450.1    6.860      42.646
2015    5        7     3  35    5.3197   450.3    6.857      42.676
2015    5        7     3  41    5.3212   450.4    6.855      42.707
2015    5        7     3  47    5.3227   450.5    6.852      42.738
2015    5        7     3  53    5.3242   450.7    6.849      42.770
2015    5        7     3  58    5.3257   450.8    6.847      42.802
2015    5        7     4   4    5.3272   450.9    6.844      42.834
2015    5        7     4  10    5.3286   451.1    6.842      42.867
2015    5        7     4  16    5.3300   451.2    6.839      42.900
2015    5        7     4  22    5.3314   451.3    6.837      42.934
2015    5        7     4  28    5.3327   451.5    6.834      42.968
2015    5        7     4  33    5.3340   451.6    6.832      43.003
2015    5        7     4  39    5.3352   451.8    6.829      43.037
2015    5        7     4  45    5.3365   451.9    6.826      43.071
2015    5        7     4  51    5.3376   452.0    6.824      43.105
2015    5        7     4  57    5.3388   452.2    6.821      43.139
2015    5        7     5   2    5.3399   452.3    6.818      43.172
2015    5        7     5   8    5.3410   452.5    6.815      43.204
2015    5        7     5  14    5.3420   452.6    6.812      43.236
2015    5        7     5  20    5.3430   452.7    6.809      43.267
2015    5        7     5  26    5.3440   452.9    6.805      43.298
2015    5        7     5  32    5.3450   453.0    6.802      43.329
2015    5        7     5  37    5.3459   453.1    6.799      43.359
2015    5        7     5  43    5.3468   453.3    6.796      43.388
2015    5        7     5  49    5.3477   453.4    6.792      43.417
2015    5        7     5  55    5.3487   453.6    6.789      43.446
2015    5        7     6   1    5.3495   453.7    6.785      43.474
2015    5        7     6   6    5.3504   453.8    6.782      43.502
2015    5        7     6  12    5.3513   454.0    6.778      43.530
2015    5        7     6  18    5.3522   454.1    6.775      43.558
2015    5        7     6  24    5.3531   454.2    6.771      43.586
2015    5        7     6  30    5.3540   454.4    6.768      43.613
2015    5        7     6  36    5.3549   454.5    6.764      43.640
2015    5        7     6  41    5.3559   454.6    6.761      43.667
2015    5        7     6  47    5.3568   454.8    6.758      43.694
2015    5        7     6  53    5.3577   454.9    6.754      43.721
2015    5        7     6  59    5.3586   455.0    6.751      43.748
2015    5        7     7   5    5.3595   455.2    6.748      43.775
2015    5        7     7  10    5.3603   455.3    6.745      43.803
2015    5        7     7  16    5.3612   455.5    6.741      43.831
2015    5        7     7  22    5.3620   455.6    6.738      43.860
2015    5        7     7  28    5.3628   455.7    6.735      43.889
2015    5        7     7  34    5.3635   455.9    6.732      43.919
2015    5        7     7  40    5.3642   456.0    6.728      43.949
2015    5        7     7  45    5.3649   456.2    6.725      43.980
2015    5        7     7  51    5.3655   456.3    6.722      44.010
2015    5        7     7  57    5.3661   456.5    6.718      44.041
2015    5        7     8   3    5.3667   456.6    6.715      44.072
2015    5        7     8   9    5.3672   456.7    6.712      44.103
2015    5        7     8  15    5.3677   456.9    6.708      44.136
2015    5        7     8  20    5.3682   457.0    6.705      44.168
2015    5        7     8  26    5.3686   457.2    6.701      44.201
2015    5        7     8  32    5.3690   457.3    6.697      44.234
2015    5        7     8  38    5.3694   457.5    6.694      44.268
2015    5        7     8  44    5.3698   457.6    6.690      44.301
2015    5        7     8  49    5.3701   457.8    6.686      44.333
2015    5        7     8  55    5.3704   457.9    6.682      44.366
2015    5        7     9   1    5.3707   458.1    6.678      44.398
2015    5        7     9   7    5.3709   458.2    6.674      44.430
2015    5        7     9  13    5.3712   458.4    6.669      44.462
2015    5        7     9  19    5.3714   458.5    6.665      44.494
2015    5        7     9  24    5.3716   458.7    6.661      44.525
2015    5        7     9  30    5.3718   458.8    6.656      44.556
2015    5        7     9  36    5.3720   459.0    6.652      44.587
2015    5        7     9  42    5.3722   459.1    6.647      44.618
2015    5        7     9  48    5.3724   459.3    6.643      44.649
2015    5        7     9  53    5.3727   459.4    6.639      44.680
2015    5        7     9  59    5.3729   459.6    6.634      44.710
2015    5        7    10   5    5.3731   459.7    6.630      44.741
2015    5        7    10  11    5.3733   459.9    6.625      44.772
2015    5        7    10  17    5.3736   460.0    6.621      44.803
2015    5        7    10  23    5.3739   460.2    6.616      44.834
2015    5        7    10  28    5.3741   460.4    6.612      44.865
2015    5        7    10  34    5.3744   460.5    6.607      44.896
2015    5        7    10  40    5.3747   460.7    6.603      44.928
2015    5        7    10  46    5.3750   460.8    6.599      44.960
2015    5        7    10  52    5.3753   461.0    6.595      44.993
2015    5        7    10  57    5.3756   461.2    6.591      45.026
2015    5        7    11   3    5.3758   461.3    6.587      45.059
2015    5        7    11   9    5.3761   461.5    6.583      45.093
2015    5        7    11  15    5.3763   461.7    6.579      45.127
2015    5        7    11  21    5.3765   461.8    6.575      45.161
2015    5        7    11  27    5.3766   462.0    6.571      45.194
2015    5        7    11  32    5.3767   462.2    6.567      45.228
2015    5        7    11  38    5.3767   462.3    6.563      45.262
2015    5        7    11  44    5.3767   462.5    6.558      45.295
2015    5        7    11  50    5.3766   462.7    6.554      45.328
2015    5        7    11  56    5.3765   462.8    6.550      45.361
2015    5        7    12   2    5.3763   463.0    6.546      45.393
2015    5        7    12   7    5.3761   463.2    6.541      45.425
2015    5        7    12  13    5.3758   463.3    6.537      45.456
2015    5        7    12  19    5.3755   463.5    6.532      45.486
2015    5        7    12  25    5.3751   463.7    6.528      45.516
2015    5        7    12  31    5.3748   463.9    6.523      45.545
2015    5        7    12  36    5.3744   464.0    6.518      45.574
2015    5        7    12  42    5.3740   464.2    6.513      45.601
2015    5        7    12  48    5.3735   464.4    6.508      45.629
2015    5        7    12  54    5.3731   464.5    6.503      45.655
2015    5        7    13   0    5.3726   464.7    6.498      45.682
2015    5        7    13   6    5.3721   464.9    6.493      45.708
2015    5        7    13  11    5.3716   465.0    6.488      45.733
2015    5        7    13  17    5.3711   465.2    6.483      45.759
2015    5        7    13  23    5.3705   465.4    6.478      45.784
2015    5        7    13  29    5.3700   465.5    6.473      45.809
2015    5        7    13  35    5.3695   465.7    6.468      45.834
2015    5        7    13  40    5.3689   465.9    6.463      45.859
2015    5        7    13  46    5.3684   466.0    6.458      45.884
2015    5        7    13  52    5.3679   466.2    6.453      45.909
2015    5        7    13  58    5.3674   466.3    6.449      45.934
2015    5        7    14   4    5.3669   466.5    6.444      45.959
2015    5        7    14  10    5.3664   466.7    6.439      45.985
2015    5        7    14  15    5.3659   466.8    6.435      46.011
2015    5        7    14  21    5.3655   467.0    6.430      46.037
2015    5        7    14  27    5.3650   467.1    6.426      46.063
2015    5        7    14  33    5.3645   467.3    6.422      46.090
2015    5        7    14  39    5.3640   467.5    6.418      46.118
2015    5        7    14  44    5.3634   467.6    6.414      46.147
2015    5        7    14  50    5.3628   467.8    6.410      46.176
2015    5        7    14  56    5.3621   468.0    6.406      46.206
2015    5        7    15   2    5.3614   468.1    6.402      46.238
2015    5        7    15   8    5.3607   468.3    6.398      46.269
2015    5        7    15  14    5.3599   468.5    6.394      46.300
2015    5        7    15  19    5.3590   468.6    6.390      46.331
2015    5        7    15  25    5.3581   468.8    6.386      46.361
2015    5        7    15  31    5.3571   469.0    6.382      46.392
2015    5        7    15  37    5.3560   469.2    6.377      46.422
2015    5        7    15  43    5.3549   469.3    6.373      46.453
2015    5        7    15  48    5.3537   469.5    6.368      46.483
2015    5        7    15  54    5.3525   469.7    6.363      46.513
2015    5        7    16   0    5.3512   469.9    6.358      46.541
2015    5        7    16   6    5.3499   470.0    6.353      46.570
2015    5        7    16  12    5.3485   470.2    6.347      46.597
2015    5        7    16  18    5.3471   470.4    6.342      46.623
2015    5        7    16  23    5.3456   470.6    6.336      46.649
2015    5        7    16  29    5.3441   470.8    6.330      46.674
2015    5        7    16  35    5.3425   470.9    6.324      46.699
2015    5        7    16  41    5.3410   471.1    6.318      46.722
2015    5        7    16  47    5.3394   471.3    6.312      46.746
2015    5        7    16  52    5.3377   471.5    6.306      46.768
2015    5        7    16  58    5.3361   471.6    6.300      46.790
2015    5        7    17   4    5.3344   471.8    6.293      46.812
2015    5        7    17  10    5.3328   472.0    6.287      46.833
2015    5        7    17  16    5.3311   472.2    6.280      46.853
2015    5        7    17  22    5.3294   472.3    6.274      46.874
2015    5        7    17  27    5.3276   472.5    6.267      46.894
2015    5        7    17  33    5.3259   472.7    6.261      46.913
2015    5        7    17  39    5.3242   472.9    6.254      46.933
2015    5        7    17  45    5.3225   473.1    6.247      46.952
2015    5        7    17  51    5.3207   473.2    6.241      46.971
2015    5        7    17  57    5.3189   473.4    6.234      46.990
2015    5        7    18   2    5.3171   473.6    6.228      47.010
2015    5        7    18   8    5.3152   473.8    6.221      47.029
2015    5        7    18  14    5.3133   473.9    6.215      47.049
2015    5        7    18  20    5.3114   474.1    6.208      47.068
2015    5        7    18  26    5.3094   474.3    6.202      47.087
2015    5        7    18  31    5.3074   474.5    6.195      47.106
2015    5        7    18  37    5.3053   474.7    6.189      47.125
2015    5        7    18  43    5.3031   474.9    6.182      47.143
2015    5        7    18  49    5.3009   475.0    6.175      47.160
2015    5        7    18  55    5.2986   475.2    6.168      47.176
2015    5        7    19   1    5.2963   475.4    6.161      47.192
2015    5        7    19   6    5.2939   475.6    6.154      47.207
2015    5        7    19  12    5.2915   475.7    6.147      47.222
2015    5        7    19  18    5.2890   475.9    6.140      47.236
2015    5        7    19  24    5.2865   476.1    6.133      47.249
2015    5        7    19  30    5.2840   476.3    6.126      47.261
2015    5        7    19  35    5.2814   476.4    6.119      47.273
2015    5        7    19  41    5.2788   476.6    6.111      47.285
2015    5        7    19  47    5.2762   476.8    6.104      47.296
2015    5        7    19  53    5.2735   476.9    6.097      47.307
2015    5        7    19  59    5.2709   477.1    6.090      47.317
2015    5        7    20   5    5.2682   477.3    6.082      47.327
2015    5        7    20  10    5.2655   477.4    6.075      47.337
2015    5        7    20  16    5.2628   477.6    6.068      47.347
2015    5        7    20  22    5.2600   477.8    6.061      47.356
2015    5        7    20  28    5.2573   477.9    6.053      47.365
2015    5        7    20  34    5.2545   478.1    6.046      47.374
2015    5        7    20  39    5.2518   478.2    6.039      47.383
2015    5        7    20  45    5.2490   478.4    6.032      47.392
2015    5        7    20  51    5.2462   478.5    6.025      47.401
2015    5        7    20  57    5.2435   478.7    6.019      47.410
2015    5        7    21   3    5.2407   478.9    6.012      47.420
2015    5        7    21   9    5.2379   479.0    6.005      47.429
2015    5        7    21  14    5.2352   479.1    5.999      47.439
2015    5        7    21  20    5.2324   479.3    5.992      47.449
2015    5        7    21  26    5.2297   479.4    5.986      47.459
2015    5        7    21  32    5.2269   479.6    5.980      47.469
2015    5        7    21  38    5.2241   479.7    5.974      47.480
2015    5        7    21  43    5.2214   479.9    5.968      47.491
2015    5        7    21  49    5.2186   480.0    5.963      47.503
2015    5        7    21  55    5.2157   480.1    5.957      47.516
2015    5        7    22   1    5.2129   480.3    5.952      47.530
2015    5        7    22   7    5.2100   480.4    5.947      47.544
2015    5        7    22  13    5.2070   480.6    5.942      47.559
2015    5        7    22  18    5.2040   480.7    5.936      47.575
2015    5        7    22  24    5.2009   480.9    5.931      47.591
2015    5        7    22  30    5.1978   481.0    5.926      47.607
2015    5        7    22  36    5.1947   481.2    5.920      47.621
2015    5        7    22  42    5.1914   481.3    5.915      47.634
2015    5        7    22  48    5.1881   481.5    5.909      47.646
2015    5        7    22  53    5.1848   481.6    5.903      47.658
2015    5        7    22  59    5.1814   481.8    5.897      47.668
2015    5        7    23   5    5.1779   481.9    5.891      47.678
2015    5        7    23  11    5.1745   482.1    5.885      47.686
2015    5        7    23  17    5.1709   482.2    5.879      47.693
2015    5        7    23  22    5.1673   482.3    5.872      47.699
2015    5        7    23  28    5.1637   482.5    5.865      47.704
2015    5        7    23  34    5.1600   482.6    5.859      47.709
2015    5        7    23  40    5.1563   482.8    5.852      47.713
2015    5        7    23  46    5.1526   482.9    5.845      47.715
2015    5        7    23  52    5.1488   483.0    5.838      47.718
2015    5        7    23  57    5.1451   483.2    5.831      47.719
2015    5        8     0   3    5.1412   483.3    5.824      47.720
2015    5        8     0   9    5.1374   483.4    5.817      47.720
2015    5        8     0  15    5.1335   483.6    5.809      47.719
2015    5        8     0  21    5.1296   483.7    5.802      47.718
2015    5        8     0  26    5.1257   483.8    5.795      47.716
2015    5        8     0  32    5.1218   484.0    5.787      47.713
2015    5        8     0  38    5.1178   484.1    5.780      47.710
2015    5        8     0  44    5.1138   484.2    5.772      47.706
2015    5        8     0  50    5.1098   484.4    5.765      47.702
2015    5        8     0  56    5.1057   484.5    5.757      47.697
2015    5        8     1   1    5.1017   484.6    5.749      47.691
2015    5        8     1   7    5.0976   484.7    5.742      47.685
2015    5        8     1  13    5.0935   484.9    5.734      47.679
2015    5        8     1  19    5.0893   485.0    5.726      47.672
2015    5        8     1  25    5.0852   485.1    5.719      47.664
2015    5        8     1  30    5.0810   485.2    5.711      47.656
2015    5        8     1  36    5.0768   485.3    5.703      47.648
2015    5        8     1  42    5.0726   485.5    5.696      47.639
2015    5        8     1  48    5.0683   485.6    5.688      47.629
2015    5        8     1  54    5.0641   485.7    5.680      47.619
2015    5        8     2   0    5.0598   485.8    5.673      47.609
2015    5        8     2   5    5.0555   485.9    5.665      47.598
2015    5        8     2  11    5.0511   486.0    5.657      47.587
2015    5        8     2  17    5.0468   486.1    5.649      47.575
2015    5        8     2  23    5.0424   486.2    5.642      47.563
2015    5        8     2  29    5.0381   486.4    5.634      47.551
2015    5        8     2  35    5.0337   486.5    5.627      47.538
2015    5        8     2  40    5.0293   486.6    5.619      47.525
2015    5        8     2  46    5.0249   486.7    5.612      47.512
2015    5        8     2  52    5.0205   486.8    5.604      47.498
2015    5        8     2  58    5.0161   486.9    5.597      47.484
2015    5        8     3   4    5.0117   487.0    5.589      47.470
2015    5        8     3   9    5.0073   487.1    5.582      47.456
2015    5        8     3  15    5.0029   487.2    5.575      47.441
2015    5        8     3  21    4.9985   487.3    5.567      47.427
2015    5        8     3  27    4.9941   487.4    5.560      47.411
2015    5        8     3  33    4.9897   487.5    5.553      47.396
2015    5        8     3  39    4.9853   487.5    5.546      47.381
2015    5        8     3  44    4.9809   487.6    5.539      47.366
2015    5        8     3  50    4.9765   487.7    5.531      47.350
2015    5        8     3  56    4.9721   487.8    5.524      47.334
2015    5        8     4   2    4.9676   487.9    5.517      47.318
2015    5        8     4   8    4.9632   488.0    5.510      47.302
2015    5        8     4  13    4.9588   488.1    5.503      47.286
2015    5        8     4  19    4.9543   488.1    5.496      47.269
2015    5        8     4  25    4.9498   488.2    5.489      47.252
2015    5        8     4  31    4.9453   488.3    5.482      47.235
2015    5        8     4  37    4.9408   488.4    5.475      47.217
2015    5        8     4  43    4.9363   488.4    5.468      47.200
2015    5        8     4  48    4.9318   488.5    5.462      47.182
2015    5        8     4  54    4.9272   488.6    5.455      47.164
2015    5        8     5   0    4.9227   488.6    5.448      47.145
2015    5        8     5   6    4.9181   488.7    5.441      47.127
2015    5        8     5  12    4.9135   488.8    5.435      47.108
2015    5        8     5  17    4.9090   488.8    5.428      47.090
2015    5        8     5  23    4.9044   488.9    5.421      47.070
2015    5        8     5  29    4.8998   489.0    5.415      47.051
2015    5        8     5  35    4.8951   489.0    5.408      47.031
2015    5        8     5  41    4.8905   489.1    5.402      47.010
2015    5        8     5  47    4.8859   489.1    5.395      46.989
2015    5        8     5  52    4.8812   489.2    5.389      46.967
2015    5        8     5  58    4.8766   489.2    5.382      46.944
2015    5        8     6   4    4.8720   489.3    5.376      46.921
2015    5        8     6  10    4.8674   489.3    5.369      46.898
2015    5        8     6  16    4.8628   489.3    5.363      46.874
2015    5        8     6  21    4.8581   489.4    5.357      46.849
2015    5        8     6  27    4.8535   489.4    5.351      46.824
2015    5        8     6  33    4.8489   489.4    5.344      46.799
2015    5        8     6  39    4.8443   489.5    5.338      46.773
2015    5        8     6  45    4.8397   489.5    5.332      46.748
2015    5        8     6  51    4.8350   489.5    5.326      46.721
2015    5        8     6  56    4.8304   489.6    5.320      46.695
2015    5        8     7   2    4.8258   489.6    5.314      46.668
2015    5        8     7   8    4.8212   489.6    5.308      46.641
2015    5        8     7  14    4.8166   489.6    5.302      46.614
2015    5        8     7  20    4.8120   489.6    5.296      46.586
2015    5        8     7  25    4.8074   489.6    5.290      46.558
2015    5        8     7  31    4.8028   489.7    5.284      46.530
2015    5        8     7  37    4.7982   489.7    5.278      46.502
2015    5        8     7  43    4.7936   489.7    5.272      46.473
2015    5        8     7  49    4.7890   489.7    5.267      46.444
2015    5        8     7  55    4.7844   489.7    5.261      46.415
2015    5        8     8   0    4.7799   489.7    5.255      46.386
2015    5        8     8   6    4.7753   489.7    5.250      46.357
2015    5        8     8  12    4.7708   489.7    5.244      46.327
2015    5        8     8  18    4.7663   489.7    5.239      46.297
2015    5        8     8  24    4.7618   489.7    5.234      46.268
2015    5        8     8  30    4.7574   489.7    5.228      46.238
2015    5        8     8  35    4.7529   489.7    5.223      46.208
2015    5        8     8  41    4.7485   489.7    5.218      46.178
2015    5        8     8  47    4.7441   489.6    5.212      46.147
2015    5        8     8  53    4.7398   489.6    5.207      46.116
2015    5        8     8  59    4.7355   489.6    5.202      46.085
2015    5        8     9   4    4.7312   489.6    5.197      46.054
2015    5        8     9  10    4.7269   489.6    5.192      46.023
2015    5        8     9  16    4.7227   489.6    5.187      45.991
2015    5        8     9  22    4.7184   489.5    5.182      45.958
2015    5        8     9  28    4.7143   489.5    5.177      45.926
2015    5        8     9  34    4.7101   489.5    5.172      45.893
2015    5        8     9  39    4.7060   489.5    5.167      45.860
2015    5        8     9  45    4.7018   489.5    5.162      45.827
2015    5        8     9  51    4.6977   489.4    5.158      45.794
2015    5        8     9  57    4.6936   489.4    5.153      45.760
2015    5        8    10   3    4.6895   489.4    5.148      45.726
2015    5        8    10   8    4.6855   489.4    5.143      45.693
2015    5        8    10  14    4.6814   489.3    5.139      45.659
2015    5        8    10  20    4.6774   489.3    5.134      45.625
2015    5        8    10  26    4.6734   489.3    5.130      45.591
2015    5        8    10  32    4.6693   489.3    5.125      45.557
2015    5        8    10  38    4.6653   489.2    5.121      45.523
2015    5        8    10  43    4.6613   489.2    5.116      45.488
2015    5        8    10  49    4.6573   489.2    5.112      45.454
2015    5        8    10  55    4.6533   489.2    5.107      45.420
2015    5        8    11   1    4.6493   489.1    5.103      45.385
2015    5        8    11   7    4.6453   489.1    5.099      45.351
2015    5        8    11  12    4.6413   489.1    5.094      45.316
2015    5        8    11  18    4.6373   489.1    5.090      45.281
2015    5        8    11  24    4.6333   489.0    5.085      45.246
2015    5        8    11  30    4.6293   489.0    5.081      45.210
2015    5        8    11  36    4.6253   489.0    5.076      45.174
2015    5        8    11  42    4.6213   488.9    5.072      45.138
2015    5        8    11  47    4.6173   488.9    5.067      45.101
2015    5        8    11  53    4.6132   488.9    5.063      45.064
2015    5        8    11  59    4.6092   488.8    5.058      45.027
2015    5        8    12   5    4.6052   488.8    5.054      44.990
2015    5        8    12  11    4.6012   488.7    5.049      44.952
2015    5        8    12  16    4.5972   488.7    5.045      44.914
2015    5        8    12  22    4.5932   488.7    5.040      44.876
2015    5        8    12  28    4.5893   488.6    5.036      44.837
2015    5        8    12  34    4.5853   488.6    5.031      44.798
2015    5        8    12  40    4.5814   488.5    5.027      44.759
2015    5        8    12  46    4.5775   488.5    5.023      44.719
2015    5        8    12  51    4.5736   488.4    5.018      44.680
2015    5        8    12  57    4.5697   488.4    5.014      44.640
2015    5        8    13   3    4.5658   488.3    5.010      44.600
2015    5        8    13   9    4.5620   488.3    5.006      44.560
2015    5        8    13  15    4.5582   488.2    5.001      44.520
2015    5        8    13  21    4.5544   488.2    4.997      44.480
2015    5        8    13  26    4.5506   488.1    4.994      44.440
2015    5        8    13  32    4.5468   488.1    4.990      44.400
2015    5        8    13  38    4.5431   488.0    4.986      44.360
2015    5        8    13  44    4.5394   487.9    4.982      44.320
2015    5        8    13  50    4.5357   487.9    4.979      44.280
2015    5        8    13  55    4.5320   487.8    4.975      44.240
2015    5        8    14   1    4.5283   487.7    4.972      44.201
2015    5        8    14   7    4.5246   487.7    4.969      44.162
2015    5        8    14  13    4.5210   487.6    4.965      44.123
2015    5        8    14  19    4.5174   487.5    4.962      44.084
2015    5        8    14  25    4.5138   487.4    4.959      44.045
2015    5        8    14  30    4.5102   487.4    4.956      44.007
2015    5        8    14  36    4.5066   487.3    4.954      43.969
2015    5        8    14  42    4.5030   487.2    4.951      43.931
2015    5        8    14  48    4.4995   487.1    4.948      43.893
2015    5        8    14  54    4.4960   487.0    4.946      43.856
2015    5        8    14  59    4.4925   487.0    4.943      43.819
2015    5        8    15   5    4.4890   486.9    4.941      43.782
2015    5        8    15  11    4.4856   486.8    4.938      43.745
2015    5        8    15  17    4.4822   486.7    4.936      43.709
2015    5        8    15  23    4.4788   486.6    4.934      43.673
2015    5        8    15  29    4.4755   486.5    4.932      43.637
2015    5        8    15  34    4.4722   486.4    4.930      43.602
2015    5        8    15  40    4.4689   486.3    4.928      43.566
2015    5        8    15  46    4.4657   486.2    4.926      43.531
2015    5        8    15  52    4.4625   486.1    4.924      43.496
2015    5        8    15  58    4.4594   486.0    4.922      43.461
2015    5        8    16   3    4.4563   485.9    4.920      43.425
2015    5        8    16   9    4.4532   485.8    4.918      43.390
2015    5        8    16  15    4.4502   485.7    4.916      43.354
2015    5        8    16  21    4.4473   485.6    4.914      43.318
2015    5        8    16  27    4.4443   485.5    4.912      43.282
2015    5        8    16  33    4.4415   485.4    4.910      43.246
2015    5        8    16  38    4.4386   485.3    4.908      43.209
2015    5        8    16  44    4.4358   485.2    4.906      43.173
2015    5        8    16  50    4.4330   485.1    4.904      43.136
2015    5        8    16  56    4.4302   485.0    4.902      43.099
2015    5        8    17   2    4.4275   484.9    4.900      43.062
2015    5        8    17   7    4.4247   484.8    4.898      43.024
2015    5        8    17  13    4.4220   484.7    4.896      42.986
2015    5        8    17  19    4.4193   484.6    4.894      42.948
2015    5        8    17  25    4.4165   484.5    4.892      42.910
2015    5        8    17  31    4.4138   484.4    4.890      42.872
2015    5        8    17  37    4.4111   484.3    4.888      42.834
2015    5        8    17  42    4.4084   484.2    4.886      42.795
2015    5        8    17  48    4.4056   484.1    4.884      42.756
2015    5        8    17  54    4.4029   484.0    4.882      42.718
2015    5        8    18   0    4.4002   483.8    4.880      42.678
2015    5        8    18   6    4.3975   483.7    4.878      42.639
2015    5        8    18  12    4.3948   483.6    4.876      42.600
2015    5        8    18  17    4.3921   483.5    4.874      42.561
2015    5        8    18  23    4.3894   483.4    4.872      42.521
2015    5        8    18  29    4.3867   483.3    4.870      42.482
2015    5        8    18  35    4.3840   483.2    4.868      42.442
2015    5        8    18  41    4.3813   483.1    4.866      42.402
2015    5        8    18  46    4.3786   483.0    4.864      42.362
2015    5        8    18  52    4.3759   482.9    4.862      42.322
2015    5        8    18  58    4.3733   482.8    4.860      42.282
2015    5        8    19   4    4.3706   482.7    4.858      42.242
2015    5        8    19  10    4.3680   482.6    4.856      42.202
2015    5        8    19  16    4.3654   482.4    4.854      42.162
2015    5        8    19  21    4.3628   482.3    4.852      42.122
2015    5        8    19  27    4.3602   482.2    4.850      42.082
2015    5        8    19  33    4.3576   482.1    4.848      42.041
2015    5        8    19  39    4.3551   482.0    4.846      42.002
2015    5        8    19  45    4.3526   481.9    4.845      41.962
2015    5        8    19  50    4.3501   481.8    4.843      41.922
2015    5        8    19  56    4.3476   481.7    4.841      41.882
2015    5        8    20   2    4.3451   481.5    4.840      41.843
2015    5        8    20   8    4.3427   481.4    4.838      41.803
2015    5        8    20  14    4.3402   481.3    4.836      41.764
2015    5        8    20  20    4.3378   481.2    4.835      41.725
2015    5        8    20  25    4.3354   481.1    4.833      41.686
2015    5        8    20  31    4.3331   481.0    4.832      41.648
2015    5        8    20  37    4.3307   480.9    4.831      41.609
2015    5        8    20  43    4.3284   480.7    4.829      41.571
2015    5        8    20  49    4.3260   480.6    4.828      41.533
2015    5        8    20  54    4.3237   480.5    4.827      41.495
2015    5        8    21   0    4.3214   480.4    4.826      41.457
2015    5        8    21   6    4.3191   480.3    4.825      41.420
2015    5        8    21  12    4.3169   480.2    4.824      41.382
2015    5        8    21  18    4.3146   480.0    4.823      41.345
2015    5        8    21  24    4.3124   479.9    4.821      41.307
2015    5        8    21  29    4.3102   479.8    4.820      41.270
2015    5        8    21  35    4.3079   479.7    4.819      41.233
2015    5        8    21  41    4.3057   479.6    4.818      41.196
2015    5        8    21  47    4.3035   479.4    4.817      41.159
2015    5        8    21  53    4.3014   479.3    4.817      41.122
2015    5        8    21  58    4.2992   479.2    4.816      41.085
2015    5        8    22   4    4.2970   479.0    4.815      41.048
2015    5        8    22  10    4.2949   478.9    4.814      41.011
2015    5        8    22  16    4.2927   478.8    4.813      40.974
2015    5        8    22  22    4.2906   478.7    4.812      40.938
2015    5        8    22  28    4.2885   478.5    4.811      40.901
2015    5        8    22  33    4.2864   478.4    4.810      40.864
2015    5        8    22  39    4.2843   478.3    4.810      40.827
2015    5        8    22  45    4.2823   478.1    4.809      40.790
2015    5        8    22  51    4.2802   478.0    4.808      40.754
2015    5        8    22  57    4.2782   477.8    4.807      40.717
2015    5        8    23   3    4.2762   477.7    4.807      40.680
2015    5        8    23   8    4.2742   477.6    4.806      40.644
2015    5        8    23  14    4.2722   477.4    4.806      40.607
2015    5        8    23  20    4.2703   477.3    4.805      40.571
2015    5        8    23  26    4.2684   477.1    4.804      40.534
2015    5        8    23  32    4.2665   477.0    4.804      40.498
2015    5        8    23  37    4.2647   476.8    4.804      40.462
2015    5        8    23  43    4.2628   476.7    4.803      40.426
2015    5        8    23  49    4.2611   476.5    4.803      40.391
2015    5        8    23  55    4.2593   476.4    4.803      40.355
2015    5        9     0   1    4.2576   476.3    4.803      40.320
2015    5        9     0   7    4.2559   476.1    4.803      40.285
2015    5        9     0  12    4.2542   476.0    4.803      40.250
2015    5        9     0  18    4.2525   475.8    4.803      40.215
2015    5        9     0  24    4.2509   475.7    4.803      40.181
2015    5        9     0  30    4.2493   475.5    4.803      40.146
2015    5        9     0  36    4.2477   475.4    4.803      40.112
2015    5        9     0  41    4.2461   475.2    4.803      40.078
2015    5        9     0  47    4.2445   475.1    4.804      40.044
2015    5        9     0  53    4.2430   474.9    4.804      40.011
2015    5        9     0  59    4.2414   474.8    4.804      39.977
2015    5        9     1   5    4.2399   474.6    4.805      39.945
2015    5        9     1  11    4.2383   474.5    4.805      39.912
2015    5        9     1  16    4.2368   474.3    4.805      39.880
2015    5        9     1  22    4.2354   474.2    4.806      39.847
2015    5        9     1  28    4.2339   474.0    4.806      39.815
2015    5        9     1  34    4.2324   473.9    4.806      39.783
2015    5        9     1  40    4.2309   473.7    4.806      39.751
2015    5        9     1  45    4.2295   473.6    4.807      39.719
2015    5        9     1  51    4.2281   473.4    4.807      39.686
2015    5        9     1  57    4.2267   473.3    4.807      39.654
2015    5        9     2   3    4.2253   473.1    4.807      39.621
2015    5        9     2   9    4.2239   473.0    4.807      39.588
2015    5        9     2  15    4.2226   472.8    4.807      39.554
2015    5        9     2  20    4.2213   472.7    4.807      39.521
2015    5        9     2  26    4.2200   472.5    4.807      39.488
2015    5        9     2  32    4.2187   472.4    4.807      39.454
2015    5        9     2  38    4.2174   472.2    4.807      39.421
2015    5        9     2  44    4.2162   472.1    4.807      39.387
2015    5        9     2  49    4.2150   471.9    4.808      39.354
2015    5        9     2  55    4.2139   471.7    4.808      39.320
2015    5        9     3   1    4.2128   471.6    4.808      39.286
2015    5        9     3   7    4.2117   471.4    4.808      39.253
2015    5        9     3  13    4.2106   471.3    4.808      39.220
2015    5        9     3  19    4.2096   471.1    4.808      39.186
2015    5        9     3  24    4.2086   471.0    4.809      39.153
2015    5        9     3  30    4.2077   470.8    4.809      39.120
2015    5        9     3  36    4.2068   470.7    4.809      39.087
2015    5        9     3  42    4.2059   470.5    4.809      39.054
2015    5        9     3  48    4.2050   470.4    4.810      39.022
2015    5        9     3  53    4.2042   470.2    4.810      38.989
2015    5        9     3  59    4.2035   470.1    4.811      38.956
2015    5        9     4   5    4.2027   469.9    4.811      38.924
2015    5        9     4  11    4.2021   469.7    4.811      38.892
2015    5        9     4  17    4.2014   469.6    4.812      38.859
2015    5        9     4  23    4.2008   469.4    4.812      38.827
2015    5        9     4  28    4.2002   469.3    4.813      38.794
2015    5        9     4  34    4.1997   469.1    4.813      38.762
2015    5        9     4  40    4.1991   469.0    4.814      38.729
2015    5        9     4  46    4.1986   468.8    4.814      38.696
2015    5        9     4  52    4.1982   468.7    4.815      38.663
2015    5        9     4  58    4.1978   468.5    4.815      38.630
2015    5        9     5   3    4.1974   468.3    4.816      38.597
2015    5        9     5   9    4.1970   468.2    4.816      38.564
2015    5        9     5  15    4.1967   468.0    4.817      38.531
2015    5        9     5  21    4.1964   467.9    4.817      38.497
2015    5        9     5  27    4.1961   467.7    4.818      38.464
2015    5        9     5  32    4.1959   467.5    4.818      38.430
2015    5        9     5  38    4.1957   467.4    4.819      38.397
2015    5        9     5  44    4.1955   467.2    4.819      38.364
2015    5        9     5  50    4.1954   467.0    4.820      38.330
2015    5        9     5  56    4.1953   466.9    4.821      38.297
2015    5        9     6   2    4.1952   466.7    4.821      38.263
2015    5        9     6   7    4.1952   466.5    4.822      38.230
2015    5        9     6  13    4.1952   466.4    4.823      38.197
2015    5        9     6  19    4.1952   466.2    4.824      38.164
2015    5        9     6  25    4.1953   466.0    4.825      38.131
2015    5        9     6  31    4.1954   465.8    4.825      38.098
2015    5        9     6  36    4.1956   465.7    4.826      38.065
2015    5        9     6  42    4.1958   465.5    4.827      38.033
2015    5        9     6  48    4.1961   465.3    4.828      38.000
2015    5        9     6  54    4.1964   465.1    4.830      37.968
2015    5        9     7   0    4.1967   465.0    4.831      37.936
2015    5        9     7   6    4.1971   464.8    4.832      37.904
2015    5        9     7  11    4.1975   464.6    4.833      37.873
2015    5        9     7  17    4.1980   464.4    4.834      37.841
2015    5        9     7  23    4.1985   464.2    4.836      37.810
2015    5        9     7  29    4.1991   464.1    4.837      37.779
2015    5        9     7  35    4.1997   463.9    4.839      37.749
2015    5        9     7  40    4.2003   463.7    4.840      37.718
2015    5        9     7  46    4.2010   463.5    4.842      37.688
2015    5        9     7  52    4.2018   463.3    4.843      37.658
2015    5        9     7  58    4.2026   463.1    4.845      37.628
2015    5        9     8   4    4.2034   462.9    4.847      37.599
2015    5        9     8  10    4.2043   462.7    4.848      37.570
2015    5        9     8  15    4.2052   462.6    4.850      37.541
2015    5        9     8  21    4.2061   462.4    4.852      37.513
2015    5        9     8  27    4.2071   462.2    4.854      37.484
2015    5        9     8  33    4.2082   462.0    4.855      37.456
2015    5        9     8  39    4.2093   461.8    4.857      37.428
2015    5        9     8  44    4.2104   461.6    4.859      37.400
2015    5        9     8  50    4.2115   461.4    4.861      37.372
2015    5        9     8  56    4.2128   461.2    4.863      37.344
2015    5        9     9   2    4.2140   461.0    4.865      37.316
2015    5        9     9   8    4.2153   460.8    4.867      37.288
2015    5        9     9  14    4.2167   460.6    4.869      37.261
2015    5        9     9  19    4.2180   460.4    4.871      37.233
2015    5        9     9  25    4.2195   460.2    4.874      37.206
2015    5        9     9  31    4.2209   460.0    4.876      37.179
2015    5        9     9  37    4.2224   459.8    4.878      37.152
2015    5        9     9  43    4.2239   459.6    4.881      37.125
2015    5        9     9  49    4.2255   459.4    4.884      37.099
2015    5        9     9  54    4.2270   459.2    4.887      37.073
2015    5        9    10   0    4.2286   459.0    4.889      37.047
2015    5        9    10   6    4.2302   458.8    4.893      37.022
2015    5        9    10  12    4.2319   458.5    4.896      36.998
2015    5        9    10  18    4.2336   458.3    4.899      36.973
2015    5        9    10  23    4.2353   458.1    4.902      36.949
2015    5        9    10  29    4.2370   457.9    4.906      36.926
2015    5        9    10  35    4.2388   457.7    4.910      36.903
2015    5        9    10  41    4.2405   457.5    4.913      36.880
2015    5        9    10  47    4.2423   457.3    4.917      36.858
2015    5        9    10  53    4.2441   457.1    4.921      36.837
2015    5        9    10  58    4.2459   456.9    4.926      36.815
2015    5        9    11   4    4.2477   456.7    4.930      36.794
2015    5        9    11  10    4.2496   456.5    4.934      36.774
2015    5        9    11  16    4.2514   456.3    4.939      36.754
2015    5        9    11  22    4.2533   456.2    4.943      36.734
2015    5        9    11  27    4.2551   456.0    4.948      36.715
2015    5        9    11  33    4.2570   455.8    4.953      36.695
2015    5        9    11  39    4.2589   455.6    4.958      36.676
2015    5        9    11  45    4.2608   455.4    4.962      36.657
2015    5        9    11  51    4.2627   455.2    4.967      36.639
2015    5        9    11  57    4.2646   455.0    4.972      36.620
2015    5        9    12   2    4.2665   454.8    4.977      36.601
2015    5        9    12   8    4.2684   454.6    4.982      36.583
2015    5        9    12  14    4.2703   454.4    4.988      36.564
2015    5        9    12  20    4.2723   454.2    4.993      36.546
2015    5        9    12  26    4.2742   454.0    4.998      36.527
2015    5        9    12  31    4.2761   453.8    5.003      36.509
2015    5        9    12  37    4.2781   453.6    5.008      36.490
2015    5        9    12  43    4.2800   453.4    5.013      36.472
2015    5        9    12  49    4.2820   453.2    5.019      36.453
2015    5        9    12  55    4.2840   453.0    5.024      36.435
2015    5        9    13   1    4.2859   452.8    5.029      36.417
2015    5        9    13   6    4.2880   452.6    5.035      36.398
2015    5        9    13  12    4.2900   452.4    5.040      36.380
2015    5        9    13  18    4.2921   452.2    5.045      36.362
2015    5        9    13  24    4.2942   452.0    5.051      36.344
2015    5        9    13  30    4.2963   451.8    5.056      36.326
2015    5        9    13  35    4.2984   451.6    5.062      36.309
2015    5        9    13  41    4.3006   451.4    5.068      36.291
2015    5        9    13  47    4.3028   451.2    5.074      36.274
2015    5        9    13  53    4.3051   451.0    5.079      36.258
2015    5        9    13  59    4.3074   450.8    5.085      36.241
2015    5        9    14   5    4.3097   450.6    5.092      36.225
2015    5        9    14  10    4.3121   450.4    5.098      36.210
2015    5        9    14  16    4.3145   450.2    5.104      36.196
2015    5        9    14  22    4.3170   450.0    5.111      36.182
2015    5        9    14  28    4.3196   449.8    5.118      36.169
2015    5        9    14  34    4.3222   449.6    5.125      36.156
2015    5        9    14  39    4.3249   449.4    5.132      36.145
2015    5        9    14  45    4.3276   449.2    5.139      36.134
2015    5        9    14  51    4.3304   449.0    5.147      36.125
2015    5        9    14  57    4.3333   448.8    5.155      36.117
2015    5        9    15   3    4.3363   448.6    5.163      36.109
2015    5        9    15   9    4.3393   448.4    5.172      36.103
2015    5        9    15  14    4.3424   448.2    5.180      36.098
2015    5        9    15  20    4.3455   448.0    5.189      36.094
2015    5        9    15  26    4.3487   447.9    5.199      36.092
2015    5        9    15  32    4.3520   447.7    5.208      36.090
2015    5        9    15  38    4.3553   447.5    5.218      36.090
2015    5        9    15  44    4.3586   447.3    5.229      36.091
2015    5        9    15  49    4.3620   447.1    5.239      36.093
2015    5        9    15  55    4.3655   446.9    5.250      36.096
2015    5        9    16   1    4.3690   446.8    5.261      36.102
2015    5        9    16   7    4.3725   446.6    5.272      36.108
2015    5        9    16  13    4.3761   446.4    5.284      36.117
2015    5        9    16  18    4.3796   446.3    5.295      36.127
2015    5        9    16  24    4.3833   446.1    5.307      36.139
2015    5        9    16  30    4.3870   446.0    5.319      36.152
2015    5        9    16  36    4.3907   445.8    5.331      36.167
2015    5        9    16  42    4.3944   445.7    5.342      36.184
2015    5        9    16  48    4.3983   445.5    5.354      36.202
2015    5        9    16  53    4.4021   445.4    5.366      36.220
2015    5        9    16  59    4.4060   445.2    5.378      36.239
2015    5        9    17   5    4.4098   445.1    5.391      36.258
2015    5        9    17  11    4.4138   445.0    5.403      36.279
2015    5        9    17  17    4.4177   444.8    5.415      36.299
2015    5        9    17  22    4.4217   444.7    5.428      36.320
2015    5        9    17  28    4.4257   444.5    5.440      36.341
2015    5        9    17  34    4.4298   444.4    5.453      36.362
2015    5        9    17  40    4.4338   444.3    5.465      36.383
2015    5        9    17  46    4.4380   444.1    5.478      36.405
2015    5        9    17  52    4.4421   444.0    5.491      36.427
2015    5        9    17  57    4.4463   443.9    5.503      36.450
2015    5        9    18   3    4.4506   443.8    5.516      36.473
2015    5        9    18   9    4.4548   443.7    5.529      36.496
2015    5        9    18  15    4.4591   443.5    5.541      36.520
2015    5        9    18  21    4.4634   443.4    5.554      36.543
2015    5        9    18  26    4.4677   443.3    5.566      36.568
2015    5        9    18  32    4.4720   443.2    5.578      36.592
2015    5        9    18  38    4.4763   443.1    5.591      36.616
2015    5        9    18  44    4.4807   443.0    5.603      36.641
2015    5        9    18  50    4.4850   442.9    5.615      36.666
2015    5        9    18  56    4.4894   442.8    5.627      36.691
2015    5        9    19   1    4.4938   442.7    5.638      36.716
2015    5        9    19   7    4.4982   442.5    5.650      36.741
2015    5        9    19  13    4.5026   442.4    5.661      36.765
2015    5        9    19  19    4.5070   442.3    5.673      36.790
2015    5        9    19  25    4.5114   442.2    5.684      36.815
2015    5        9    19  30    4.5159   442.1    5.695      36.839
2015    5        9    19  36    4.5204   442.0    5.706      36.863
2015    5        9    19  42    4.5249   441.9    5.717      36.887
2015    5        9    19  48    4.5295   441.8    5.728      36.911
2015    5        9    19  54    4.5340   441.7    5.739      36.935
2015    5        9    20   0    4.5387   441.6    5.750      36.958
2015    5        9    20   5    4.5433   441.5    5.761      36.982
2015    5        9    20  11    4.5480   441.4    5.772      37.005
2015    5        9    20  17    4.5528   441.3    5.783      37.029
2015    5        9    20  23    4.5575   441.2    5.794      37.053
2015    5        9    20  29    4.5624   441.1    5.805      37.076
2015    5        9    20  35    4.5673   441.0    5.816      37.101
2015    5        9    20  40    4.5723   440.9    5.827      37.125
2015    5        9    20  46    4.5773   440.8    5.838      37.150
2015    5        9    20  52    4.5823   440.7    5.850      37.176
2015    5        9    20  58    4.5875   440.6    5.861      37.202
2015    5        9    21   4    4.5927   440.5    5.873      37.229
2015    5        9    21   9    4.5980   440.4    5.884      37.257
2015    5        9    21  15    4.6034   440.3    5.896      37.285
2015    5        9    21  21    4.6089   440.2    5.908      37.315
2015    5        9    21  27    4.6145   440.1    5.921      37.345
2015    5        9    21  33    4.6202   440.1    5.934      37.377
2015    5        9    21  39    4.6260   440.0    5.947      37.409
2015    5        9    21  44    4.6318   439.9    5.960      37.443
2015    5        9    21  50    4.6378   439.8    5.973      37.478
2015    5        9    21  56    4.6439   439.7    5.987      37.516
2015    5        9    22   2    4.6501   439.7    6.001      37.555
2015    5        9    22   8    4.6564   439.6    6.016      37.596
2015    5        9    22  13    4.6628   439.5    6.030      37.639
2015    5        9    22  19    4.6693   439.5    6.045      37.685
2015    5        9    22  25    4.6759   439.4    6.060      37.732
2015    5        9    22  31    4.6825   439.4    6.075      37.780
2015    5        9    22  37    4.6892   439.3    6.090      37.829
2015    5        9    22  43    4.6959   439.3    6.106      37.879
2015    5        9    22  48    4.7027   439.3    6.121      37.930
2015    5        9    22  54    4.7094   439.2    6.137      37.982
2015    5        9    23   0    4.7161   439.2    6.153      38.035
2015    5        9    23   6    4.7228   439.2    6.169      38.090
2015    5        9    23  12    4.7295   439.2    6.184      38.144
2015    5        9    23  17    4.7362   439.1    6.200      38.200
2015    5        9    23  23    4.7429   439.1    6.216      38.256
2015    5        9    23  29    4.7496   439.1    6.231      38.313
2015    5        9    23  35    4.7563   439.1    6.247      38.369
2015    5        9    23  41    4.7630   439.1    6.262      38.425
2015    5        9    23  47    4.7698   439.1    6.278      38.481
2015    5        9    23  52    4.7765   439.1    6.294      38.537
2015    5        9    23  58    4.7833   439.0    6.309      38.593
2015    5       10     0   4    4.7901   439.0    6.325      38.649
2015    5       10     0  10    4.7970   439.0    6.342      38.705
2015    5       10     0  16    4.8040   439.0    6.358      38.761
2015    5       10     0  21    4.8110   439.0    6.374      38.817
2015    5       10     0  27    4.8180   439.0    6.391      38.875
2015    5       10     0  33    4.8252   439.0    6.408      38.935
2015    5       10     0  39    4.8324   439.0    6.425      38.998
2015    5       10     0  45    4.8397   439.0    6.441      39.062
2015    5       10     0  51    4.8471   439.0    6.458      39.128
2015    5       10     0  56    4.8545   439.1    6.474      39.197
2015    5       10     1   2    4.8619   439.1    6.490      39.267
2015    5       10     1   8    4.8693   439.1    6.506      39.338
2015    5       10     1  14    4.8768   439.1    6.521      39.408
2015    5       10     1  20    4.8842   439.2    6.536      39.477
2015    5       10     1  25    4.8916   439.2    6.551      39.546
2015    5       10     1  31    4.8990   439.2    6.565      39.613
2015    5       10     1  37    4.9063   439.3    6.580      39.679
2015    5       10     1  43    4.9137   439.3    6.593      39.745
2015    5       10     1  49    4.9210   439.4    6.607      39.810
2015    5       10     1  55    4.9283   439.4    6.620      39.874
2015    5       10     2   0    4.9356   439.5    6.633      39.937
2015    5       10     2   6    4.9429   439.5    6.645      39.998
2015    5       10     2  12    4.9501   439.5    6.658      40.059
2015    5       10     2  18    4.9573   439.6    6.670      40.120
2015    5       10     2  24    4.9645   439.6    6.682      40.179
2015    5       10     2  30    4.9717   439.7    6.693      40.239
2015    5       10     2  35    4.9788   439.7    6.705      40.297
2015    5       10     2  41    4.9859   439.8    6.716      40.355
2015    5       10     2  47    4.9930   439.8    6.727      40.413
2015    5       10     2  53    5.0001   439.9    6.738      40.470
2015    5       10     2  59    5.0071   439.9    6.748      40.527
2015    5       10     3   4    5.0141   440.0    6.759      40.583
2015    5       10     3  10    5.0211   440.1    6.769      40.639
2015    5       10     3  16    5.0281   440.1    6.779      40.695
2015    5       10     3  22    5.0351   440.2    6.789      40.751
2015    5       10     3  28    5.0421   440.2    6.799      40.806
2015    5       10     3  34    5.0490   440.3    6.809      40.861
2015    5       10     3  39    5.0560   440.3    6.818      40.916
2015    5       10     3  45    5.0629   440.4    6.828      40.971
2015    5       10     3  51    5.0699   440.4    6.838      41.025
2015    5       10     3  57    5.0769   440.5    6.848      41.080
2015    5       10     4   3    5.0840   440.6    6.858      41.135
2015    5       10     4   8    5.0910   440.6    6.868      41.190
2015    5       10     4  14    5.0981   440.7    6.878      41.246
2015    5       10     4  20    5.1052   440.7    6.888      41.302
2015    5       10     4  26    5.1123   440.8    6.898      41.360
2015    5       10     4  32    5.1194   440.9    6.908      41.418
2015    5       10     4  38    5.1265   440.9    6.918      41.478
2015    5       10     4  43    5.1336   441.0    6.928      41.539
2015    5       10     4  49    5.1408   441.1    6.937      41.601
2015    5       10     4  55    5.1479   441.2    6.947      41.663
2015    5       10     5   1    5.1550   441.2    6.957      41.726
2015    5       10     5   7    5.1621   441.3    6.966      41.788
2015    5       10     5  12    5.1692   441.4    6.976      41.849
2015    5       10     5  18    5.1762   441.5    6.985      41.911
2015    5       10     5  24    5.1833   441.6    6.994      41.972
2015    5       10     5  30    5.1903   441.7    7.004      42.032
2015    5       10     5  36    5.1973   441.7    7.013      42.092
2015    5       10     5  42    5.2042   441.8    7.022      42.152
2015    5       10     5  47    5.2112   441.9    7.031      42.212
2015    5       10     5  53    5.2181   442.0    7.040      42.271
2015    5       10     5  59    5.2251   442.1    7.049      42.331
2015    5       10     6   5    5.2320   442.2    7.059      42.390
2015    5       10     6  11    5.2390   442.3    7.068      42.450
2015    5       10     6  16    5.2460   442.3    7.078      42.509
2015    5       10     6  22    5.2530   442.4    7.088      42.569
2015    5       10     6  28    5.2600   442.5    7.098      42.630
2015    5       10     6  34    5.2670   442.6    7.108      42.691
2015    5       10     6  40    5.2741   442.7    7.118      42.753
2015    5       10     6  46    5.2813   442.8    7.129      42.816
2015    5       10     6  51    5.2885   442.9    7.140      42.879
2015    5       10     6  57    5.2957   443.0    7.152      42.943
2015    5       10     7   3    5.3031   443.1    7.164      43.007
2015    5       10     7   9    5.3105   443.1    7.176      43.074
2015    5       10     7  15    5.3180   443.2    7.189      43.143
2015    5       10     7  21    5.3256   443.3    7.202      43.215
2015    5       10     7  26    5.3332   443.5    7.215      43.288
2015    5       10     7  32    5.3409   443.6    7.228      43.366
2015    5       10     7  38    5.3487   443.7    7.241      43.446
2015    5       10     7  44    5.3564   443.8    7.254      43.529
2015    5       10     7  50    5.3642   444.0    7.267      43.614
2015    5       10     7  55    5.3720   444.1    7.279      43.700
2015    5       10     8   1    5.3797   444.2    7.292      43.786
2015    5       10     8   7    5.3874   444.4    7.304      43.872
2015    5       10     8  13    5.3951   444.6    7.316      43.958
2015    5       10     8  19    5.4028   444.7    7.327      44.042
2015    5       10     8  25    5.4104   444.9    7.339      44.126
2015    5       10     8  30    5.4179   445.0    7.350      44.210
2015    5       10     8  36    5.4255   445.2    7.360      44.292
2015    5       10     8  42    5.4330   445.3    7.371      44.373
2015    5       10     8  48    5.4405   445.5    7.381      44.454
2015    5       10     8  54    5.4479   445.7    7.391      44.534
2015    5       10     8  59    5.4554   445.8    7.401      44.613
2015    5       10     9   5    5.4629   446.0    7.411      44.692
2015    5       10     9  11    5.4704   446.2    7.421      44.770
2015    5       10     9  17    5.4779   446.3    7.430      44.847
2015    5       10     9  23    5.4854   446.5    7.440      44.925
2015    5       10     9  29    5.4930   446.7    7.449      45.002
2015    5       10     9  34    5.5006   446.8    7.459      45.078
2015    5       10     9  40    5.5083   447.0    7.469      45.155
2015    5       10     9  46    5.5160   447.2    7.478      45.232
2015    5       10     9  52    5.5237   447.4    7.488      45.311
2015    5       10     9  58    5.5315   447.6    7.498      45.391
2015    5       10    10   3    5.5392   447.7    7.507      45.472
2015    5       10    10   9    5.5470   447.9    7.517      45.556
2015    5       10    10  15    5.5548   448.1    7.527      45.640
2015    5       10    10  21    5.5626   448.3    7.536      45.725
2015    5       10    10  27    5.5705   448.5    7.546      45.811
2015    5       10    10  33    5.5783   448.7    7.555      45.897
2015    5       10    10  38    5.5862   448.9    7.565      45.984
2015    5       10    10  44    5.5941   449.1    7.574      46.074
2015    5       10    10  50    5.6021   449.3    7.583      46.164
2015    5       10    10  56    5.6100   449.5    7.592      46.256
2015    5       10    11   2    5.6180   449.7    7.600      46.350
2015    5       10    11   7    5.6259   450.0    7.609      46.445
2015    5       10    11  13    5.6338   450.2    7.617      46.540
2015    5       10    11  19    5.6417   450.4    7.624      46.635
2015    5       10    11  25    5.6495   450.6    7.631      46.729
2015    5       10    11  31    5.6572   450.9    7.638      46.823
2015    5       10    11  37    5.6649   451.1    7.644      46.916
2015    5       10    11  42    5.6725   451.3    7.650      47.009
2015    5       10    11  48    5.6800   451.5    7.656      47.100
2015    5       10    11  54    5.6874   451.8    7.661      47.192
2015    5       10    12   0    5.6948   452.0    7.665      47.282
2015    5       10    12   6    5.7021   452.2    7.669      47.370
2015    5       10    12  11    5.7094   452.5    7.673      47.457
2015    5       10    12  17    5.7166   452.7    7.677      47.543
2015    5       10    12  23    5.7237   452.9    7.680      47.628
2015    5       10    12  29    5.7308   453.1    7.683      47.712
2015    5       10    12  35    5.7378   453.4    7.685      47.794
2015    5       10    12  41    5.7448   453.6    7.687      47.876
2015    5       10    12  46    5.7517   453.8    7.689      47.956
2015    5       10    12  52    5.7585   454.1    7.691      48.036
2015    5       10    12  58    5.7654   454.3    7.692      48.115
2015    5       10    13   4    5.7722   454.5    7.693      48.193
2015    5       10    13  10    5.7789   454.7    7.694      48.270
2015    5       10    13  16    5.7856   455.0    7.695      48.346
2015    5       10    13  21    5.7923   455.2    7.696      48.423
2015    5       10    13  27    5.7989   455.4    7.696      48.498
2015    5       10    13  33    5.8055   455.6    7.697      48.574
2015    5       10    13  39    5.8121   455.9    7.697      48.648
2015    5       10    13  45    5.8186   456.1    7.698      48.723
2015    5       10    13  50    5.8252   456.3    7.698      48.797
2015    5       10    13  56    5.8317   456.5    7.698      48.871
2015    5       10    14   2    5.8381   456.8    7.699      48.945
2015    5       10    14   8    5.8446   457.0    7.699      49.019
2015    5       10    14  14    5.8510   457.2    7.699      49.093
2015    5       10    14  20    5.8575   457.4    7.700      49.167
2015    5       10    14  25    5.8639   457.6    7.700      49.241
2015    5       10    14  31    5.8704   457.8    7.701      49.316
2015    5       10    14  37    5.8768   458.1    7.702      49.390
2015    5       10    14  43    5.8833   458.3    7.703      49.464
2015    5       10    14  49    5.8897   458.5    7.704      49.538
2015    5       10    14  54    5.8962   458.7    7.705      49.614
2015    5       10    15   0    5.9026   458.9    7.707      49.692
2015    5       10    15   6    5.9091   459.2    7.708      49.770
2015    5       10    15  12    5.9155   459.4    7.709      49.849
2015    5       10    15  18    5.9219   459.6    7.711      49.929
2015    5       10    15  24    5.9283   459.9    7.712      50.010
2015    5       10    15  29    5.9346   460.1    7.713      50.091
2015    5       10    15  35    5.9409   460.3    7.714      50.172
2015    5       10    15  41    5.9473   460.6    7.714      50.251
2015    5       10    15  47    5.9535   460.8    7.715      50.330
2015    5       10    15  53    5.9598   461.1    7.715      50.408
2015    5       10    15  58    5.9661   461.3    7.716      50.484
2015    5       10    16   4    5.9723   461.5    7.716      50.560
2015    5       10    16  10    5.9785   461.8    7.716      50.636
2015    5       10    16  16    5.9846   462.0    7.716      50.711
2015    5       10    16  22    5.9908   462.3    7.716      50.784
2015    5       10    16  28    5.9969   462.5    7.715      50.857
2015    5       10    16  33    6.0031   462.8    7.715      50.930
2015    5       10    16  39    6.0092   463.0    7.715      51.001
2015    5       10    16  45    6.0154   463.3    7.715      51.073
2015    5       10    16  51    6.0216   463.5    7.715      51.144
2015    5       10    16  57    6.0278   463.8    7.715      51.214
2015    5       10    17   2    6.0340   464.1    7.715      51.284
2015    5       10    17   8    6.0403   464.3    7.715      51.354
2015    5       10    17  14    6.0465   464.6    7.715      51.423
2015    5       10    17  20    6.0528   464.8    7.716      51.493
2015    5       10    17  26    6.0591   465.1    7.717      51.563
2015    5       10    17  32    6.0654   465.3    7.718      51.633
2015    5       10    17  37    6.0717   465.6    7.720      51.704
2015    5       10    17  43    6.0781   465.8    7.721      51.777
2015    5       10    17  49    6.0844   466.1    7.723      51.852
2015    5       10    17  55    6.0908   466.4    7.726      51.928
2015    5       10    18   1    6.0972   466.6    7.728      52.005
2015    5       10    18   7    6.1036   466.9    7.731      52.083
2015    5       10    18  12    6.1100   467.2    7.734      52.164
2015    5       10    18  18    6.1165   467.4    7.737      52.248
2015    5       10    18  24    6.1229   467.7    7.741      52.333
2015    5       10    18  30    6.1294   468.0    7.745      52.420
2015    5       10    18  36    6.1359   468.3    7.749      52.509
2015    5       10    18  41    6.1425   468.5    7.753      52.600
2015    5       10    18  47    6.1490   468.8    7.758      52.694
2015    5       10    18  53    6.1557   469.1    7.762      52.789
2015    5       10    18  59    6.1623   469.4    7.767      52.886
2015    5       10    19   5    6.1689   469.7    7.772      52.986
2015    5       10    19  11    6.1756   470.0    7.777      53.088
2015    5       10    19  16    6.1822   470.3    7.782      53.193
2015    5       10    19  22    6.1887   470.7    7.788      53.301
2015    5       10    19  28    6.1954   471.0    7.793      53.410
2015    5       10    19  34    6.2020   471.3    7.799      53.518
2015    5       10    19  40    6.2086   471.6    7.805      53.627
2015    5       10    19  45    6.2152   471.9    7.810      53.739
2015    5       10    19  51    6.2218   472.2    7.816      53.855
2015    5       10    19  57    6.2282   472.6    7.822      53.976
2015    5       10    20   3    6.2346   472.9    7.827      54.099
2015    5       10    20   9    6.2409   473.3    7.832      54.226
2015    5       10    20  15    6.2470   473.7    7.837      54.355
2015    5       10    20  20    6.2530   474.0    7.840      54.487
2015    5       10    20  26    6.2588   474.4    7.843      54.617
2015    5       10    20  32    6.2644   474.8    7.846      54.745
2015    5       10    20  38    6.2699   475.2    7.848      54.870
2015    5       10    20  44    6.2753   475.5    7.849      54.993
2015    5       10    20  49    6.2805   475.9    7.849      55.114
2015    5       10    20  55    6.2855   476.3    7.849      55.233
2015    5       10    21   1    6.2905   476.7    7.848      55.351
2015    5       10    21   7    6.2953   477.0    7.847      55.465
2015    5       10    21  13    6.3001   477.4    7.845      55.578
2015    5       10    21  19    6.3048   477.8    7.843      55.689
2015    5       10    21  24    6.3094   478.1    7.840      55.799
2015    5       10    21  30    6.3140   478.5    7.837      55.907
2015    5       10    21  36    6.3186   478.9    7.834      56.015
2015    5       10    21  42    6.3232   479.3    7.830      56.123
2015    5       10    21  48    6.3277   479.6    7.827      56.230
2015    5       10    21  53    6.3323   480.0    7.823      56.337
2015    5       10    21  59    6.3368   480.4    7.819      56.445
2015    5       10    22   5    6.3414   480.8    7.815      56.552
2015    5       10    22  11    6.3461   481.2    7.811      56.660
2015    5       10    22  17    6.3508   481.5    7.807      56.769
2015    5       10    22  23    6.3555   481.9    7.803      56.878
2015    5       10    22  28    6.3604   482.3    7.799      56.987
2015    5       10    22  34    6.3653   482.7    7.795      57.097
2015    5       10    22  40    6.3703   483.1    7.791      57.208
2015    5       10    22  46    6.3754   483.5    7.787      57.319
2015    5       10    22  52    6.3804   483.9    7.782      57.430
2015    5       10    22  57    6.3855   484.3    7.777      57.541
2015    5       10    23   3    6.3906   484.8    7.773      57.652
2015    5       10    23   9    6.3956   485.2    7.767      57.762
2015    5       10    23  15    6.4005   485.6    7.762      57.872
2015    5       10    23  21    6.4055   486.0    7.757      57.981
2015    5       10    23  27    6.4104   486.5    7.751      58.088
2015    5       10    23  32    6.4152   486.9    7.745      58.195
2015    5       10    23  38    6.4199   487.3    7.739      58.300
2015    5       10    23  44    6.4245   487.8    7.733      58.405
2015    5       10    23  50    6.4290   488.2    7.726      58.508
2015    5       10    23  56    6.4334   488.7    7.719      58.609
2015    5       11     0   2    6.4377   489.1    7.712      58.709
2015    5       11     0   7    6.4419   489.5    7.704      58.805
2015    5       11     0  13    6.4459   489.9    7.697      58.900
2015    5       11     0  19    6.4499   490.4    7.690      58.992
2015    5       11     0  25    6.4538   490.8    7.682      59.082
2015    5       11     0  31    6.4576   491.2    7.674      59.171
2015    5       11     0  36    6.4614   491.6    7.667      59.258
2015    5       11     0  42    6.4652   492.0    7.660      59.344
2015    5       11     0  48    6.4690   492.4    7.652      59.430
2015    5       11     0  54    6.4727   492.8    7.645      59.516
2015    5       11     1   0    6.4765   493.2    7.638      59.601
2015    5       11     1   6    6.4803   493.5    7.632      59.686
2015    5       11     1  11    6.4841   493.9    7.625      59.771
2015    5       11     1  17    6.4879   494.3    7.619      59.858
2015    5       11     1  23    6.4918   494.7    7.613      59.946
2015    5       11     1  29    6.4957   495.1    7.608      60.036
2015    5       11     1  35    6.4995   495.5    7.602      60.127
2015    5       11     1  40    6.5034   495.9    7.597      60.219
2015    5       11     1  46    6.5072   496.3    7.591      60.313
2015    5       11     1  52    6.5110   496.7    7.586      60.408
2015    5       11     1  58    6.5148   497.1    7.581      60.502
2015    5       11     2   4    6.5185   497.5    7.575      60.596
2015    5       11     2  10    6.5222   497.9    7.570      60.689
2015    5       11     2  15    6.5259   498.2    7.565      60.782
2015    5       11     2  21    6.5296   498.6    7.560      60.874
2015    5       11     2  27    6.5332   499.0    7.555      60.967
2015    5       11     2  33    6.5368   499.4    7.550      61.060
2015    5       11     2  39    6.5405   499.8    7.546      61.154
2015    5       11     2  44    6.5441   500.2    7.542      61.246
2015    5       11     2  50    6.5479   500.6    7.539      61.338
2015    5       11     2  56    6.5516   500.9    7.535      61.433
2015    5       11     3   2    6.5555   501.3    7.532      61.533
2015    5       11     3   8    6.5594   501.7    7.529      61.636
2015    5       11     3  14    6.5633   502.2    7.526      61.742
2015    5       11     3  19    6.5671   502.6    7.523      61.853
2015    5       11     3  25    6.5709   503.0    7.520      61.968
2015    5       11     3  31    6.5747   503.5    7.516      62.085
2015    5       11     3  37    6.5783   503.9    7.512      62.203
2015    5       11     3  43    6.5818   504.4    7.507      62.319
2015    5       11     3  48    6.5852   504.9    7.502      62.435
2015    5       11     3  54    6.5884   505.3    7.496      62.550
2015    5       11     4   0    6.5916   505.8    7.490      62.666
2015    5       11     4   6    6.5945   506.3    7.484      62.780
2015    5       11     4  12    6.5974   506.8    7.476      62.894
2015    5       11     4  18    6.6001   507.2    7.468      63.007
2015    5       11     4  23    6.6027   507.7    7.460      63.119
2015    5       11     4  29    6.6052   508.2    7.452      63.230
2015    5       11     4  35    6.6077   508.7    7.443      63.341
2015    5       11     4  41    6.6101   509.2    7.433      63.450
2015    5       11     4  47    6.6124   509.7    7.424      63.560
2015    5       11     4  52    6.6146   510.2    7.414      63.669
2015    5       11     4  58    6.6168   510.7    7.404      63.777
2015    5       11     5   4    6.6189   511.3    7.393      63.885
2015    5       11     5  10    6.6211   511.8    7.383      63.992
2015    5       11     5  16    6.6231   512.3    7.372      64.100
2015    5       11     5  22    6.6252   512.8    7.361      64.207
2015    5       11     5  27    6.6272   513.3    7.351      64.315
2015    5       11     5  33    6.6292   513.8    7.340      64.423
2015    5       11     5  39    6.6312   514.3    7.329      64.531
2015    5       11     5  45    6.6332   514.8    7.319      64.639
2015    5       11     5  51    6.6352   515.3    7.308      64.749
2015    5       11     5  57    6.6372   515.8    7.298      64.858
2015    5       11     6   2    6.6393   516.3    7.288      64.967
2015    5       11     6   8    6.6414   516.8    7.278      65.076
2015    5       11     6  14    6.6437   517.3    7.269      65.190
2015    5       11     6  20    6.6460   517.8    7.259      65.307
2015    5       11     6  26    6.6484   518.4    7.250      65.429
2015    5       11     6  31    6.6509   518.9    7.241      65.555
2015    5       11     6  37    6.6533   519.5    7.231      65.685
2015    5       11     6  43    6.6558   520.0    7.221      65.815
2015    5       11     6  49    6.6581   520.6    7.212      65.944
2015    5       11     6  55    6.6603   521.2    7.201      66.073
2015    5       11     7   1    6.6622   521.8    7.191      66.201
2015    5       11     7   6    6.6641   522.4    7.179      66.328
2015    5       11     7  12    6.6656   523.0    7.168      66.453
2015    5       11     7  18    6.6669   523.6    7.155      66.576
2015    5       11     7  24    6.6679   524.2    7.142      66.696
2015    5       11     7  30    6.6688   524.9    7.128      66.812
2015    5       11     7  35    6.6693   525.5    7.114      66.925
2015    5       11     7  41    6.6697   526.1    7.099      67.034
2015    5       11     7  47    6.6698   526.7    7.084      67.139
2015    5       11     7  53    6.6698   527.3    7.068      67.239
2015    5       11     7  59    6.6696   527.9    7.052      67.337
2015    5       11     8   5    6.6692   528.5    7.036      67.432
2015    5       11     8  10    6.6688   529.1    7.020      67.524
2015    5       11     8  16    6.6683   529.7    7.003      67.614
2015    5       11     8  22    6.6677   530.3    6.987      67.702
2015    5       11     8  28    6.6672   530.8    6.970      67.791
2015    5       11     8  34    6.6665   531.4    6.953      67.879
2015    5       11     8  39    6.6658   532.1    6.937      67.968
2015    5       11     8  45    6.6650   532.7    6.919      68.059
2015    5       11     8  51    6.6641   533.3    6.902      68.150
2015    5       11     8  57    6.6631   533.9    6.884      68.243
2015    5       11     9   3    6.6620   534.6    6.866      68.336
2015    5       11     9   9    6.6607   535.2    6.847      68.430
2015    5       11     9  14    6.6592   535.8    6.827      68.523
2015    5       11     9  20    6.6573   536.5    6.807      68.613
2015    5       11     9  26    6.6552   537.1    6.786      68.699
2015    5       11     9  32    6.6527   537.8    6.764      68.782
2015    5       11     9  38    6.6499   538.5    6.740      68.864
2015    5       11     9  43    6.6464   539.1    6.716      68.934
2015    5       11     9  49    6.6426   539.7    6.690      68.993
2015    5       11     9  55    6.6382   540.4    6.663      69.042
2015    5       11    10   1    6.6335   541.0    6.636      69.082
2015    5       11    10   7    6.6285   541.6    6.608      69.114
2015    5       11    10  13    6.6233   542.1    6.581      69.133
2015    5       11    10  18    6.6180   542.7    6.554      69.147
2015    5       11    10  24    6.6128   543.2    6.528      69.162
2015    5       11    10  30    6.6076   543.7    6.502      69.176
2015    5       11    10  36    6.6025   544.3    6.477      69.192
2015    5       11    10  42    6.5974   544.8    6.452      69.210
2015    5       11    10  48    6.5925   545.4    6.428      69.229
2015    5       11    10  53    6.5876   545.9    6.404      69.251
2015    5       11    10  59    6.5829   546.4    6.382      69.275
2015    5       11    11   5    6.5783   546.9    6.360      69.303
2015    5       11    11  11    6.5738   547.5    6.339      69.335
2015    5       11    11  17    6.5694   548.0    6.318      69.371
2015    5       11    11  22    6.5651   548.5    6.298      69.409
2015    5       11    11  28    6.5609   549.0    6.279      69.451
2015    5       11    11  34    6.5567   549.6    6.260      69.495
2015    5       11    11  40    6.5526   550.1    6.241      69.543
2015    5       11    11  46    6.5487   550.6    6.223      69.593
2015    5       11    11  52    6.5447   551.1    6.206      69.645
2015    5       11    11  57    6.5408   551.7    6.189      69.699
2015    5       11    12   3    6.5369   552.2    6.172      69.755
2015    5       11    12   9    6.5331   552.7    6.156      69.814
2015    5       11    12  15    6.5292   553.2    6.140      69.875
2015    5       11    12  21    6.5253   553.8    6.124      69.938
2015    5       11    12  26    6.5214   554.3    6.108      70.004
2015    5       11    12  32    6.5175   554.9    6.092      70.071
2015    5       11    12  38    6.5135   555.4    6.077      70.140
2015    5       11    12  44    6.5095   556.0    6.061      70.211
2015    5       11    12  50    6.5054   556.5    6.046      70.282
2015    5       11    12  56    6.5014   557.1    6.030      70.354
2015    5       11    13   1    6.4972   557.6    6.015      70.425
2015    5       11    13   7    6.4930   558.2    5.999      70.497
2015    5       11    13  13    6.4887   558.7    5.983      70.567
2015    5       11    13  19    6.4843   559.3    5.968      70.637
2015    5       11    13  25    6.4798   559.8    5.952      70.707
2015    5       11    13  30    6.4753   560.4    5.936      70.776
2015    5       11    13  36    6.4705   561.0    5.920      70.844
2015    5       11    13  42    6.4657   561.6    5.903      70.911
2015    5       11    13  48    6.4607   562.1    5.887      70.975
2015    5       11    13  54    6.4556   562.7    5.870      71.036
2015    5       11    14   0    6.4503   563.3    5.853      71.094
2015    5       11    14   5    6.4449   563.8    5.835      71.148
2015    5       11    14  11    6.4393   564.4    5.817      71.198
2015    5       11    14  17    6.4335   565.0    5.799      71.242
2015    5       11    14  23    6.4276   565.5    5.781      71.279
2015    5       11    14  29    6.4215   566.1    5.763      71.312
2015    5       11    14  34    6.4153   566.6    5.745      71.340
2015    5       11    14  40    6.4090   567.1    5.727      71.364
2015    5       11    14  46    6.4026   567.7    5.709      71.388
2015    5       11    14  52    6.3963   568.2    5.691      71.413
2015    5       11    14  58    6.3899   568.7    5.673      71.441
2015    5       11    15   4    6.3835   569.3    5.656      71.468
2015    5       11    15   9    6.3770   569.8    5.639      71.497
2015    5       11    15  15    6.3706   570.4    5.622      71.525
2015    5       11    15  21    6.3641   570.9    5.605      71.553
2015    5       11    15  27    6.3577   571.5    5.588      71.582
2015    5       11    15  33    6.3512   572.1    5.572      71.610
2015    5       11    15  38    6.3447   572.6    5.556      71.637
2015    5       11    15  44    6.3381   573.2    5.540      71.665
2015    5       11    15  50    6.3316   573.7    5.524      71.693
2015    5       11    15  56    6.3249   574.3    5.508      71.725
2015    5       11    16   2    6.3182   574.9    5.491      71.758
2015    5       11    16   8    6.3114   575.5    5.475      71.794
2015    5       11    16  13    6.3044   576.1    5.458      71.832
2015    5       11    16  19    6.2972   576.7    5.441      71.872
2015    5       11    16  25    6.2899   577.3    5.424      71.915
2015    5       11    16  31    6.2822   577.9    5.406      71.959
2015    5       11    16  37    6.2743   578.6    5.387      72.000
2015    5       11    16  43    6.2661   579.2    5.367      72.037
2015    5       11    16  48    6.2575   579.9    5.347      72.072
2015    5       11    16  54    6.2486   580.6    5.325      72.106
2015    5       11    17   0    6.2391   581.3    5.301      72.128
2015    5       11    17   6    6.2292   582.0    5.277      72.135
2015    5       11    17  12    6.2190   582.7    5.252      72.131
2015    5       11    17  17    6.2083   583.4    5.226      72.116
2015    5       11    17  23    6.1974   584.0    5.199      72.087
2015    5       11    17  29    6.1863   584.6    5.173      72.039
2015    5       11    17  35    6.1752   585.1    5.147      71.980
2015    5       11    17  41    6.1642   585.6    5.122      71.916
2015    5       11    17  47    6.1535   586.1    5.098      71.852
2015    5       11    17  52    6.1429   586.6    5.074      71.790
2015    5       11    17  58    6.1325   587.1    5.051      71.729
2015    5       11    18   4    6.1223   587.6    5.029      71.669
2015    5       11    18  10    6.1124   588.1    5.008      71.613
2015    5       11    18  16    6.1027   588.5    4.987      71.561
2015    5       11    18  21    6.0933   588.9    4.968      71.513
2015    5       11    18  27    6.0841   589.3    4.950      71.471
2015    5       11    18  33    6.0751   589.8    4.932      71.433
2015    5       11    18  39    6.0662   590.2    4.915      71.400
2015    5       11    18  45    6.0575   590.6    4.899      71.372
2015    5       11    18  51    6.0489   591.0    4.883      71.351
2015    5       11    18  56    6.0405   591.4    4.868      71.335
2015    5       11    19   2    6.0320   591.9    4.853      71.323
2015    5       11    19   8    6.0237   592.3    4.839      71.315
2015    5       11    19  14    6.0155   592.7    4.825      71.309
2015    5       11    19  20    6.0073   593.1    4.811      71.302
2015    5       11    19  25    5.9991   593.5    4.798      71.295
2015    5       11    19  31    5.9910   593.9    4.785      71.288
2015    5       11    19  37    5.9828   594.3    4.771      71.283
2015    5       11    19  43    5.9746   594.7    4.758      71.280
2015    5       11    19  49    5.9663   595.1    4.745      71.279
2015    5       11    19  55    5.9580   595.5    4.732      71.280
2015    5       11    20   0    5.9497   595.9    4.719      71.281
2015    5       11    20   6    5.9414   596.3    4.706      71.282
2015    5       11    20  12    5.9331   596.7    4.694      71.281
2015    5       11    20  18    5.9249   597.1    4.681      71.277
2015    5       11    20  24    5.9166   597.5    4.669      71.273
2015    5       11    20  29    5.9084   597.9    4.656      71.267
2015    5       11    20  35    5.9001   598.3    4.644      71.262
2015    5       11    20  41    5.8918   598.6    4.631      71.258
2015    5       11    20  47    5.8835   599.0    4.619      71.255
2015    5       11    20  53    5.8752   599.5    4.606      71.255
2015    5       11    20  59    5.8668   599.9    4.594      71.256
2015    5       11    21   4    5.8583   600.3    4.581      71.257
2015    5       11    21  10    5.8498   600.8    4.569      71.256
2015    5       11    21  16    5.8413   601.2    4.556      71.253
2015    5       11    21  22    5.8327   601.6    4.543      71.246
2015    5       11    21  28    5.8241   602.1    4.530      71.235
2015    5       11    21  34    5.8154   602.5    4.517      71.219
2015    5       11    21  39    5.8067   602.9    4.504      71.195
2015    5       11    21  45    5.7978   603.2    4.490      71.167
2015    5       11    21  51    5.7888   603.6    4.477      71.133
2015    5       11    21  57    5.7797   604.0    4.463      71.096
2015    5       11    22   3    5.7707   604.3    4.450      71.055
2015    5       11    22   8    5.7616   604.7    4.437      71.014
2015    5       11    22  14    5.7525   605.0    4.424      70.975
2015    5       11    22  20    5.7435   605.4    4.412      70.937
2015    5       11    22  26    5.7346   605.7    4.400      70.901
2015    5       11    22  32    5.7258   606.0    4.388      70.866
2015    5       11    22  38    5.7170   606.4    4.376      70.832
2015    5       11    22  43    5.7082   606.7    4.365      70.800
2015    5       11    22  49    5.6996   607.0    4.354      70.769
2015    5       11    22  55    5.6909   607.4    4.343      70.738
2015    5       11    23   1    5.6822   607.7    4.332      70.710
2015    5       11    23   7    5.6736   608.0    4.321      70.684
2015    5       11    23  12    5.6650   608.4    4.311      70.660
2015    5       11    23  18    5.6564   608.7    4.300      70.637
2015    5       11    23  24    5.6478   609.0    4.290      70.614
2015    5       11    23  30    5.6392   609.3    4.280      70.592
2015    5       11    23  36    5.6305   609.7    4.270      70.571
2015    5       11    23  42    5.6218   610.0    4.260      70.549
2015    5       11    23  47    5.6130   610.3    4.250      70.528
2015    5       11    23  53    5.6043   610.7    4.240      70.507
2015    5       11    23  59    5.5955   611.0    4.230      70.486
2015    5       12     0   5    5.5867   611.3    4.219      70.465
2015    5       12     0  11    5.5780   611.7    4.209      70.443
2015    5       12     0  16    5.5692   612.0    4.198      70.420
2015    5       12     0  22    5.5604   612.4    4.188      70.395
2015    5       12     0  28    5.5516   612.7    4.177      70.367
2015    5       12     0  34    5.5428   613.1    4.166      70.334
2015    5       12     0  40    5.5340   613.4    4.155      70.296
2015    5       12     0  46    5.5254   613.6    4.145      70.255
2015    5       12     0  51    5.5169   613.9    4.134      70.213
2015    5       12     0  57    5.5084   614.2    4.124      70.170
2015    5       12     1   3    5.5003   614.4    4.114      70.127
2015    5       12     1   9    5.4922   614.7    4.104      70.084
2015    5       12     1  15    5.4844   614.9    4.095      70.043
2015    5       12     1  20    5.4766   615.1    4.086      70.003
2015    5       12     1  26    5.4691   615.3    4.077      69.966
2015    5       12     1  32    5.4616   615.5    4.069      69.932
2015    5       12     1  38    5.4544   615.8    4.061      69.901
2015    5       12     1  44    5.4472   616.0    4.053      69.873
2015    5       12     1  50    5.4401   616.2    4.045      69.852
2015    5       12     1  55    5.4331   616.5    4.038      69.836
2015    5       12     2   1    5.4261   616.8    4.030      69.823
2015    5       12     2   7    5.4191   617.1    4.023      69.813
2015    5       12     2  13    5.4121   617.4    4.015      69.803
2015    5       12     2  19    5.4052   617.7    4.008      69.793
2015    5       12     2  24    5.3982   617.9    4.000      69.778
2015    5       12     2  30    5.3913   618.2    3.993      69.759
2015    5       12     2  36    5.3843   618.4    3.985      69.737
2015    5       12     2  42    5.3772   618.7    3.977      69.713
2015    5       12     2  48    5.3702   618.9    3.969      69.686
2015    5       12     2  54    5.3631   619.2    3.961      69.659
2015    5       12     2  59    5.3560   619.5    3.953      69.632
2015    5       12     3   5    5.3488   619.7    3.944      69.606
2015    5       12     3  11    5.3417   620.0    3.936      69.579
2015    5       12     3  17    5.3345   620.3    3.927      69.550
2015    5       12     3  23    5.3274   620.6    3.919      69.520
2015    5       12     3  29    5.3202   620.9    3.910      69.487
2015    5       12     3  34    5.3132   621.1    3.902      69.452
2015    5       12     3  40    5.3062   621.3    3.894      69.414
2015    5       12     3  46    5.2993   621.5    3.886      69.375
2015    5       12     3  52    5.2925   621.7    3.879      69.336
2015    5       12     3  58    5.2858   621.9    3.871      69.299
2015    5       12     4   3    5.2791   622.1    3.864      69.262
2015    5       12     4   9    5.2724   622.3    3.857      69.228
2015    5       12     4  15    5.2658   622.6    3.849      69.200
2015    5       12     4  21    5.2593   622.8    3.842      69.175
2015    5       12     4  27    5.2527   623.1    3.836      69.153
2015    5       12     4  33    5.2462   623.3    3.829      69.132
2015    5       12     4  38    5.2397   623.6    3.822      69.113
2015    5       12     4  44    5.2333   623.8    3.815      69.091
2015    5       12     4  50    5.2268   624.1    3.809      69.066
2015    5       12     4  56    5.2203   624.3    3.802      69.037
2015    5       12     5   2    5.2138   624.5    3.795      69.008
2015    5       12     5   7    5.2072   624.8    3.789      68.978
2015    5       12     5  13    5.2006   625.0    3.782      68.947
2015    5       12     5  19    5.1939   625.2    3.775      68.915
2015    5       12     5  25    5.1872   625.5    3.768      68.882
2015    5       12     5  31    5.1806   625.7    3.761      68.850
2015    5       12     5  37    5.1739   625.9    3.754      68.816
2015    5       12     5  42    5.1673   626.1    3.748      68.780
2015    5       12     5  48    5.1608   626.3    3.741      68.744
2015    5       12     5  54    5.1543   626.5    3.734      68.708
2015    5       12     6   0    5.1479   626.7    3.728      68.672
2015    5       12     6   6    5.1415   626.9    3.721      68.637
2015    5       12     6  11    5.1352   627.1    3.715      68.603
2015    5       12     6  17    5.1289   627.2    3.708      68.571
2015    5       12     6  23    5.1226   627.4    3.702      68.539
2015    5       12     6  29    5.1164   627.6    3.696      68.509
2015    5       12     6  35    5.1102   627.9    3.690      68.481
2015    5       12     6  41    5.1041   628.1    3.683      68.454
2015    5       12     6  46    5.0979   628.3    3.677      68.427
2015    5       12     6  52    5.0918   628.5    3.671      68.401
2015    5       12     6  58    5.0857   628.7    3.665      68.375
2015    5       12     7   4    5.0796   628.9    3.659      68.347
2015    5       12     7  10    5.0735   629.1    3.653      68.319
2015    5       12     7  15    5.0675   629.3    3.647      68.290
2015    5       12     7  21    5.0614   629.5    3.641      68.261
2015    5       12     7  27    5.0554   629.7    3.635      68.232
2015    5       12     7  33    5.0494   629.8    3.629      68.202
2015    5       12     7  39    5.0435   630.0    3.623      68.171
2015    5       12     7  45    5.0376   630.2    3.617      68.141
2015    5       12     7  50    5.0317   630.4    3.611      68.110
2015    5       12     7  56    5.0258   630.5    3.606      68.079
2015    5       12     8   2    5.0200   630.7    3.600      68.049
2015    5       12     8   8    5.0143   630.9    3.594      68.019
2015    5       12     8  14    5.0085   631.0    3.589      67.990
2015    5       12     8  19    5.0028   631.2    3.584      67.962
2015    5       12     8  25    4.9971   631.3    3.578      67.933
2015    5       12     8  31    4.9915   631.5    3.573      67.906
2015    5       12     8  37    4.9858   631.6    3.568      67.879
2015    5       12     8  43    4.9802   631.8    3.563      67.853
2015    5       12     8  49    4.9746   631.9    3.559      67.828
2015    5       12     8  54    4.9690   632.1    3.554      67.804
2015    5       12     9   0    4.9635   632.2    3.549      67.779
2015    5       12     9   6    4.9579   632.3    3.545      67.755
2015    5       12     9  12    4.9524   632.5    3.540      67.731
2015    5       12     9  18    4.9469   632.6    3.536      67.706
2015    5       12     9  24    4.9414   632.8    3.531      67.681
2015    5       12     9  29    4.9360   632.9    3.527      67.656
2015    5       12     9  35    4.9305   633.0    3.522      67.631
2015    5       12     9  41    4.9251   633.2    3.518      67.605
2015    5       12     9  47    4.9197   633.3    3.513      67.579
2015    5       12     9  53    4.9143   633.4    3.509      67.552
2015    5       12     9  58    4.9089   633.6    3.505      67.525
2015    5       12    10   4    4.9036   633.7    3.500      67.497
2015    5       12    10  10    4.8983   633.8    3.496      67.469
2015    5       12    10  16    4.8930   634.0    3.492      67.440
2015    5       12    10  22    4.8877   634.1    3.487      67.411
2015    5       12    10  28    4.8825   634.2    3.483      67.382
2015    5       12    10  33    4.8773   634.4    3.479      67.352
2015    5       12    10  39    4.8721   634.5    3.474      67.322
2015    5       12    10  45    4.8670   634.6    3.470      67.291
2015    5       12    10  51    4.8619   634.7    3.466      67.260
2015    5       12    10  57    4.8568   634.9    3.462      67.228
2015    5       12    11   2    4.8517   635.0    3.458      67.197
2015    5       12    11   8    4.8467   635.1    3.453      67.164
2015    5       12    11  14    4.8417   635.2    3.449      67.132
2015    5       12    11  20    4.8367   635.3    3.445      67.099
2015    5       12    11  26    4.8317   635.5    3.441      67.065
2015    5       12    11  32    4.8268   635.6    3.437      67.032
2015    5       12    11  37    4.8219   635.7    3.433      66.999
2015    5       12    11  43    4.8170   635.8    3.429      66.965
2015    5       12    11  49    4.8121   635.9    3.425      66.932
2015    5       12    11  55    4.8072   636.0    3.421      66.899
2015    5       12    12   1    4.8023   636.1    3.418      66.866
2015    5       12    12   6    4.7975   636.2    3.414      66.833
2015    5       12    12  12    4.7927   636.3    3.410      66.800
2015    5       12    12  18    4.7879   636.4    3.406      66.768
2015    5       12    12  24    4.7831   636.5    3.403      66.736
2015    5       12    12  30    4.7783   636.6    3.399      66.704
2015    5       12    12  36    4.7736   636.7    3.395      66.672
2015    5       12    12  41    4.7688   636.8    3.392      66.640
2015    5       12    12  47    4.7641   636.9    3.388      66.608
2015    5       12    12  53    4.7594   637.0    3.385      66.577
2015    5       12    12  59    4.7548   637.1    3.381      66.546
2015    5       12    13   5    4.7501   637.2    3.378      66.515
2015    5       12    13  10    4.7455   637.3    3.374      66.484
2015    5       12    13  16    4.7409   637.4    3.370      66.453
2015    5       12    13  22    4.7363   637.4    3.367      66.423
2015    5       12    13  28    4.7317   637.5    3.363      66.392
2015    5       12    13  34    4.7271   637.6    3.360      66.362
2015    5       12    13  40    4.7226   637.7    3.356      66.332
2015    5       12    13  45    4.7181   637.8    3.352      66.302
2015    5       12    13  51    4.7136   637.9    3.349      66.272
2015    5       12    13  57    4.7091   637.9    3.345      66.242
2015    5       12    14   3    4.7046   638.0    3.342      66.213
2015    5       12    14   9    4.7002   638.1    3.338      66.183
2015    5       12    14  15    4.6958   638.2    3.334      66.153
2015    5       12    14  20    4.6913   638.2    3.331      66.124
2015    5       12    14  26    4.6870   638.3    3.327      66.095
2015    5       12    14  32    4.6826   638.4    3.324      66.066
2015    5       12    14  38    4.6783   638.4    3.320      66.037
2015    5       12    14  44    4.6739   638.5    3.317      66.007
2015    5       12    14  49    4.6696   638.6    3.313      65.978
2015    5       12    14  55    4.6653   638.6    3.310      65.950
2015    5       12    15   1    4.6611   638.7    3.306      65.921
2015    5       12    15   7    4.6568   638.8    3.303      65.892
2015    5       12    15  13    4.6525   638.8    3.300      65.863
2015    5       12    15  19    4.6483   638.9    3.296      65.834
2015    5       12    15  24    4.6441   639.0    3.293      65.805
2015    5       12    15  30    4.6399   639.0    3.290      65.776
2015    5       12    15  36    4.6357   639.1    3.287      65.747
2015    5       12    15  42    4.6315   639.1    3.284      65.718
2015    5       12    15  48    4.6274   639.2    3.281      65.688
2015    5       12    15  53    4.6232   639.2    3.278      65.659
2015    5       12    15  59    4.6191   639.3    3.275      65.629
2015    5       12    16   5    4.6149   639.3    3.272      65.600
2015    5       12    16  11    4.6108   639.4    3.269      65.570
2015    5       12    16  17    4.6067   639.4    3.266      65.540
2015    5       12    16  23    4.6026   639.5    3.263      65.510
2015    5       12    16  28    4.5985   639.5    3.260      65.479
2015    5       12    16  34    4.5945   639.6    3.257      65.449
2015    5       12    16  40    4.5904   639.6    3.255      65.418
2015    5       12    16  46    4.5864   639.7    3.252      65.387
2015    5       12    16  52    4.5823   639.7    3.249      65.356
2015    5       12    16  57    4.5783   639.8    3.247      65.325
2015    5       12    17   3    4.5743   639.8    3.244      65.293
2015    5       12    17   9    4.5704   639.8    3.241      65.261
2015    5       12    17  15    4.5664   639.9    3.239      65.230
2015    5       12    17  21    4.5625   639.9    3.236      65.198
2015    5       12    17  27    4.5586   640.0    3.234      65.166
2015    5       12    17  32    4.5546   640.0    3.232      65.134
2015    5       12    17  38    4.5507   640.0    3.229      65.102
2015    5       12    17  44    4.5469   640.1    3.227      65.069
2015    5       12    17  50    4.5430   640.1    3.224      65.037
2015    5       12    17  56    4.5392   640.1    3.222      65.004
2015    5       12    18   1    4.5354   640.2    3.220      64.972
2015    5       12    18   7    4.5316   640.2    3.217      64.939
2015    5       12    18  13    4.5278   640.2    3.215      64.907
2015    5       12    18  19    4.5240   640.3    3.213      64.875
2015    5       12    18  25    4.5203   640.3    3.211      64.842
2015    5       12    18  31    4.5166   640.3    3.208      64.810
2015    5       12    18  36    4.5129   640.4    3.206      64.777
2015    5       12    18  42    4.5092   640.4    3.204      64.745
2015    5       12    18  48    4.5055   640.4    3.202      64.713
2015    5       12    18  54    4.5019   640.4    3.199      64.680
2015    5       12    19   0    4.4982   640.5    3.197      64.648
2015    5       12    19   5    4.4946   640.5    3.195      64.616
2015    5       12    19  11    4.4910   640.5    3.193      64.584
2015    5       12    19  17    4.4874   640.5    3.190      64.552
2015    5       12    19  23    4.4839   640.6    3.188      64.520
2015    5       12    19  29    4.4803   640.6    3.186      64.489
2015    5       12    19  35    4.4768   640.6    3.183      64.457
2015    5       12    19  40    4.4733   640.6    3.181      64.426
2015    5       12    19  46    4.4698   640.6    3.179      64.394
2015    5       12    19  52    4.4663   640.7    3.176      64.363
2015    5       12    19  58    4.4628   640.7    3.174      64.332
2015    5       12    20   4    4.4593   640.7    3.172      64.300
2015    5       12    20  10    4.4559   640.7    3.169      64.269
2015    5       12    20  15    4.4525   640.7    3.167      64.238
2015    5       12    20  21    4.4490   640.7    3.165      64.207
2015    5       12    20  27    4.4456   640.7    3.162      64.176
2015    5       12    20  33    4.4422   640.8    3.160      64.145
2015    5       12    20  39    4.4388   640.8    3.157      64.115
2015    5       12    20  44    4.4355   640.8    3.155      64.084
2015    5       12    20  50    4.4321   640.8    3.152      64.053
2015    5       12    20  56    4.4287   640.8    3.150      64.022
2015    5       12    21   2    4.4254   640.8    3.148      63.991
2015    5       12    21   8    4.4220   640.8    3.145      63.961
2015    5       12    21  14    4.4187   640.8    3.143      63.930
2015    5       12    21  19    4.4153   640.8    3.140      63.900
2015    5       12    21  25    4.4120   640.8    3.138      63.869
2015    5       12    21  31    4.4087   640.8    3.135      63.839
2015    5       12    21  37    4.4054   640.8    3.133      63.809
2015    5       12    21  43    4.4021   640.8    3.131      63.779
2015    5       12    21  48    4.3988   640.8    3.128      63.749
2015    5       12    21  54    4.3955   640.8    3.126      63.719
2015    5       12    22   0    4.3923   640.8    3.124      63.689
2015    5       12    22   6    4.3890   640.8    3.122      63.660
2015    5       12    22  12    4.3857   640.8    3.120      63.630
2015    5       12    22  18    4.3825   640.8    3.117      63.601
2015    5       12    22  23    4.3792   640.8    3.115      63.571
2015    5       12    22  29    4.3760   640.8    3.113      63.542
2015    5       12    22  35    4.3728   640.8    3.111      63.513
2015    5       12    22  41    4.3695   640.8    3.109      63.483
2015    5       12    22  47    4.3663   640.8    3.107      63.454
2015    5       12    22  52    4.3631   640.8    3.106      63.424
2015    5       12    22  58    4.3599   640.8    3.104      63.395
2015    5       12    23   4    4.3567   640.8    3.102      63.365
2015    5       12    23  10    4.3535   640.7    3.100      63.335
2015    5       12    23  16    4.3502   640.7    3.098      63.304
2015    5       12    23  22    4.3471   640.7    3.097      63.274
2015    5       12    23  27    4.3439   640.7    3.095      63.243
2015    5       12    23  33    4.3407   640.7    3.094      63.212
2015    5       12    23  39    4.3375   640.7    3.092      63.181
2015    5       12    23  45    4.3343   640.6    3.090      63.149
2015    5       12    23  51    4.3312   640.6    3.089      63.117
2015    5       12    23  56    4.3280   640.6    3.087      63.084
2015    5       13     0   2    4.3249   640.6    3.086      63.052
2015    5       13     0   8    4.3217   640.5    3.084      63.019
2015    5       13     0  14    4.3186   640.5    3.083      62.985
2015    5       13     0  20    4.3155   640.5    3.081      62.952
2015    5       13     0  26    4.3124   640.4    3.080      62.918
2015    5       13     0  31    4.3093   640.4    3.079      62.883
2015    5       13     0  37    4.3062   640.4    3.077      62.849
2015    5       13     0  43    4.3032   640.3    3.076      62.814
2015    5       13     0  49    4.3002   640.3    3.075      62.780
2015    5       13     0  55    4.2971   640.3    3.073      62.745
2015    5       13     1   0    4.2941   640.2    3.072      62.710
2015    5       13     1   6    4.2911   640.2    3.070      62.675
2015    5       13     1  12    4.2882   640.1    3.069      62.640
2015    5       13     1  18    4.2852   640.1    3.068      62.606
2015    5       13     1  24    4.2823   640.1    3.067      62.571
2015    5       13     1  30    4.2794   640.0    3.065      62.537
2015    5       13     1  35    4.2766   640.0    3.064      62.503
2015    5       13     1  41    4.2737   639.9    3.063      62.469
2015    5       13     1  47    4.2709   639.9    3.062      62.436
2015    5       13     1  53    4.2681   639.8    3.060      62.403
2015    5       13     1  59    4.2653   639.8    3.059      62.371
2015    5       13     2   5    4.2626   639.8    3.058      62.339
2015    5       13     2  10    4.2598   639.7    3.057      62.308
2015    5       13     2  16    4.2571   639.7    3.055      62.278
2015    5       13     2  22    4.2543   639.6    3.054      62.248
2015    5       13     2  28    4.2516   639.6    3.053      62.218
2015    5       13     2  34    4.2489   639.5    3.051      62.188
2015    5       13     2  39    4.2462   639.5    3.050      62.158
2015    5       13     2  45    4.2435   639.5    3.048      62.128
2015    5       13     2  51    4.2407   639.4    3.047      62.097
2015    5       13     2  57    4.2380   639.4    3.045      62.066
2015    5       13     3   3    4.2353   639.3    3.044      62.035
2015    5       13     3   9    4.2326   639.3    3.042      62.004
2015    5       13     3  14    4.2299   639.2    3.040      61.972
2015    5       13     3  20    4.2271   639.2    3.038      61.939
2015    5       13     3  26    4.2244   639.1    3.037      61.906
2015    5       13     3  32    4.2217   639.1    3.035      61.873
2015    5       13     3  38    4.2190   639.0    3.033      61.840
2015    5       13     3  43    4.2162   639.0    3.031      61.806
2015    5       13     3  49    4.2135   638.9    3.029      61.771
2015    5       13     3  55    4.2108   638.9    3.027      61.737
2015    5       13     4   1    4.2081   638.8    3.025      61.702
2015    5       13     4   7    4.2053   638.8    3.023      61.667
2015    5       13     4  13    4.2026   638.7    3.021      61.632
2015    5       13     4  18    4.1999   638.7    3.019      61.596
2015    5       13     4  24    4.1972   638.6    3.017      61.560
2015    5       13     4  30    4.1944   638.5    3.016      61.524
2015    5       13     4  36    4.1917   638.5    3.014      61.488
2015    5       13     4  42    4.1890   638.4    3.012      61.452
2015    5       13     4  47    4.1863   638.4    3.010      61.416
2015    5       13     4  53    4.1835   638.3    3.008      61.379
2015    5       13     4  59    4.1808   638.3    3.006      61.343
2015    5       13     5   5    4.1781   638.2    3.004      61.307
2015    5       13     5  11    4.1754   638.1    3.002      61.270
2015    5       13     5  17    4.1727   638.1    3.001      61.234
2015    5       13     5  22    4.1700   638.0    2.999      61.198
2015    5       13     5  28    4.1672   637.9    2.997      61.163
2015    5       13     5  34    4.1646   637.9    2.996      61.127
2015    5       13     5  40    4.1619   637.8    2.994      61.092
2015    5       13     5  46    4.1592   637.7    2.993      61.058
2015    5       13     5  51    4.1565   637.7    2.991      61.024
2015    5       13     5  57    4.1539   637.6    2.990      60.990
2015    5       13     6   3    4.1512   637.5    2.989      60.958
2015    5       13     6   9    4.1486   637.4    2.988      60.926
2015    5       13     6  15    4.1460   637.4    2.987      60.894
2015    5       13     6  21    4.1434   637.3    2.986      60.864
2015    5       13     6  26    4.1408   637.2    2.985      60.834
2015    5       13     6  32    4.1382   637.1    2.984      60.804
2015    5       13     6  38    4.1357   637.1    2.984      60.776
2015    5       13     6  44    4.1331   637.0    2.983      60.748
2015    5       13     6  50    4.1306   636.9    2.983      60.720
2015    5       13     6  55    4.1281   636.8    2.982      60.693
2015    5       13     7   1    4.1256   636.8    2.982      60.666
2015    5       13     7   7    4.1231   636.7    2.982      60.639
2015    5       13     7  13    4.1206   636.6    2.982      60.613
2015    5       13     7  19    4.1181   636.5    2.981      60.586
2015    5       13     7  25    4.1156   636.4    2.981      60.559
2015    5       13     7  30    4.1131   636.4    2.981      60.532
2015    5       13     7  36    4.1106   636.3    2.981      60.505
2015    5       13     7  42    4.1081   636.2    2.981      60.477
2015    5       13     7  48    4.1056   636.1    2.980      60.449
2015    5       13     7  54    4.1031   636.0    2.980      60.420
2015    5       13     7  59    4.1006   635.9    2.980      60.391
2015    5       13     8   5    4.0981   635.8    2.979      60.361
2015    5       13     8  11    4.0956   635.7    2.979      60.330
2015    5       13     8  17    4.0931   635.6    2.978      60.299
2015    5       13     8  23    4.0906   635.5    2.978      60.267
2015    5       13     8  29    4.0881   635.4    2.977      60.235
2015    5       13     8  34    4.0856   635.3    2.977      60.203
2015    5       13     8  40    4.0832   635.2    2.976      60.170
2015    5       13     8  46    4.0807   635.1    2.976      60.137
2015    5       13     8  52    4.0783   635.1    2.975      60.104
2015    5       13     8  58    4.0759   635.0    2.974      60.071
2015    5       13     9   4    4.0735   634.9    2.974      60.037
2015    5       13     9   9    4.0710   634.8    2.973      60.004
2015    5       13     9  15    4.0687   634.7    2.972      59.970
2015    5       13     9  21    4.0663   634.6    2.972      59.937
2015    5       13     9  27    4.0639   634.5    2.971      59.904
2015    5       13     9  33    4.0615   634.4    2.970      59.871
2015    5       13     9  38    4.0591   634.3    2.970      59.839
2015    5       13     9  44    4.0568   634.2    2.969      59.806
2015    5       13     9  50    4.0544   634.1    2.968      59.774
2015    5       13     9  56    4.0520   634.0    2.967      59.740
2015    5       13    10   2    4.0496   633.9    2.966      59.706
2015    5       13    10   8    4.0473   633.8    2.965      59.672
2015    5       13    10  13    4.0449   633.7    2.964      59.637
2015    5       13    10  19    4.0425   633.6    2.963      59.602
2015    5       13    10  25    4.0401   633.5    2.961      59.566
2015    5       13    10  31    4.0377   633.4    2.960      59.529
2015    5       13    10  37    4.0354   633.3    2.959      59.491
2015    5       13    10  42    4.0330   633.2    2.958      59.453
2015    5       13    10  48    4.0306   633.0    2.956      59.415
2015    5       13    10  54    4.0283   632.9    2.955      59.375
2015    5       13    11   0    4.0259   632.8    2.954      59.335
2015    5       13    11   6    4.0236   632.7    2.952      59.295
2015    5       13    11  12    4.0212   632.6    2.951      59.254
2015    5       13    11  17    4.0189   632.5    2.949      59.212
2015    5       13    11  23    4.0166   632.4    2.948      59.170
2015    5       13    11  29    4.0142   632.3    2.946      59.127
2015    5       13    11  35    4.0119   632.2    2.945      59.084
2015    5       13    11  41    4.0096   632.1    2.943      59.040
2015    5       13    11  46    4.0073   631.9    2.941      58.996
2015    5       13    11  52    4.0050   631.8    2.940      58.951
2015    5       13    11  58    4.0027   631.7    2.938      58.906
2015    5       13    12   4    4.0003   631.6    2.936      58.860
2015    5       13    12  10    3.9980   631.5    2.935      58.814
2015    5       13    12  16    3.9957   631.4    2.933      58.768
2015    5       13    12  21    3.9934   631.2    2.931      58.721
2015    5       13    12  27    3.9911   631.1    2.930      58.674
2015    5       13    12  33    3.9888   631.0    2.928      58.627
2015    5       13    12  39    3.9866   630.9    2.926      58.580
2015    5       13    12  45    3.9843   630.7    2.925      58.533
2015    5       13    12  50    3.9820   630.6    2.923      58.487
2015    5       13    12  56    3.9798   630.5    2.922      58.440
2015    5       13    13   2    3.9775   630.4    2.920      58.395
2015    5       13    13   8    3.9753   630.2    2.919      58.349
2015    5       13    13  14    3.9731   630.1    2.918      58.304
2015    5       13    13  20    3.9709   630.0    2.917      58.261
2015    5       13    13  25    3.9688   629.8    2.916      58.218
2015    5       13    13  31    3.9666   629.7    2.915      58.176
2015    5       13    13  37    3.9645   629.6    2.914      58.135
2015    5       13    13  43    3.9624   629.4    2.913      58.095
2015    5       13    13  49    3.9603   629.3    2.912      58.056
2015    5       13    13  54    3.9582   629.2    2.912      58.018
2015    5       13    14   0    3.9561   629.0    2.911      57.982
2015    5       13    14   6    3.9541   628.9    2.911      57.946
2015    5       13    14  12    3.9520   628.8    2.910      57.911
2015    5       13    14  18    3.9499   628.7    2.910      57.877
2015    5       13    14  24    3.9479   628.5    2.910      57.844
2015    5       13    14  29    3.9458   628.4    2.910      57.811
2015    5       13    14  35    3.9437   628.3    2.910      57.778
2015    5       13    14  41    3.9416   628.1    2.910      57.745
2015    5       13    14  47    3.9395   628.0    2.909      57.713
2015    5       13    14  53    3.9373   627.9    2.909      57.681
2015    5       13    14  59    3.9352   627.8    2.909      57.648
2015    5       13    15   4    3.9330   627.6    2.909      57.615
2015    5       13    15  10    3.9309   627.5    2.909      57.582
2015    5       13    15  16    3.9287   627.3    2.909      57.548
2015    5       13    15  22    3.9265   627.2    2.909      57.513
2015    5       13    15  28    3.9243   627.1    2.909      57.478
2015    5       13    15  33    3.9221   626.9    2.908      57.442
2015    5       13    15  39    3.9199   626.8    2.908      57.406
2015    5       13    15  45    3.9177   626.6    2.908      57.369
2015    5       13    15  51    3.9154   626.5    2.907      57.332
2015    5       13    15  57    3.9132   626.3    2.907      57.294
2015    5       13    16   3    3.9110   626.2    2.907      57.256
2015    5       13    16   8    3.9088   626.0    2.906      57.217
2015    5       13    16  14    3.9066   625.9    2.906      57.178
2015    5       13    16  20    3.9044   625.7    2.906      57.139
2015    5       13    16  26    3.9022   625.6    2.905      57.100
2015    5       13    16  32    3.9000   625.4    2.905      57.061
2015    5       13    16  37    3.8978   625.3    2.905      57.022
2015    5       13    16  43    3.8956   625.1    2.905      56.983
2015    5       13    16  49    3.8935   625.0    2.904      56.944
2015    5       13    16  55    3.8913   624.8    2.904      56.905
2015    5       13    17   1    3.8892   624.6    2.904      56.866
2015    5       13    17   7    3.8871   624.5    2.904      56.827
2015    5       13    17  12    3.8850   624.3    2.904      56.789
2015    5       13    17  18    3.8829   624.2    2.904      56.751
2015    5       13    17  24    3.8808   624.0    2.904      56.713
2015    5       13    17  30    3.8788   623.8    2.904      56.676
2015    5       13    17  36    3.8767   623.7    2.904      56.638
2015    5       13    17  41    3.8747   623.5    2.904      56.601
2015    5       13    17  47    3.8727   623.4    2.904      56.564
2015    5       13    17  53    3.8708   623.2    2.904      56.528
2015    5       13    17  59    3.8688   623.0    2.904      56.491
2015    5       13    18   5    3.8669   622.9    2.904      56.455
2015    5       13    18  11    3.8650   622.7    2.905      56.419
2015    5       13    18  16    3.8631   622.5    2.905      56.384
2015    5       13    18  22    3.8612   622.4    2.905      56.349
2015    5       13    18  28    3.8594   622.2    2.905      56.314
2015    5       13    18  34    3.8575   622.1    2.905      56.279
2015    5       13    18  40    3.8556   621.9    2.905      56.243
2015    5       13    18  45    3.8538   621.8    2.905      56.207
2015    5       13    18  51    3.8519   621.6    2.905      56.171
2015    5       13    18  57    3.8501   621.4    2.905      56.133
2015    5       13    19   3    3.8482   621.3    2.904      56.096
2015    5       13    19   9    3.8464   621.1    2.904      56.057
2015    5       13    19  15    3.8445   621.0    2.904      56.018
2015    5       13    19  20    3.8426   620.8    2.903      55.979
2015    5       13    19  26    3.8408   620.7    2.903      55.939
2015    5       13    19  32    3.8389   620.5    2.903      55.898
2015    5       13    19  38    3.8370   620.3    2.902      55.857
2015    5       13    19  44    3.8352   620.2    2.902      55.815
2015    5       13    19  50    3.8333   620.0    2.901      55.773
2015    5       13    19  55    3.8314   619.9    2.901      55.731
2015    5       13    20   1    3.8295   619.7    2.900      55.688
2015    5       13    20   7    3.8277   619.6    2.899      55.645
2015    5       13    20  13    3.8258   619.4    2.899      55.601
2015    5       13    20  19    3.8239   619.2    2.898      55.558
2015    5       13    20  24    3.8220   619.1    2.897      55.514
2015    5       13    20  30    3.8202   618.9    2.897      55.470
2015    5       13    20  36    3.8183   618.8    2.896      55.425
2015    5       13    20  42    3.8164   618.6    2.895      55.381
2015    5       13    20  48    3.8145   618.4    2.895      55.337
2015    5       13    20  54    3.8127   618.3    2.894      55.292
2015    5       13    20  59    3.8108   618.1    2.893      55.248
2015    5       13    21   5    3.8089   617.9    2.893      55.203
2015    5       13    21  11    3.8070   617.8    2.892      55.158
2015    5       13    21  17    3.8052   617.6    2.891      55.114
2015    5       13    21  23    3.8033   617.4    2.891      55.069
2015    5       13    21  28    3.8014   617.3    2.890      55.024
2015    5       13    21  34    3.7995   617.1    2.889      54.979
2015    5       13    21  40    3.7976   617.0    2.888      54.934
2015    5       13    21  46    3.7957   616.8    2.888      54.888
2015    5       13    21  52    3.7938   616.6    2.887      54.843
2015    5       13    21  58    3.7919   616.5    2.886      54.797
2015    5       13    22   3    3.7899   616.3    2.886      54.751
2015    5       13    22   9    3.7880   616.1    2.885      54.704
2015    5       13    22  15    3.7860   616.0    2.884      54.657
2015    5       13    22  21    3.7841   615.8    2.883      54.609
2015    5       13    22  27    3.7822   615.6    2.883      54.562
2015    5       13    22  32    3.7802   615.4    2.882      54.514
2015    5       13    22  38    3.7782   615.3    2.881      54.465
2015    5       13    22  44    3.7763   615.1    2.880      54.416
2015    5       13    22  50    3.7743   614.9    2.880      54.367
2015    5       13    22  56    3.7724   614.7    2.879      54.318
2015    5       13    23   2    3.7704   614.5    2.878      54.268
2015    5       13    23   7    3.7684   614.4    2.877      54.218
2015    5       13    23  13    3.7665   614.2    2.876      54.167
2015    5       13    23  19    3.7645   614.0    2.875      54.117
2015    5       13    23  25    3.7626   613.8    2.875      54.067
2015    5       13    23  31    3.7606   613.6    2.874      54.016
2015    5       13    23  36    3.7587   613.4    2.873      53.966
2015    5       13    23  42    3.7568   613.3    2.873      53.915
2015    5       13    23  48    3.7548   613.1    2.872      53.865
2015    5       13    23  54    3.7529   612.9    2.871      53.815
2015    5       14     0   0    3.7511   612.7    2.871      53.765
2015    5       14     0   6    3.7492   612.5    2.870      53.716
2015    5       14     0  11    3.7473   612.3    2.870      53.668
2015    5       14     0  17    3.7455   612.1    2.870      53.620
2015    5       14     0  23    3.7436   611.9    2.869      53.572
2015    5       14     0  29    3.7418   611.7    2.869      53.526
2015    5       14     0  35    3.7400   611.5    2.869      53.480
2015    5       14     0  40    3.7383   611.3    2.869      53.435
2015    5       14     0  46    3.7365   611.1    2.869      53.392
2015    5       14     0  52    3.7348   610.9    2.870      53.349
2015    5       14     0  58    3.7331   610.7    2.870      53.307
2015    5       14     1   4    3.7314   610.5    2.870      53.267
2015    5       14     1  10    3.7298   610.3    2.871      53.227
2015    5       14     1  15    3.7281   610.1    2.872      53.188
2015    5       14     1  21    3.7265   609.9    2.872      53.151
2015    5       14     1  27    3.7249   609.6    2.873      53.114
2015    5       14     1  33    3.7234   609.4    2.874      53.079
2015    5       14     1  39    3.7218   609.2    2.875      53.045
2015    5       14     1  44    3.7203   609.0    2.876      53.012
2015    5       14     1  50    3.7188   608.9    2.877      52.980
2015    5       14     1  56    3.7173   608.7    2.878      52.949
2015    5       14     2   2    3.7158   608.5    2.879      52.917
2015    5       14     2   8    3.7143   608.3    2.880      52.886
2015    5       14     2  14    3.7128   608.1    2.881      52.855
2015    5       14     2  19    3.7113   607.9    2.882      52.824
2015    5       14     2  25    3.7098   607.7    2.883      52.793
2015    5       14     2  31    3.7083   607.5    2.884      52.761
2015    5       14     2  37    3.7068   607.3    2.885      52.730
2015    5       14     2  43    3.7052   607.1    2.886      52.698
2015    5       14     2  49    3.7037   606.9    2.887      52.665
2015    5       14     2  54    3.7022   606.7    2.888      52.633
2015    5       14     3   0    3.7006   606.5    2.889      52.600
2015    5       14     3   6    3.6991   606.3    2.890      52.566
2015    5       14     3  12    3.6975   606.1    2.891      52.533
2015    5       14     3  18    3.6959   605.9    2.892      52.499
2015    5       14     3  23    3.6943   605.8    2.892      52.464
2015    5       14     3  29    3.6927   605.6    2.893      52.430
2015    5       14     3  35    3.6911   605.4    2.894      52.395
2015    5       14     3  41    3.6895   605.2    2.894      52.359
2015    5       14     3  47    3.6878   605.0    2.895      52.324
2015    5       14     3  53    3.6862   604.8    2.895      52.288
2015    5       14     3  58    3.6846   604.6    2.896      52.251
2015    5       14     4   4    3.6829   604.4    2.896      52.214
2015    5       14     4  10    3.6813   604.2    2.896      52.177
2015    5       14     4  16    3.6796   604.0    2.897      52.140
2015    5       14     4  22    3.6780   603.9    2.897      52.102
2015    5       14     4  27    3.6763   603.7    2.897      52.063
2015    5       14     4  33    3.6747   603.5    2.898      52.025
2015    5       14     4  39    3.6730   603.3    2.898      51.986
2015    5       14     4  45    3.6713   603.1    2.898      51.947
2015    5       14     4  51    3.6697   602.9    2.898      51.907
2015    5       14     4  57    3.6680   602.7    2.898      51.867
2015    5       14     5   2    3.6663   602.5    2.898      51.827
2015    5       14     5   8    3.6646   602.3    2.899      51.787
2015    5       14     5  14    3.6629   602.2    2.899      51.747
2015    5       14     5  20    3.6612   602.0    2.899      51.706
2015    5       14     5  26    3.6596   601.8    2.899      51.666
2015    5       14     5  31    3.6579   601.6    2.899      51.625
2015    5       14     5  37    3.6561   601.4    2.899      51.583
2015    5       14     5  43    3.6544   601.2    2.899      51.542
2015    5       14     5  49    3.6527   601.0    2.899      51.500
2015    5       14     5  55    3.6510   600.8    2.899      51.459
2015    5       14     6   1    3.6492   600.7    2.899      51.416
2015    5       14     6   6    3.6475   600.5    2.899      51.374
2015    5       14     6  12    3.6458   600.3    2.899      51.332
2015    5       14     6  18    3.6440   600.1    2.899      51.289
2015    5       14     6  24    3.6423   599.9    2.898      51.246
2015    5       14     6  30    3.6406   599.7    2.898      51.203
2015    5       14     6  35    3.6388   599.5    2.898      51.159
2015    5       14     6  41    3.6371   599.3    2.898      51.115
2015    5       14     6  47    3.6354   599.1    2.897      51.071
2015    5       14     6  53    3.6336   598.9    2.897      51.026
2015    5       14     6  59    3.6319   598.7    2.896      50.981
2015    5       14     7   5    3.6302   598.5    2.896      50.936
2015    5       14     7  10    3.6285   598.3    2.895      50.891
2015    5       14     7  16    3.6268   598.1    2.895      50.845
2015    5       14     7  22    3.6251   597.9    2.895      50.799
2015    5       14     7  28    3.6234   597.7    2.894      50.752
2015    5       14     7  34    3.6218   597.5    2.894      50.706
2015    5       14     7  39    3.6201   597.3    2.893      50.660
2015    5       14     7  45    3.6185   597.0    2.893      50.613
2015    5       14     7  51    3.6168   596.8    2.892      50.567
2015    5       14     7  57    3.6152   596.6    2.892      50.520
2015    5       14     8   3    3.6136   596.4    2.892      50.474
2015    5       14     8   9    3.6120   596.2    2.891      50.428
2015    5       14     8  14    3.6104   596.0    2.891      50.383
2015    5       14     8  20    3.6089   595.8    2.891      50.337
2015    5       14     8  26    3.6073   595.5    2.891      50.292
2015    5       14     8  32    3.6058   595.3    2.890      50.248
2015    5       14     8  38    3.6043   595.1    2.890      50.203
2015    5       14     8  43    3.6028   594.9    2.890      50.160
2015    5       14     8  49    3.6013   594.7    2.890      50.116
2015    5       14     8  55    3.5999   594.4    2.891      50.073
2015    5       14     9   1    3.5984   594.2    2.891      50.031
2015    5       14     9   7    3.5970   594.0    2.891      49.989
2015    5       14     9  13    3.5956   593.8    2.891      49.947
2015    5       14     9  18    3.5942   593.5    2.892      49.906
2015    5       14     9  24    3.5928   593.3    2.892      49.864
2015    5       14     9  30    3.5913   593.1    2.892      49.824
2015    5       14     9  36    3.5900   592.9    2.893      49.783
2015    5       14     9  42    3.5886   592.6    2.893      49.743
2015    5       14     9  48    3.5872   592.4    2.894      49.703
2015    5       14     9  53    3.5858   592.2    2.894      49.663
2015    5       14     9  59    3.5844   591.9    2.895      49.623
2015    5       14    10   5    3.5831   591.7    2.896      49.584
2015    5       14    10  11    3.5817   591.5    2.896      49.545
2015    5       14    10  17    3.5804   591.2    2.897      49.506
2015    5       14    10  22    3.5790   591.0    2.898      49.467
2015    5       14    10  28    3.5777   590.8    2.899      49.429
2015    5       14    10  34    3.5763   590.5    2.900      49.391
2015    5       14    10  40    3.5750   590.3    2.901      49.354
2015    5       14    10  46    3.5737   590.1    2.902      49.317
2015    5       14    10  52    3.5724   589.8    2.903      49.281
2015    5       14    10  57    3.5711   589.6    2.904      49.245
2015    5       14    11   3    3.5698   589.4    2.905      49.209
2015    5       14    11   9    3.5685   589.1    2.906      49.173
2015    5       14    11  15    3.5673   588.9    2.907      49.138
2015    5       14    11  21    3.5660   588.7    2.908      49.103
2015    5       14    11  26    3.5647   588.4    2.909      49.069
2015    5       14    11  32    3.5635   588.2    2.911      49.034
2015    5       14    11  38    3.5623   588.0    2.912      49.000
2015    5       14    11  44    3.5610   587.8    2.913      48.965
2015    5       14    11  50    3.5598   587.5    2.914      48.931
2015    5       14    11  56    3.5585   587.3    2.916      48.896
2015    5       14    12   1    3.5573   587.1    2.917      48.862
2015    5       14    12   7    3.5561   586.8    2.918      48.827
2015    5       14    12  13    3.5548   586.6    2.920      48.793
2015    5       14    12  19    3.5535   586.4    2.921      48.758
2015    5       14    12  25    3.5523   586.1    2.922      48.723
2015    5       14    12  30    3.5510   585.9    2.923      48.689
2015    5       14    12  36    3.5497   585.7    2.925      48.654
2015    5       14    12  42    3.5484   585.5    2.926      48.619
2015    5       14    12  48    3.5472   585.2    2.927      48.584
2015    5       14    12  54    3.5459   585.0    2.929      48.550
2015    5       14    13   0    3.5445   584.8    2.930      48.515
2015    5       14    13   5    3.5432   584.5    2.931      48.480
2015    5       14    13  11    3.5419   584.3    2.932      48.445
2015    5       14    13  17    3.5406   584.1    2.934      48.411
2015    5       14    13  23    3.5393   583.9    2.935      48.377
2015    5       14    13  29    3.5380   583.6    2.936      48.342
2015    5       14    13  34    3.5366   583.4    2.937      48.309
2015    5       14    13  40    3.5354   583.2    2.938      48.275
2015    5       14    13  46    3.5341   582.9    2.940      48.242
2015    5       14    13  52    3.5328   582.7    2.941      48.209
2015    5       14    13  58    3.5315   582.5    2.942      48.176
2015    5       14    14   4    3.5303   582.2    2.943      48.144
2015    5       14    14   9    3.5291   582.0    2.945      48.113
2015    5       14    14  15    3.5278   581.8    2.946      48.081
2015    5       14    14  21    3.5267   581.5    2.947      48.051
2015    5       14    14  27    3.5255   581.3    2.949      48.020
2015    5       14    14  33    3.5243   581.1    2.950      47.990
2015    5       14    14  38    3.5231   580.9    2.951      47.960
2015    5       14    14  44    3.5220   580.6    2.953      47.930
2015    5       14    14  50    3.5208   580.4    2.954      47.900
2015    5       14    14  56    3.5196   580.2    2.955      47.870
2015    5       14    15   2    3.5184   579.9    2.957      47.841
2015    5       14    15   8    3.5172   579.7    2.958      47.810
2015    5       14    15  13    3.5160   579.5    2.959      47.780
2015    5       14    15  19    3.5149   579.3    2.960      47.750
2015    5       14    15  25    3.5136   579.0    2.962      47.719
2015    5       14    15  31    3.5124   578.8    2.963      47.688
2015    5       14    15  37    3.5112   578.6    2.964      47.656
2015    5       14    15  42    3.5100   578.3    2.965      47.624
2015    5       14    15  48    3.5088   578.1    2.966      47.592
2015    5       14    15  54    3.5076   577.9    2.967      47.559
2015    5       14    16   0    3.5064   577.6    2.968      47.525
2015    5       14    16   6    3.5052   577.4    2.969      47.492
2015    5       14    16  12    3.5040   577.1    2.970      47.457
2015    5       14    16  17    3.5028   576.9    2.971      47.422
2015    5       14    16  23    3.5017   576.7    2.971      47.387
2015    5       14    16  29    3.5005   576.4    2.972      47.352
2015    5       14    16  35    3.4993   576.2    2.973      47.316
2015    5       14    16  41    3.4981   575.9    2.974      47.279
2015    5       14    16  47    3.4970   575.7    2.974      47.243
2015    5       14    16  52    3.4958   575.5    2.975      47.206
2015    5       14    16  58    3.4947   575.2    2.976      47.168
2015    5       14    17   4    3.4936   575.0    2.977      47.130
2015    5       14    17  10    3.4924   574.7    2.977      47.093
2015    5       14    17  16    3.4913   574.5    2.978      47.055
2015    5       14    17  21    3.4902   574.2    2.979      47.017
2015    5       14    17  27    3.4892   574.0    2.980      46.979
2015    5       14    17  33    3.4881   573.7    2.981      46.941
2015    5       14    17  39    3.4870   573.5    2.982      46.903
2015    5       14    17  45    3.4860   573.2    2.983      46.865
2015    5       14    17  51    3.4850   573.0    2.984      46.827
2015    5       14    17  56    3.4840   572.7    2.985      46.790
2015    5       14    18   2    3.4830   572.5    2.986      46.752
2015    5       14    18   8    3.4820   572.2    2.987      46.715
2015    5       14    18  14    3.4811   572.0    2.988      46.678
2015    5       14    18  20    3.4802   571.8    2.989      46.641
2015    5       14    18  25    3.4792   571.5    2.991      46.605
2015    5       14    18  31    3.4783   571.3    2.992      46.568
2015    5       14    18  37    3.4774   571.0    2.993      46.531
2015    5       14    18  43    3.4765   570.8    2.995      46.495
2015    5       14    18  49    3.4756   570.5    2.996      46.458
2015    5       14    18  55    3.4748   570.3    2.998      46.422
2015    5       14    19   0    3.4739   570.0    2.999      46.386
2015    5       14    19   6    3.4731   569.8    3.001      46.349
2015    5       14    19  12    3.4722   569.5    3.003      46.313
2015    5       14    19  18    3.4714   569.3    3.004      46.276
2015    5       14    19  24    3.4705   569.0    3.006      46.239
2015    5       14    19  29    3.4697   568.8    3.008      46.203
2015    5       14    19  35    3.4688   568.5    3.009      46.166
2015    5       14    19  41    3.4680   568.2    3.011      46.129
2015    5       14    19  47    3.4672   568.0    3.013      46.093
2015    5       14    19  53    3.4664   567.7    3.014      46.056
2015    5       14    19  59    3.4656   567.5    3.016      46.019
2015    5       14    20   4    3.4648   567.2    3.018      45.982
2015    5       14    20  10    3.4640   567.0    3.020      45.946
2015    5       14    20  16    3.4632   566.7    3.022      45.909
2015    5       14    20  22    3.4624   566.4    3.023      45.873
2015    5       14    20  28    3.4616   566.2    3.025      45.836
2015    5       14    20  33    3.4609   565.9    3.027      45.800
2015    5       14    20  39    3.4601   565.7    3.029      45.764
2015    5       14    20  45    3.4594   565.4    3.031      45.729
2015    5       14    20  51    3.4587   565.1    3.033      45.694
2015    5       14    20  57    3.4580   564.9    3.035      45.659
2015    5       14    21   3    3.4573   564.6    3.037      45.625
2015    5       14    21   8    3.4566   564.4    3.039      45.591
2015    5       14    21  14    3.4559   564.1    3.041      45.558
2015    5       14    21  20    3.4553   563.9    3.044      45.525
2015    5       14    21  26    3.4546   563.6    3.046      45.493
2015    5       14    21  32    3.4540   563.3    3.048      45.461
2015    5       14    21  37    3.4534   563.1    3.050      45.430
2015    5       14    21  43    3.4528   562.8    3.053      45.399
2015    5       14    21  49    3.4522   562.6    3.055      45.368
2015    5       14    21  55    3.4516   562.3    3.058      45.339
2015    5       14    22   1    3.4510   562.1    3.060      45.309
2015    5       14    22   7    3.4504   561.8    3.063      45.280
2015    5       14    22  12    3.4498   561.6    3.065      45.250
2015    5       14    22  18    3.4492   561.3    3.068      45.221
2015    5       14    22  24    3.4486   561.1    3.070      45.193
2015    5       14    22  30    3.4480   560.9    3.073      45.164
2015    5       14    22  36    3.4473   560.6    3.075      45.135
2015    5       14    22  41    3.4467   560.4    3.078      45.106
2015    5       14    22  47    3.4461   560.1    3.080      45.078
2015    5       14    22  53    3.4455   559.9    3.083      45.049
2015    5       14    22  59    3.4449   559.6    3.085      45.020
2015    5       14    23   5    3.4442   559.3    3.088      44.992
2015    5       14    23  11    3.4436   559.1    3.090      44.963
2015    5       14    23  16    3.4430   558.8    3.093      44.934
2015    5       14    23  22    3.4425   558.6    3.095      44.905
2015    5       14    23  28    3.4419   558.3    3.098      44.877
2015    5       14    23  34    3.4413   558.1    3.100      44.848
2015    5       14    23  40    3.4408   557.8    3.103      44.819
2015    5       14    23  46    3.4403   557.6    3.105      44.791
2015    5       14    23  51    3.4398   557.4    3.108      44.762
2015    5       14    23  57    3.4392   557.1    3.110      44.733
2015    5       15     0   3    3.4387   556.9    3.113      44.705
