year    month   day   hour  minute  B_enl V_enl   n_enl       T_enl
[year] [month] [day] [hour][minute] [nT]  [km/s]  [cm-3]      [kK]
2015    5        2     0   2    5.0794   519.4    4.693      50.699
2015    5        2     0   8    5.0774   519.4    4.692      50.692
2015    5        2     0  14    5.0755   519.4    4.690      50.685
2015    5        2     0  19    5.0736   519.4    4.689      50.679
2015    5        2     0  25    5.0717   519.5    4.687      50.672
2015    5        2     0  31    5.0697   519.5    4.685      50.666
2015    5        2     0  36    5.0678   519.5    4.684      50.660
2015    5        2     0  42    5.0659   519.5    4.683      50.654
2015    5        2     0  48    5.0640   519.5    4.681      50.649
2015    5        2     0  53    5.0620   519.6    4.680      50.643
2015    5        2     0  59    5.0601   519.6    4.678      50.638
2015    5        2     1   5    5.0582   519.6    4.677      50.633
2015    5        2     1  11    5.0563   519.6    4.675      50.629
2015    5        2     1  16    5.0544   519.6    4.674      50.625
2015    5        2     1  22    5.0525   519.6    4.672      50.620
2015    5        2     1  28    5.0506   519.7    4.671      50.617
2015    5        2     1  33    5.0487   519.7    4.670      50.613
2015    5        2     1  39    5.0468   519.7    4.668      50.609
2015    5        2     1  45    5.0450   519.7    4.667      50.606
2015    5        2     1  50    5.0431   519.7    4.665      50.603
2015    5        2     1  56    5.0413   519.7    4.664      50.600
2015    5        2     2   2    5.0394   519.8    4.662      50.597
2015    5        2     2   7    5.0376   519.8    4.661      50.594
2015    5        2     2  13    5.0358   519.8    4.659      50.591
2015    5        2     2  19    5.0340   519.8    4.658      50.588
2015    5        2     2  25    5.0322   519.8    4.656      50.584
2015    5        2     2  30    5.0304   519.8    4.655      50.581
2015    5        2     2  36    5.0286   519.9    4.653      50.577
2015    5        2     2  42    5.0269   519.9    4.652      50.573
2015    5        2     2  47    5.0251   519.9    4.650      50.569
2015    5        2     2  53    5.0234   519.9    4.648      50.565
2015    5        2     2  59    5.0216   519.9    4.647      50.560
2015    5        2     3   4    5.0199   519.9    4.645      50.556
2015    5        2     3  10    5.0181   519.9    4.643      50.551
2015    5        2     3  16    5.0164   520.0    4.642      50.546
2015    5        2     3  21    5.0147   520.0    4.640      50.541
2015    5        2     3  27    5.0130   520.0    4.638      50.536
2015    5        2     3  33    5.0112   520.0    4.636      50.531
2015    5        2     3  39    5.0095   520.0    4.634      50.525
2015    5        2     3  44    5.0078   520.0    4.632      50.519
2015    5        2     3  50    5.0061   520.0    4.630      50.513
2015    5        2     3  56    5.0043   520.1    4.628      50.506
2015    5        2     4   1    5.0026   520.1    4.627      50.499
2015    5        2     4   7    5.0009   520.1    4.625      50.491
2015    5        2     4  13    4.9992   520.1    4.623      50.484
2015    5        2     4  18    4.9974   520.1    4.621      50.476
2015    5        2     4  24    4.9957   520.1    4.619      50.467
2015    5        2     4  30    4.9939   520.1    4.617      50.459
2015    5        2     4  35    4.9922   520.1    4.615      50.450
2015    5        2     4  41    4.9904   520.1    4.613      50.441
2015    5        2     4  47    4.9887   520.2    4.611      50.431
2015    5        2     4  53    4.9869   520.2    4.609      50.421
2015    5        2     4  58    4.9851   520.2    4.607      50.411
2015    5        2     5   4    4.9834   520.2    4.605      50.401
2015    5        2     5  10    4.9816   520.2    4.603      50.391
2015    5        2     5  15    4.9798   520.2    4.601      50.380
2015    5        2     5  21    4.9780   520.2    4.599      50.370
2015    5        2     5  27    4.9762   520.2    4.597      50.359
2015    5        2     5  32    4.9744   520.2    4.595      50.348
2015    5        2     5  38    4.9726   520.2    4.593      50.337
2015    5        2     5  44    4.9708   520.3    4.591      50.327
2015    5        2     5  49    4.9690   520.3    4.589      50.315
2015    5        2     5  55    4.9672   520.3    4.588      50.304
2015    5        2     6   1    4.9654   520.3    4.586      50.293
2015    5        2     6   7    4.9636   520.3    4.584      50.282
2015    5        2     6  12    4.9618   520.3    4.582      50.271
2015    5        2     6  18    4.9600   520.3    4.581      50.260
2015    5        2     6  24    4.9581   520.3    4.579      50.249
2015    5        2     6  29    4.9563   520.3    4.577      50.239
2015    5        2     6  35    4.9545   520.3    4.576      50.228
2015    5        2     6  41    4.9527   520.3    4.574      50.218
2015    5        2     6  46    4.9508   520.3    4.573      50.207
2015    5        2     6  52    4.9490   520.3    4.571      50.197
2015    5        2     6  58    4.9472   520.3    4.570      50.187
2015    5        2     7   3    4.9454   520.3    4.568      50.177
2015    5        2     7   9    4.9435   520.3    4.567      50.167
2015    5        2     7  15    4.9417   520.3    4.566      50.157
2015    5        2     7  21    4.9399   520.4    4.564      50.148
2015    5        2     7  26    4.9381   520.4    4.563      50.139
2015    5        2     7  32    4.9362   520.4    4.562      50.130
2015    5        2     7  38    4.9344   520.4    4.560      50.121
2015    5        2     7  43    4.9326   520.4    4.559      50.113
2015    5        2     7  49    4.9308   520.4    4.558      50.104
2015    5        2     7  55    4.9290   520.4    4.557      50.096
2015    5        2     8   0    4.9272   520.4    4.555      50.088
2015    5        2     8   6    4.9254   520.4    4.554      50.080
2015    5        2     8  12    4.9236   520.4    4.553      50.073
2015    5        2     8  18    4.9218   520.4    4.552      50.065
2015    5        2     8  23    4.9200   520.4    4.551      50.058
2015    5        2     8  29    4.9182   520.4    4.550      50.050
2015    5        2     8  35    4.9164   520.4    4.548      50.043
2015    5        2     8  40    4.9146   520.4    4.547      50.036
2015    5        2     8  46    4.9129   520.4    4.546      50.029
2015    5        2     8  52    4.9111   520.4    4.545      50.022
2015    5        2     8  57    4.9093   520.4    4.544      50.015
2015    5        2     9   3    4.9076   520.4    4.543      50.008
2015    5        2     9   9    4.9058   520.4    4.542      50.002
2015    5        2     9  14    4.9040   520.4    4.540      49.995
2015    5        2     9  20    4.9023   520.3    4.539      49.987
2015    5        2     9  26    4.9006   520.3    4.538      49.980
2015    5        2     9  32    4.8988   520.3    4.537      49.973
2015    5        2     9  37    4.8971   520.3    4.536      49.966
2015    5        2     9  43    4.8954   520.3    4.534      49.958
2015    5        2     9  49    4.8936   520.3    4.533      49.951
2015    5        2     9  54    4.8919   520.3    4.532      49.943
2015    5        2    10   0    4.8902   520.3    4.530      49.936
2015    5        2    10   6    4.8885   520.3    4.529      49.928
2015    5        2    10  11    4.8868   520.3    4.528      49.920
2015    5        2    10  17    4.8851   520.3    4.526      49.912
2015    5        2    10  23    4.8834   520.3    4.525      49.904
2015    5        2    10  28    4.8817   520.3    4.524      49.895
2015    5        2    10  34    4.8800   520.3    4.522      49.887
2015    5        2    10  40    4.8783   520.3    4.521      49.878
2015    5        2    10  46    4.8766   520.3    4.519      49.869
2015    5        2    10  51    4.8750   520.3    4.518      49.860
2015    5        2    10  57    4.8733   520.3    4.517      49.851
2015    5        2    11   3    4.8716   520.3    4.515      49.842
2015    5        2    11   8    4.8699   520.3    4.514      49.832
2015    5        2    11  14    4.8682   520.3    4.512      49.822
2015    5        2    11  20    4.8665   520.3    4.511      49.812
2015    5        2    11  25    4.8648   520.2    4.510      49.802
2015    5        2    11  31    4.8631   520.2    4.508      49.792
2015    5        2    11  37    4.8614   520.2    4.507      49.782
2015    5        2    11  42    4.8598   520.2    4.505      49.771
2015    5        2    11  48    4.8581   520.2    4.504      49.761
2015    5        2    11  54    4.8564   520.2    4.503      49.750
2015    5        2    12   0    4.8547   520.2    4.501      49.739
2015    5        2    12   5    4.8530   520.2    4.500      49.728
2015    5        2    12  11    4.8513   520.2    4.499      49.717
2015    5        2    12  17    4.8495   520.2    4.497      49.706
2015    5        2    12  22    4.8478   520.2    4.496      49.695
2015    5        2    12  28    4.8461   520.2    4.495      49.684
2015    5        2    12  34    4.8443   520.2    4.493      49.673
2015    5        2    12  39    4.8426   520.1    4.492      49.662
2015    5        2    12  45    4.8408   520.1    4.491      49.651
2015    5        2    12  51    4.8391   520.1    4.489      49.640
2015    5        2    12  56    4.8373   520.1    4.488      49.629
2015    5        2    13   2    4.8356   520.1    4.487      49.618
2015    5        2    13   8    4.8338   520.1    4.485      49.607
2015    5        2    13  14    4.8320   520.1    4.484      49.596
2015    5        2    13  19    4.8303   520.1    4.483      49.585
2015    5        2    13  25    4.8285   520.1    4.481      49.575
2015    5        2    13  31    4.8267   520.1    4.480      49.564
2015    5        2    13  36    4.8249   520.0    4.479      49.553
2015    5        2    13  42    4.8231   520.0    4.477      49.542
2015    5        2    13  48    4.8213   520.0    4.476      49.532
2015    5        2    13  53    4.8195   520.0    4.475      49.521
2015    5        2    13  59    4.8177   520.0    4.474      49.511
2015    5        2    14   5    4.8159   520.0    4.472      49.500
2015    5        2    14  10    4.8142   520.0    4.471      49.489
2015    5        2    14  16    4.8124   520.0    4.470      49.479
2015    5        2    14  22    4.8106   519.9    4.469      49.468
2015    5        2    14  28    4.8088   519.9    4.467      49.458
2015    5        2    14  33    4.8070   519.9    4.466      49.448
2015    5        2    14  39    4.8052   519.9    4.465      49.437
2015    5        2    14  45    4.8034   519.9    4.463      49.427
2015    5        2    14  50    4.8016   519.9    4.462      49.417
2015    5        2    14  56    4.7998   519.9    4.461      49.406
2015    5        2    15   2    4.7980   519.8    4.460      49.396
2015    5        2    15   7    4.7962   519.8    4.458      49.386
2015    5        2    15  13    4.7944   519.8    4.457      49.375
2015    5        2    15  19    4.7926   519.8    4.456      49.365
2015    5        2    15  24    4.7908   519.8    4.455      49.355
2015    5        2    15  30    4.7890   519.8    4.453      49.344
2015    5        2    15  36    4.7872   519.8    4.452      49.333
2015    5        2    15  42    4.7854   519.7    4.451      49.323
2015    5        2    15  47    4.7836   519.7    4.449      49.312
2015    5        2    15  53    4.7818   519.7    4.448      49.301
2015    5        2    15  59    4.7800   519.7    4.447      49.291
2015    5        2    16   4    4.7782   519.7    4.446      49.280
2015    5        2    16  10    4.7765   519.6    4.444      49.269
2015    5        2    16  16    4.7747   519.6    4.443      49.258
2015    5        2    16  21    4.7729   519.6    4.442      49.246
2015    5        2    16  27    4.7711   519.6    4.440      49.235
2015    5        2    16  33    4.7694   519.6    4.439      49.224
2015    5        2    16  38    4.7676   519.5    4.438      49.213
2015    5        2    16  44    4.7659   519.5    4.437      49.202
2015    5        2    16  50    4.7641   519.5    4.435      49.190
2015    5        2    16  56    4.7624   519.5    4.434      49.179
2015    5        2    17   1    4.7607   519.5    4.433      49.167
2015    5        2    17   7    4.7589   519.4    4.432      49.156
2015    5        2    17  13    4.7572   519.4    4.431      49.144
2015    5        2    17  18    4.7555   519.4    4.430      49.132
2015    5        2    17  24    4.7537   519.4    4.428      49.120
2015    5        2    17  30    4.7520   519.4    4.427      49.108
2015    5        2    17  35    4.7503   519.3    4.426      49.096
2015    5        2    17  41    4.7485   519.3    4.425      49.084
2015    5        2    17  47    4.7468   519.3    4.424      49.072
2015    5        2    17  52    4.7450   519.3    4.423      49.060
2015    5        2    17  58    4.7433   519.3    4.422      49.048
2015    5        2    18   4    4.7415   519.2    4.421      49.035
2015    5        2    18  10    4.7397   519.2    4.420      49.023
2015    5        2    18  15    4.7380   519.2    4.419      49.010
2015    5        2    18  21    4.7362   519.2    4.418      48.997
2015    5        2    18  27    4.7344   519.1    4.417      48.985
2015    5        2    18  32    4.7326   519.1    4.416      48.972
2015    5        2    18  38    4.7308   519.1    4.415      48.959
2015    5        2    18  44    4.7290   519.1    4.414      48.946
2015    5        2    18  49    4.7272   519.1    4.413      48.933
2015    5        2    18  55    4.7253   519.0    4.412      48.919
2015    5        2    19   1    4.7235   519.0    4.411      48.906
2015    5        2    19   6    4.7216   519.0    4.410      48.893
2015    5        2    19  12    4.7198   519.0    4.409      48.879
2015    5        2    19  18    4.7179   518.9    4.408      48.866
2015    5        2    19  24    4.7160   518.9    4.407      48.852
2015    5        2    19  29    4.7141   518.9    4.406      48.838
2015    5        2    19  35    4.7122   518.8    4.405      48.824
2015    5        2    19  41    4.7103   518.8    4.404      48.811
2015    5        2    19  46    4.7084   518.8    4.403      48.797
2015    5        2    19  52    4.7064   518.8    4.402      48.783
2015    5        2    19  58    4.7045   518.7    4.400      48.769
2015    5        2    20   3    4.7026   518.7    4.399      48.755
2015    5        2    20   9    4.7007   518.7    4.398      48.742
2015    5        2    20  15    4.6987   518.6    4.397      48.728
2015    5        2    20  20    4.6968   518.6    4.395      48.714
2015    5        2    20  26    4.6948   518.6    4.394      48.700
2015    5        2    20  32    4.6929   518.5    4.393      48.687
2015    5        2    20  38    4.6910   518.5    4.392      48.673
2015    5        2    20  43    4.6891   518.5    4.390      48.659
2015    5        2    20  49    4.6871   518.4    4.389      48.645
2015    5        2    20  55    4.6852   518.4    4.387      48.631
2015    5        2    21   0    4.6833   518.4    4.386      48.617
2015    5        2    21   6    4.6814   518.3    4.385      48.603
2015    5        2    21  12    4.6795   518.3    4.383      48.588
2015    5        2    21  17    4.6776   518.3    4.382      48.574
2015    5        2    21  23    4.6756   518.2    4.380      48.559
2015    5        2    21  29    4.6737   518.2    4.379      48.545
2015    5        2    21  34    4.6718   518.2    4.377      48.530
2015    5        2    21  40    4.6699   518.1    4.376      48.515
2015    5        2    21  46    4.6680   518.1    4.374      48.500
2015    5        2    21  52    4.6661   518.0    4.372      48.485
2015    5        2    21  57    4.6642   518.0    4.371      48.469
2015    5        2    22   3    4.6623   518.0    4.369      48.454
2015    5        2    22   9    4.6604   517.9    4.368      48.438
2015    5        2    22  14    4.6585   517.9    4.366      48.422
2015    5        2    22  20    4.6566   517.8    4.364      48.406
2015    5        2    22  26    4.6547   517.8    4.363      48.389
2015    5        2    22  31    4.6528   517.8    4.361      48.373
2015    5        2    22  37    4.6510   517.7    4.359      48.356
2015    5        2    22  43    4.6491   517.7    4.358      48.339
2015    5        2    22  48    4.6472   517.6    4.356      48.322
2015    5        2    22  54    4.6453   517.6    4.354      48.304
2015    5        2    23   0    4.6435   517.6    4.353      48.286
2015    5        2    23   6    4.6416   517.5    4.351      48.269
2015    5        2    23  11    4.6397   517.5    4.349      48.251
2015    5        2    23  17    4.6379   517.4    4.348      48.233
2015    5        2    23  23    4.6361   517.4    4.346      48.215
2015    5        2    23  28    4.6342   517.3    4.345      48.196
2015    5        2    23  34    4.6324   517.3    4.343      48.178
2015    5        2    23  40    4.6306   517.3    4.342      48.160
2015    5        2    23  45    4.6287   517.2    4.340      48.142
2015    5        2    23  51    4.6269   517.2    4.339      48.123
2015    5        2    23  57    4.6251   517.1    4.338      48.105
2015    5        3     0   2    4.6233   517.1    4.337      48.087
2015    5        3     0   8    4.6215   517.0    4.336      48.069
2015    5        3     0  14    4.6197   517.0    4.334      48.052
2015    5        3     0  20    4.6179   516.9    4.333      48.034
2015    5        3     0  25    4.6161   516.9    4.332      48.016
2015    5        3     0  31    4.6142   516.8    4.331      47.999
2015    5        3     0  37    4.6124   516.8    4.331      47.982
2015    5        3     0  42    4.6106   516.7    4.330      47.965
2015    5        3     0  48    4.6087   516.7    4.329      47.947
2015    5        3     0  54    4.6069   516.7    4.328      47.931
2015    5        3     0  59    4.6050   516.6    4.328      47.914
2015    5        3     1   5    4.6031   516.6    4.327      47.897
2015    5        3     1  11    4.6013   516.5    4.326      47.880
2015    5        3     1  16    4.5994   516.5    4.326      47.863
2015    5        3     1  22    4.5974   516.4    4.325      47.847
2015    5        3     1  28    4.5955   516.4    4.325      47.830
2015    5        3     1  34    4.5936   516.3    4.324      47.813
2015    5        3     1  39    4.5916   516.3    4.323      47.796
2015    5        3     1  45    4.5897   516.2    4.323      47.779
2015    5        3     1  51    4.5877   516.2    4.322      47.761
2015    5        3     1  56    4.5857   516.1    4.322      47.744
2015    5        3     2   2    4.5837   516.1    4.321      47.726
2015    5        3     2   8    4.5817   516.0    4.320      47.709
2015    5        3     2  13    4.5797   516.0    4.320      47.690
2015    5        3     2  19    4.5777   515.9    4.319      47.672
2015    5        3     2  25    4.5756   515.8    4.318      47.654
2015    5        3     2  30    4.5736   515.8    4.317      47.635
2015    5        3     2  36    4.5716   515.7    4.317      47.616
2015    5        3     2  42    4.5695   515.7    4.316      47.597
2015    5        3     2  48    4.5675   515.6    4.315      47.578
2015    5        3     2  53    4.5655   515.5    4.314      47.559
2015    5        3     2  59    4.5635   515.5    4.313      47.539
2015    5        3     3   5    4.5615   515.4    4.312      47.520
2015    5        3     3  10    4.5595   515.3    4.311      47.500
2015    5        3     3  16    4.5575   515.3    4.310      47.480
2015    5        3     3  22    4.5555   515.2    4.309      47.460
2015    5        3     3  27    4.5535   515.2    4.308      47.440
2015    5        3     3  33    4.5516   515.1    4.307      47.420
2015    5        3     3  39    4.5496   515.0    4.306      47.400
2015    5        3     3  44    4.5477   515.0    4.304      47.380
2015    5        3     3  50    4.5457   514.9    4.303      47.359
2015    5        3     3  56    4.5438   514.8    4.302      47.338
2015    5        3     4   2    4.5419   514.8    4.301      47.318
2015    5        3     4   7    4.5401   514.7    4.300      47.297
2015    5        3     4  13    4.5382   514.6    4.298      47.276
2015    5        3     4  19    4.5363   514.6    4.297      47.254
2015    5        3     4  24    4.5345   514.5    4.296      47.233
2015    5        3     4  30    4.5326   514.4    4.295      47.211
2015    5        3     4  36    4.5308   514.4    4.293      47.189
2015    5        3     4  41    4.5290   514.3    4.292      47.167
2015    5        3     4  47    4.5271   514.2    4.291      47.145
2015    5        3     4  53    4.5253   514.1    4.289      47.122
2015    5        3     4  58    4.5235   514.1    4.288      47.100
2015    5        3     5   4    4.5217   514.0    4.286      47.077
2015    5        3     5  10    4.5199   513.9    4.285      47.054
2015    5        3     5  16    4.5181   513.9    4.284      47.030
2015    5        3     5  21    4.5163   513.8    4.282      47.007
2015    5        3     5  27    4.5145   513.7    4.281      46.983
2015    5        3     5  33    4.5127   513.7    4.279      46.959
2015    5        3     5  38    4.5110   513.6    4.278      46.935
2015    5        3     5  44    4.5092   513.5    4.277      46.911
2015    5        3     5  50    4.5074   513.4    4.275      46.886
2015    5        3     5  55    4.5056   513.4    4.274      46.862
2015    5        3     6   1    4.5038   513.3    4.273      46.837
2015    5        3     6   7    4.5021   513.2    4.271      46.812
2015    5        3     6  12    4.5003   513.1    4.270      46.788
2015    5        3     6  18    4.4985   513.1    4.269      46.763
2015    5        3     6  24    4.4967   513.0    4.267      46.738
2015    5        3     6  30    4.4950   512.9    4.266      46.713
2015    5        3     6  35    4.4932   512.8    4.265      46.689
2015    5        3     6  41    4.4915   512.8    4.264      46.664
2015    5        3     6  47    4.4897   512.7    4.263      46.640
2015    5        3     6  52    4.4879   512.6    4.262      46.616
2015    5        3     6  58    4.4862   512.5    4.261      46.592
2015    5        3     7   4    4.4844   512.5    4.260      46.568
2015    5        3     7   9    4.4827   512.4    4.259      46.545
2015    5        3     7  15    4.4809   512.3    4.258      46.522
2015    5        3     7  21    4.4791   512.2    4.257      46.499
2015    5        3     7  26    4.4774   512.1    4.257      46.476
2015    5        3     7  32    4.4756   512.1    4.256      46.454
2015    5        3     7  38    4.4738   512.0    4.255      46.432
2015    5        3     7  44    4.4720   511.9    4.255      46.411
2015    5        3     7  49    4.4702   511.8    4.254      46.389
2015    5        3     7  55    4.4684   511.8    4.254      46.368
2015    5        3     8   1    4.4666   511.7    4.253      46.347
2015    5        3     8   6    4.4648   511.6    4.253      46.327
2015    5        3     8  12    4.4630   511.5    4.253      46.306
2015    5        3     8  18    4.4611   511.5    4.252      46.285
2015    5        3     8  23    4.4593   511.4    4.252      46.264
2015    5        3     8  29    4.4574   511.3    4.251      46.244
2015    5        3     8  35    4.4556   511.2    4.251      46.222
2015    5        3     8  40    4.4537   511.1    4.251      46.201
2015    5        3     8  46    4.4518   511.1    4.250      46.180
2015    5        3     8  52    4.4499   511.0    4.250      46.159
2015    5        3     8  58    4.4480   510.9    4.249      46.137
2015    5        3     9   3    4.4461   510.8    4.249      46.115
2015    5        3     9   9    4.4442   510.7    4.248      46.093
2015    5        3     9  15    4.4423   510.6    4.248      46.071
2015    5        3     9  20    4.4404   510.6    4.247      46.048
2015    5        3     9  26    4.4385   510.5    4.246      46.025
2015    5        3     9  32    4.4366   510.4    4.246      46.002
2015    5        3     9  37    4.4347   510.3    4.245      45.979
2015    5        3     9  43    4.4328   510.2    4.244      45.955
2015    5        3     9  49    4.4309   510.1    4.244      45.931
2015    5        3     9  54    4.4290   510.0    4.243      45.907
2015    5        3    10   0    4.4271   509.9    4.242      45.882
2015    5        3    10   6    4.4253   509.8    4.242      45.857
2015    5        3    10  12    4.4234   509.7    4.241      45.832
2015    5        3    10  17    4.4215   509.6    4.240      45.807
2015    5        3    10  23    4.4197   509.6    4.239      45.781
2015    5        3    10  29    4.4179   509.5    4.238      45.755
2015    5        3    10  34    4.4161   509.4    4.238      45.729
2015    5        3    10  40    4.4143   509.3    4.237      45.703
2015    5        3    10  46    4.4125   509.2    4.236      45.676
2015    5        3    10  51    4.4107   509.1    4.235      45.649
2015    5        3    10  57    4.4089   509.0    4.235      45.623
2015    5        3    11   3    4.4072   508.9    4.234      45.596
2015    5        3    11   8    4.4055   508.8    4.234      45.569
2015    5        3    11  14    4.4038   508.7    4.233      45.542
2015    5        3    11  20    4.4021   508.6    4.232      45.516
2015    5        3    11  26    4.4004   508.5    4.232      45.489
2015    5        3    11  31    4.3988   508.4    4.232      45.462
2015    5        3    11  37    4.3972   508.3    4.231      45.436
2015    5        3    11  43    4.3956   508.2    4.231      45.410
2015    5        3    11  48    4.3940   508.1    4.231      45.384
2015    5        3    11  54    4.3924   508.0    4.231      45.358
2015    5        3    12   0    4.3909   507.9    4.231      45.333
2015    5        3    12   5    4.3894   507.8    4.231      45.307
2015    5        3    12  11    4.3879   507.7    4.231      45.282
2015    5        3    12  17    4.3864   507.6    4.231      45.258
2015    5        3    12  22    4.3849   507.5    4.231      45.234
2015    5        3    12  28    4.3835   507.4    4.231      45.211
2015    5        3    12  34    4.3820   507.3    4.232      45.188
2015    5        3    12  40    4.3805   507.2    4.232      45.165
2015    5        3    12  45    4.3791   507.1    4.232      45.142
2015    5        3    12  51    4.3775   507.0    4.232      45.120
2015    5        3    12  57    4.3760   506.9    4.233      45.097
2015    5        3    13   2    4.3745   506.8    4.233      45.074
2015    5        3    13   8    4.3730   506.7    4.233      45.051
2015    5        3    13  14    4.3714   506.6    4.233      45.029
2015    5        3    13  19    4.3698   506.6    4.233      45.006
2015    5        3    13  25    4.3683   506.5    4.233      44.983
2015    5        3    13  31    4.3667   506.4    4.233      44.961
2015    5        3    13  37    4.3651   506.3    4.233      44.938
2015    5        3    13  42    4.3635   506.2    4.233      44.915
2015    5        3    13  48    4.3619   506.1    4.233      44.892
2015    5        3    13  54    4.3602   506.0    4.233      44.869
2015    5        3    13  59    4.3586   505.9    4.233      44.845
2015    5        3    14   5    4.3570   505.8    4.233      44.822
2015    5        3    14  11    4.3553   505.7    4.232      44.798
2015    5        3    14  17    4.3537   505.6    4.232      44.774
2015    5        3    14  22    4.3520   505.5    4.232      44.750
2015    5        3    14  28    4.3504   505.4    4.232      44.726
2015    5        3    14  34    4.3487   505.3    4.231      44.702
2015    5        3    14  39    4.3471   505.2    4.231      44.678
2015    5        3    14  45    4.3454   505.1    4.231      44.654
2015    5        3    14  51    4.3437   505.0    4.231      44.629
2015    5        3    14  57    4.3420   504.9    4.230      44.605
2015    5        3    15   2    4.3403   504.8    4.230      44.580
2015    5        3    15   8    4.3386   504.7    4.230      44.556
2015    5        3    15  14    4.3369   504.6    4.229      44.531
2015    5        3    15  20    4.3352   504.5    4.229      44.505
2015    5        3    15  25    4.3335   504.4    4.228      44.480
2015    5        3    15  31    4.3318   504.3    4.228      44.454
2015    5        3    15  37    4.3301   504.2    4.228      44.428
2015    5        3    15  42    4.3284   504.1    4.227      44.402
2015    5        3    15  48    4.3267   504.0    4.227      44.376
2015    5        3    15  54    4.3250   503.9    4.226      44.349
2015    5        3    16   0    4.3233   503.8    4.225      44.322
2015    5        3    16   5    4.3216   503.7    4.225      44.294
2015    5        3    16  11    4.3198   503.6    4.224      44.266
2015    5        3    16  17    4.3181   503.5    4.223      44.238
2015    5        3    16  23    4.3164   503.4    4.223      44.210
2015    5        3    16  28    4.3147   503.3    4.222      44.181
2015    5        3    16  34    4.3130   503.2    4.221      44.152
2015    5        3    16  40    4.3113   503.0    4.220      44.123
2015    5        3    16  46    4.3095   502.9    4.220      44.093
2015    5        3    16  51    4.3078   502.8    4.219      44.063
2015    5        3    16  57    4.3061   502.7    4.218      44.033
2015    5        3    17   3    4.3044   502.6    4.217      44.002
2015    5        3    17   9    4.3027   502.5    4.216      43.971
2015    5        3    17  14    4.3010   502.4    4.215      43.940
2015    5        3    17  20    4.2993   502.3    4.214      43.909
2015    5        3    17  26    4.2976   502.2    4.214      43.877
2015    5        3    17  32    4.2959   502.0    4.213      43.846
2015    5        3    17  37    4.2942   501.9    4.212      43.814
2015    5        3    17  43    4.2926   501.8    4.211      43.781
2015    5        3    17  49    4.2909   501.7    4.210      43.749
2015    5        3    17  55    4.2892   501.6    4.209      43.716
2015    5        3    18   0    4.2876   501.5    4.208      43.684
2015    5        3    18   6    4.2859   501.4    4.208      43.651
2015    5        3    18  12    4.2843   501.2    4.207      43.618
2015    5        3    18  18    4.2827   501.1    4.206      43.586
2015    5        3    18  23    4.2810   501.0    4.205      43.553
2015    5        3    18  29    4.2794   500.9    4.205      43.521
2015    5        3    18  35    4.2778   500.8    4.204      43.489
2015    5        3    18  41    4.2763   500.6    4.204      43.457
2015    5        3    18  47    4.2747   500.5    4.204      43.425
2015    5        3    18  52    4.2732   500.4    4.203      43.394
2015    5        3    18  58    4.2717   500.3    4.203      43.363
2015    5        3    19   4    4.2701   500.2    4.203      43.333
2015    5        3    19  10    4.2687   500.1    4.203      43.303
2015    5        3    19  15    4.2672   499.9    4.203      43.273
2015    5        3    19  21    4.2657   499.8    4.204      43.245
2015    5        3    19  27    4.2643   499.7    4.204      43.217
2015    5        3    19  33    4.2629   499.6    4.204      43.190
2015    5        3    19  38    4.2614   499.5    4.205      43.163
2015    5        3    19  44    4.2600   499.4    4.205      43.137
2015    5        3    19  50    4.2585   499.2    4.206      43.112
2015    5        3    19  56    4.2570   499.1    4.207      43.086
2015    5        3    20   1    4.2556   499.0    4.207      43.061
2015    5        3    20   7    4.2541   498.9    4.208      43.036
2015    5        3    20  13    4.2526   498.8    4.208      43.012
2015    5        3    20  19    4.2511   498.7    4.209      42.987
2015    5        3    20  25    4.2496   498.5    4.210      42.963
2015    5        3    20  30    4.2481   498.4    4.211      42.939
2015    5        3    20  36    4.2466   498.3    4.211      42.916
2015    5        3    20  42    4.2450   498.2    4.212      42.892
2015    5        3    20  48    4.2435   498.1    4.213      42.868
2015    5        3    20  53    4.2420   498.0    4.213      42.844
2015    5        3    20  59    4.2405   497.8    4.214      42.821
2015    5        3    21   5    4.2389   497.7    4.215      42.797
2015    5        3    21  11    4.2374   497.6    4.215      42.772
2015    5        3    21  17    4.2359   497.5    4.216      42.748
2015    5        3    21  22    4.2343   497.4    4.217      42.724
2015    5        3    21  28    4.2328   497.2    4.218      42.699
2015    5        3    21  34    4.2313   497.1    4.218      42.674
2015    5        3    21  40    4.2297   497.0    4.219      42.649
2015    5        3    21  45    4.2282   496.9    4.220      42.624
2015    5        3    21  51    4.2267   496.7    4.220      42.599
2015    5        3    21  57    4.2251   496.6    4.221      42.573
2015    5        3    22   3    4.2236   496.5    4.221      42.548
2015    5        3    22   9    4.2221   496.4    4.222      42.522
2015    5        3    22  14    4.2205   496.2    4.223      42.496
2015    5        3    22  20    4.2190   496.1    4.223      42.470
2015    5        3    22  26    4.2175   496.0    4.224      42.444
2015    5        3    22  32    4.2160   495.9    4.224      42.417
2015    5        3    22  37    4.2145   495.7    4.225      42.391
2015    5        3    22  43    4.2130   495.6    4.225      42.364
2015    5        3    22  49    4.2115   495.5    4.226      42.337
2015    5        3    22  55    4.2101   495.3    4.226      42.310
2015    5        3    23   0    4.2086   495.2    4.227      42.283
2015    5        3    23   6    4.2072   495.1    4.227      42.256
2015    5        3    23  12    4.2057   495.0    4.228      42.229
2015    5        3    23  18    4.2043   494.8    4.228      42.202
2015    5        3    23  24    4.2029   494.7    4.229      42.175
2015    5        3    23  29    4.2015   494.6    4.229      42.147
2015    5        3    23  35    4.2001   494.4    4.229      42.120
2015    5        3    23  41    4.1987   494.3    4.230      42.093
2015    5        3    23  47    4.1973   494.2    4.230      42.065
2015    5        3    23  52    4.1958   494.1    4.230      42.038
2015    5        3    23  58    4.1944   493.9    4.230      42.010
2015    5        4     0   4    4.1930   493.8    4.230      41.982
2015    5        4     0  10    4.1916   493.7    4.230      41.954
2015    5        4     0  16    4.1901   493.5    4.230      41.926
2015    5        4     0  21    4.1887   493.4    4.230      41.897
2015    5        4     0  27    4.1872   493.3    4.230      41.868
2015    5        4     0  33    4.1858   493.1    4.230      41.839
2015    5        4     0  39    4.1843   493.0    4.230      41.810
2015    5        4     0  44    4.1829   492.9    4.230      41.780
2015    5        4     0  50    4.1814   492.8    4.230      41.750
2015    5        4     0  56    4.1799   492.6    4.230      41.720
2015    5        4     1   2    4.1785   492.5    4.229      41.689
2015    5        4     1   8    4.1770   492.4    4.229      41.658
2015    5        4     1  13    4.1755   492.2    4.229      41.626
2015    5        4     1  19    4.1740   492.1    4.228      41.595
2015    5        4     1  25    4.1726   492.0    4.228      41.563
2015    5        4     1  31    4.1711   491.8    4.228      41.531
2015    5        4     1  36    4.1696   491.7    4.227      41.498
2015    5        4     1  42    4.1681   491.6    4.227      41.466
2015    5        4     1  48    4.1667   491.4    4.226      41.433
2015    5        4     1  54    4.1652   491.3    4.226      41.400
2015    5        4     2   0    4.1637   491.1    4.225      41.367
2015    5        4     2   5    4.1622   491.0    4.225      41.334
2015    5        4     2  11    4.1608   490.9    4.225      41.301
2015    5        4     2  17    4.1593   490.7    4.224      41.267
2015    5        4     2  23    4.1578   490.6    4.224      41.234
2015    5        4     2  28    4.1564   490.5    4.223      41.201
2015    5        4     2  34    4.1549   490.3    4.223      41.168
2015    5        4     2  40    4.1535   490.2    4.223      41.135
2015    5        4     2  46    4.1520   490.0    4.223      41.102
2015    5        4     2  51    4.1506   489.9    4.222      41.069
2015    5        4     2  57    4.1491   489.7    4.222      41.036
2015    5        4     3   3    4.1477   489.6    4.222      41.003
2015    5        4     3   9    4.1463   489.5    4.222      40.971
2015    5        4     3  15    4.1448   489.3    4.222      40.938
2015    5        4     3  20    4.1434   489.2    4.222      40.906
2015    5        4     3  26    4.1420   489.0    4.222      40.874
2015    5        4     3  32    4.1406   488.9    4.222      40.842
2015    5        4     3  38    4.1392   488.7    4.222      40.810
2015    5        4     3  43    4.1379   488.6    4.222      40.778
2015    5        4     3  49    4.1365   488.4    4.222      40.747
2015    5        4     3  55    4.1351   488.3    4.222      40.715
2015    5        4     4   1    4.1338   488.1    4.223      40.684
2015    5        4     4   7    4.1324   488.0    4.223      40.652
2015    5        4     4  12    4.1311   487.8    4.224      40.621
2015    5        4     4  18    4.1297   487.7    4.224      40.590
2015    5        4     4  24    4.1284   487.5    4.225      40.559
2015    5        4     4  30    4.1271   487.3    4.225      40.528
2015    5        4     4  35    4.1258   487.2    4.226      40.498
2015    5        4     4  41    4.1245   487.0    4.226      40.467
2015    5        4     4  47    4.1232   486.9    4.227      40.437
2015    5        4     4  53    4.1220   486.7    4.228      40.407
2015    5        4     4  59    4.1207   486.5    4.229      40.377
2015    5        4     5   4    4.1195   486.4    4.230      40.347
2015    5        4     5  10    4.1183   486.2    4.231      40.317
2015    5        4     5  16    4.1171   486.1    4.232      40.288
2015    5        4     5  22    4.1160   485.9    4.233      40.259
2015    5        4     5  27    4.1148   485.7    4.234      40.230
2015    5        4     5  33    4.1137   485.6    4.236      40.201
2015    5        4     5  39    4.1126   485.4    4.237      40.173
2015    5        4     5  45    4.1116   485.2    4.239      40.145
2015    5        4     5  50    4.1106   485.1    4.240      40.118
2015    5        4     5  56    4.1096   484.9    4.242      40.091
2015    5        4     6   2    4.1086   484.7    4.244      40.065
2015    5        4     6   8    4.1077   484.6    4.246      40.039
2015    5        4     6  14    4.1068   484.4    4.248      40.014
2015    5        4     6  19    4.1059   484.2    4.250      39.989
2015    5        4     6  25    4.1050   484.1    4.252      39.964
2015    5        4     6  31    4.1042   483.9    4.254      39.940
2015    5        4     6  37    4.1033   483.7    4.256      39.916
2015    5        4     6  42    4.1025   483.6    4.258      39.893
2015    5        4     6  48    4.1017   483.4    4.260      39.870
2015    5        4     6  54    4.1008   483.3    4.262      39.847
2015    5        4     7   0    4.1000   483.1    4.265      39.825
2015    5        4     7   5    4.0992   482.9    4.267      39.802
2015    5        4     7  11    4.0983   482.8    4.269      39.779
2015    5        4     7  17    4.0975   482.6    4.271      39.756
2015    5        4     7  23    4.0967   482.4    4.274      39.733
2015    5        4     7  29    4.0958   482.3    4.276      39.711
2015    5        4     7  34    4.0950   482.1    4.278      39.688
2015    5        4     7  40    4.0941   482.0    4.280      39.665
2015    5        4     7  46    4.0933   481.8    4.282      39.641
2015    5        4     7  52    4.0924   481.6    4.285      39.618
2015    5        4     7  57    4.0916   481.5    4.287      39.594
2015    5        4     8   3    4.0907   481.3    4.289      39.571
2015    5        4     8   9    4.0899   481.1    4.291      39.547
2015    5        4     8  15    4.0890   481.0    4.293      39.523
2015    5        4     8  20    4.0881   480.8    4.295      39.498
2015    5        4     8  26    4.0873   480.6    4.297      39.474
2015    5        4     8  32    4.0865   480.5    4.299      39.449
2015    5        4     8  38    4.0856   480.3    4.301      39.425
2015    5        4     8  43    4.0847   480.1    4.302      39.400
2015    5        4     8  49    4.0839   480.0    4.304      39.375
2015    5        4     8  55    4.0831   479.8    4.306      39.350
2015    5        4     9   1    4.0822   479.6    4.308      39.325
2015    5        4     9   6    4.0814   479.5    4.310      39.299
2015    5        4     9  12    4.0805   479.3    4.311      39.274
2015    5        4     9  18    4.0797   479.1    4.313      39.248
2015    5        4     9  24    4.0789   479.0    4.315      39.222
2015    5        4     9  29    4.0781   478.8    4.316      39.196
2015    5        4     9  35    4.0773   478.6    4.318      39.170
2015    5        4     9  41    4.0765   478.5    4.319      39.144
2015    5        4     9  47    4.0757   478.3    4.321      39.117
2015    5        4     9  52    4.0749   478.1    4.323      39.091
2015    5        4     9  58    4.0741   478.0    4.324      39.064
2015    5        4    10   4    4.0733   477.8    4.326      39.037
2015    5        4    10   9    4.0725   477.6    4.327      39.010
2015    5        4    10  15    4.0717   477.5    4.328      38.983
2015    5        4    10  21    4.0710   477.3    4.330      38.955
2015    5        4    10  27    4.0702   477.1    4.331      38.927
2015    5        4    10  32    4.0695   477.0    4.333      38.900
2015    5        4    10  38    4.0687   476.8    4.334      38.872
2015    5        4    10  44    4.0680   476.6    4.335      38.844
2015    5        4    10  49    4.0672   476.4    4.337      38.815
2015    5        4    10  55    4.0665   476.3    4.338      38.787
2015    5        4    11   1    4.0658   476.1    4.340      38.758
2015    5        4    11   6    4.0651   475.9    4.341      38.730
2015    5        4    11  12    4.0644   475.7    4.342      38.701
2015    5        4    11  18    4.0637   475.6    4.344      38.672
2015    5        4    11  24    4.0630   475.4    4.345      38.643
2015    5        4    11  29    4.0624   475.2    4.347      38.614
2015    5        4    11  35    4.0617   475.0    4.348      38.584
2015    5        4    11  41    4.0611   474.8    4.350      38.555
2015    5        4    11  46    4.0605   474.7    4.352      38.526
2015    5        4    11  52    4.0599   474.5    4.353      38.497
2015    5        4    11  58    4.0593   474.3    4.355      38.468
2015    5        4    12   3    4.0588   474.1    4.357      38.439
2015    5        4    12   9    4.0583   473.9    4.359      38.410
2015    5        4    12  15    4.0578   473.8    4.361      38.382
2015    5        4    12  20    4.0573   473.6    4.363      38.353
2015    5        4    12  26    4.0568   473.4    4.365      38.325
2015    5        4    12  32    4.0564   473.2    4.367      38.297
2015    5        4    12  37    4.0560   473.0    4.369      38.269
2015    5        4    12  43    4.0556   472.8    4.372      38.242
2015    5        4    12  49    4.0552   472.6    4.374      38.215
2015    5        4    12  54    4.0549   472.5    4.376      38.188
2015    5        4    13   0    4.0546   472.3    4.379      38.161
2015    5        4    13   6    4.0543   472.1    4.382      38.135
2015    5        4    13  11    4.0541   471.9    4.385      38.109
2015    5        4    13  17    4.0538   471.7    4.387      38.084
2015    5        4    13  23    4.0536   471.6    4.390      38.058
2015    5        4    13  28    4.0534   471.4    4.393      38.033
2015    5        4    13  34    4.0532   471.2    4.397      38.008
2015    5        4    13  40    4.0531   471.0    4.400      37.983
2015    5        4    13  45    4.0529   470.8    4.403      37.959
2015    5        4    13  51    4.0528   470.6    4.406      37.935
2015    5        4    13  57    4.0527   470.5    4.410      37.911
2015    5        4    14   2    4.0526   470.3    4.413      37.887
2015    5        4    14   8    4.0525   470.1    4.417      37.864
2015    5        4    14  14    4.0524   469.9    4.420      37.840
2015    5        4    14  19    4.0523   469.7    4.424      37.817
2015    5        4    14  25    4.0523   469.6    4.427      37.794
2015    5        4    14  30    4.0522   469.4    4.431      37.771
2015    5        4    14  36    4.0522   469.2    4.435      37.748
2015    5        4    14  42    4.0522   469.0    4.439      37.725
2015    5        4    14  47    4.0522   468.8    4.442      37.702
2015    5        4    14  53    4.0522   468.6    4.446      37.679
2015    5        4    14  59    4.0522   468.5    4.450      37.657
2015    5        4    15   4    4.0523   468.3    4.454      37.634
2015    5        4    15  10    4.0523   468.1    4.458      37.612
2015    5        4    15  16    4.0523   467.9    4.462      37.590
2015    5        4    15  21    4.0524   467.7    4.466      37.568
2015    5        4    15  27    4.0525   467.6    4.470      37.546
2015    5        4    15  32    4.0526   467.4    4.474      37.524
2015    5        4    15  38    4.0527   467.2    4.478      37.502
2015    5        4    15  44    4.0528   467.0    4.482      37.480
2015    5        4    15  49    4.0530   466.8    4.486      37.459
2015    5        4    15  55    4.0531   466.6    4.490      37.438
2015    5        4    16   1    4.0533   466.5    4.494      37.417
2015    5        4    16   6    4.0535   466.3    4.499      37.396
2015    5        4    16  12    4.0537   466.1    4.503      37.375
2015    5        4    16  18    4.0539   465.9    4.507      37.354
2015    5        4    16  23    4.0541   465.7    4.511      37.334
2015    5        4    16  29    4.0544   465.6    4.515      37.314
2015    5        4    16  34    4.0546   465.4    4.520      37.294
2015    5        4    16  40    4.0549   465.2    4.524      37.274
2015    5        4    16  46    4.0552   465.0    4.528      37.254
2015    5        4    16  51    4.0555   464.8    4.533      37.234
2015    5        4    16  57    4.0559   464.7    4.537      37.215
2015    5        4    17   3    4.0562   464.5    4.541      37.195
2015    5        4    17   8    4.0565   464.3    4.546      37.176
2015    5        4    17  14    4.0569   464.1    4.550      37.157
2015    5        4    17  19    4.0573   464.0    4.554      37.138
2015    5        4    17  25    4.0577   463.8    4.559      37.118
2015    5        4    17  31    4.0581   463.6    4.563      37.099
2015    5        4    17  36    4.0585   463.4    4.568      37.080
2015    5        4    17  42    4.0589   463.3    4.572      37.061
2015    5        4    17  48    4.0593   463.1    4.576      37.042
2015    5        4    17  53    4.0598   462.9    4.581      37.023
2015    5        4    17  59    4.0602   462.7    4.585      37.004
2015    5        4    18   4    4.0607   462.6    4.590      36.984
2015    5        4    18  10    4.0611   462.4    4.594      36.965
2015    5        4    18  16    4.0616   462.2    4.598      36.945
2015    5        4    18  21    4.0621   462.0    4.603      36.926
2015    5        4    18  27    4.0625   461.9    4.607      36.906
2015    5        4    18  33    4.0630   461.7    4.611      36.886
2015    5        4    18  38    4.0636   461.5    4.615      36.866
2015    5        4    18  44    4.0641   461.3    4.620      36.846
2015    5        4    18  49    4.0646   461.2    4.624      36.825
2015    5        4    18  55    4.0651   461.0    4.628      36.805
2015    5        4    19   1    4.0657   460.8    4.633      36.784
2015    5        4    19   6    4.0663   460.6    4.637      36.764
2015    5        4    19  12    4.0668   460.5    4.641      36.742
2015    5        4    19  18    4.0674   460.3    4.645      36.721
2015    5        4    19  23    4.0680   460.1    4.650      36.700
2015    5        4    19  29    4.0686   459.9    4.654      36.679
2015    5        4    19  35    4.0693   459.8    4.658      36.658
2015    5        4    19  40    4.0699   459.6    4.662      36.636
2015    5        4    19  46    4.0706   459.4    4.667      36.615
2015    5        4    19  52    4.0713   459.2    4.671      36.593
2015    5        4    19  57    4.0720   459.1    4.675      36.571
2015    5        4    20   3    4.0727   458.9    4.680      36.550
2015    5        4    20   9    4.0734   458.7    4.684      36.528
2015    5        4    20  14    4.0742   458.5    4.689      36.506
2015    5        4    20  20    4.0750   458.4    4.693      36.485
2015    5        4    20  26    4.0758   458.2    4.698      36.463
2015    5        4    20  31    4.0766   458.0    4.702      36.442
2015    5        4    20  37    4.0775   457.8    4.707      36.420
2015    5        4    20  43    4.0784   457.7    4.711      36.399
2015    5        4    20  48    4.0793   457.5    4.716      36.378
2015    5        4    20  54    4.0802   457.3    4.721      36.357
2015    5        4    21   0    4.0812   457.1    4.726      36.336
2015    5        4    21   5    4.0821   457.0    4.731      36.315
2015    5        4    21  11    4.0831   456.8    4.735      36.294
2015    5        4    21  17    4.0842   456.6    4.740      36.274
2015    5        4    21  22    4.0852   456.4    4.745      36.254
2015    5        4    21  28    4.0863   456.3    4.751      36.233
2015    5        4    21  34    4.0874   456.1    4.756      36.214
2015    5        4    21  39    4.0885   455.9    4.761      36.194
2015    5        4    21  45    4.0897   455.7    4.766      36.175
2015    5        4    21  51    4.0908   455.6    4.772      36.155
2015    5        4    21  56    4.0921   455.4    4.777      36.136
2015    5        4    22   2    4.0933   455.2    4.782      36.117
2015    5        4    22   8    4.0945   455.1    4.788      36.099
2015    5        4    22  13    4.0958   454.9    4.793      36.080
2015    5        4    22  19    4.0971   454.7    4.799      36.062
2015    5        4    22  25    4.0983   454.6    4.805      36.044
2015    5        4    22  31    4.0997   454.4    4.810      36.026
2015    5        4    22  36    4.1010   454.2    4.816      36.009
2015    5        4    22  42    4.1024   454.1    4.822      35.992
2015    5        4    22  48    4.1037   453.9    4.828      35.974
2015    5        4    22  53    4.1051   453.7    4.834      35.958
2015    5        4    22  59    4.1065   453.6    4.840      35.941
2015    5        4    23   5    4.1080   453.4    4.846      35.924
2015    5        4    23  10    4.1094   453.2    4.852      35.908
2015    5        4    23  16    4.1109   453.1    4.858      35.892
2015    5        4    23  22    4.1123   452.9    4.864      35.875
2015    5        4    23  27    4.1138   452.8    4.870      35.859
2015    5        4    23  33    4.1153   452.6    4.876      35.844
2015    5        4    23  39    4.1168   452.4    4.882      35.828
2015    5        4    23  45    4.1183   452.3    4.888      35.813
2015    5        4    23  50    4.1199   452.1    4.894      35.797
2015    5        4    23  56    4.1214   452.0    4.900      35.782
2015    5        5     0   2    4.1230   451.8    4.907      35.767
2015    5        5     0   7    4.1245   451.6    4.913      35.752
2015    5        5     0  13    4.1261   451.5    4.919      35.737
2015    5        5     0  19    4.1277   451.3    4.925      35.723
2015    5        5     0  24    4.1293   451.2    4.932      35.708
2015    5        5     0  30    4.1310   451.0    4.938      35.694
2015    5        5     0  36    4.1326   450.9    4.944      35.679
2015    5        5     0  41    4.1342   450.7    4.951      35.665
2015    5        5     0  47    4.1359   450.6    4.957      35.651
2015    5        5     0  53    4.1376   450.4    4.963      35.637
2015    5        5     0  59    4.1393   450.3    4.970      35.623
2015    5        5     1   4    4.1410   450.1    4.976      35.610
2015    5        5     1  10    4.1427   450.0    4.983      35.596
2015    5        5     1  16    4.1444   449.8    4.989      35.583
2015    5        5     1  21    4.1462   449.7    4.996      35.569
2015    5        5     1  27    4.1480   449.5    5.002      35.556
2015    5        5     1  33    4.1498   449.4    5.009      35.542
2015    5        5     1  38    4.1516   449.2    5.015      35.529
2015    5        5     1  44    4.1534   449.1    5.022      35.517
2015    5        5     1  50    4.1552   448.9    5.028      35.504
2015    5        5     1  55    4.1571   448.8    5.035      35.491
2015    5        5     2   1    4.1589   448.6    5.041      35.478
2015    5        5     2   7    4.1608   448.5    5.048      35.466
2015    5        5     2  13    4.1627   448.3    5.055      35.453
2015    5        5     2  18    4.1647   448.2    5.061      35.441
2015    5        5     2  24    4.1666   448.0    5.068      35.429
2015    5        5     2  30    4.1686   447.9    5.075      35.417
2015    5        5     2  35    4.1706   447.8    5.082      35.405
2015    5        5     2  41    4.1726   447.6    5.088      35.393
2015    5        5     2  47    4.1746   447.5    5.095      35.381
2015    5        5     2  52    4.1767   447.3    5.102      35.370
2015    5        5     2  58    4.1787   447.2    5.109      35.358
2015    5        5     3   4    4.1808   447.0    5.116      35.347
2015    5        5     3  10    4.1829   446.9    5.122      35.336
2015    5        5     3  15    4.1849   446.8    5.129      35.325
2015    5        5     3  21    4.1871   446.6    5.136      35.315
2015    5        5     3  27    4.1892   446.5    5.143      35.304
2015    5        5     3  32    4.1913   446.4    5.149      35.294
2015    5        5     3  38    4.1935   446.2    5.156      35.283
2015    5        5     3  44    4.1956   446.1    5.163      35.273
2015    5        5     3  49    4.1978   445.9    5.170      35.264
2015    5        5     3  55    4.2000   445.8    5.177      35.254
2015    5        5     4   1    4.2022   445.7    5.183      35.244
2015    5        5     4   7    4.2044   445.5    5.190      35.235
2015    5        5     4  12    4.2066   445.4    5.197      35.225
2015    5        5     4  18    4.2088   445.3    5.204      35.216
2015    5        5     4  24    4.2111   445.1    5.210      35.206
2015    5        5     4  29    4.2133   445.0    5.217      35.197
2015    5        5     4  35    4.2156   444.9    5.224      35.188
2015    5        5     4  41    4.2179   444.8    5.230      35.179
2015    5        5     4  46    4.2202   444.6    5.237      35.170
2015    5        5     4  52    4.2225   444.5    5.244      35.161
2015    5        5     4  58    4.2248   444.4    5.251      35.152
2015    5        5     5   4    4.2271   444.3    5.257      35.143
2015    5        5     5   9    4.2295   444.1    5.264      35.135
2015    5        5     5  15    4.2318   444.0    5.271      35.126
2015    5        5     5  21    4.2342   443.9    5.278      35.117
2015    5        5     5  26    4.2366   443.8    5.284      35.109
2015    5        5     5  32    4.2390   443.6    5.291      35.100
2015    5        5     5  38    4.2414   443.5    5.298      35.092
2015    5        5     5  44    4.2438   443.4    5.305      35.083
2015    5        5     5  49    4.2462   443.3    5.311      35.075
2015    5        5     5  55    4.2486   443.2    5.318      35.067
2015    5        5     6   1    4.2511   443.0    5.325      35.059
2015    5        5     6   6    4.2535   442.9    5.332      35.051
2015    5        5     6  12    4.2560   442.8    5.338      35.043
2015    5        5     6  18    4.2585   442.7    5.345      35.036
2015    5        5     6  23    4.2609   442.6    5.352      35.028
2015    5        5     6  29    4.2634   442.5    5.359      35.021
2015    5        5     6  35    4.2659   442.3    5.366      35.013
2015    5        5     6  41    4.2684   442.2    5.372      35.006
2015    5        5     6  46    4.2710   442.1    5.379      34.999
2015    5        5     6  52    4.2735   442.0    5.386      34.992
2015    5        5     6  58    4.2760   441.9    5.393      34.986
2015    5        5     7   3    4.2786   441.8    5.400      34.979
2015    5        5     7   9    4.2811   441.7    5.407      34.973
2015    5        5     7  15    4.2837   441.6    5.414      34.967
2015    5        5     7  21    4.2863   441.4    5.421      34.961
2015    5        5     7  26    4.2889   441.3    5.428      34.955
2015    5        5     7  32    4.2915   441.2    5.435      34.950
2015    5        5     7  38    4.2942   441.1    5.442      34.944
2015    5        5     7  43    4.2968   441.0    5.449      34.939
2015    5        5     7  49    4.2994   440.9    5.457      34.934
2015    5        5     7  55    4.3021   440.8    5.464      34.929
2015    5        5     8   1    4.3048   440.7    5.471      34.925
2015    5        5     8   6    4.3075   440.6    5.479      34.920
2015    5        5     8  12    4.3102   440.5    5.486      34.916
2015    5        5     8  18    4.3129   440.4    5.493      34.912
2015    5        5     8  23    4.3156   440.3    5.501      34.908
2015    5        5     8  29    4.3184   440.2    5.508      34.905
2015    5        5     8  35    4.3211   440.1    5.516      34.902
2015    5        5     8  40    4.3239   440.0    5.523      34.898
2015    5        5     8  46    4.3267   439.9    5.531      34.895
2015    5        5     8  52    4.3295   439.8    5.539      34.893
2015    5        5     8  58    4.3324   439.7    5.547      34.890
2015    5        5     9   3    4.3353   439.6    5.555      34.888
2015    5        5     9   9    4.3381   439.5    5.563      34.886
2015    5        5     9  15    4.3410   439.4    5.571      34.884
2015    5        5     9  20    4.3440   439.3    5.579      34.883
2015    5        5     9  26    4.3469   439.2    5.587      34.882
2015    5        5     9  32    4.3498   439.1    5.595      34.881
2015    5        5     9  38    4.3528   439.0    5.603      34.881
2015    5        5     9  43    4.3557   438.9    5.611      34.881
2015    5        5     9  49    4.3587   438.8    5.619      34.882
2015    5        5     9  55    4.3617   438.8    5.627      34.883
2015    5        5    10   0    4.3646   438.7    5.635      34.884
2015    5        5    10   6    4.3676   438.6    5.643      34.885
2015    5        5    10  12    4.3706   438.5    5.651      34.887
2015    5        5    10  18    4.3736   438.4    5.659      34.888
2015    5        5    10  23    4.3765   438.3    5.667      34.890
2015    5        5    10  29    4.3795   438.2    5.675      34.892
2015    5        5    10  35    4.3825   438.2    5.682      34.894
2015    5        5    10  40    4.3855   438.1    5.690      34.895
2015    5        5    10  46    4.3885   438.0    5.698      34.898
2015    5        5    10  52    4.3915   437.9    5.706      34.900
2015    5        5    10  58    4.3945   437.8    5.713      34.902
2015    5        5    11   3    4.3975   437.8    5.721      34.904
2015    5        5    11   9    4.4005   437.7    5.728      34.907
2015    5        5    11  15    4.4035   437.6    5.736      34.909
2015    5        5    11  20    4.4065   437.5    5.743      34.911
2015    5        5    11  26    4.4095   437.5    5.751      34.914
2015    5        5    11  32    4.4125   437.4    5.758      34.916
2015    5        5    11  38    4.4155   437.3    5.765      34.918
2015    5        5    11  43    4.4185   437.2    5.772      34.921
2015    5        5    11  49    4.4215   437.2    5.780      34.923
2015    5        5    11  55    4.4245   437.1    5.787      34.925
2015    5        5    12   0    4.4275   437.0    5.794      34.927
2015    5        5    12   6    4.4305   436.9    5.801      34.929
2015    5        5    12  12    4.4335   436.9    5.808      34.932
2015    5        5    12  18    4.4365   436.8    5.815      34.934
2015    5        5    12  23    4.4395   436.7    5.822      34.936
2015    5        5    12  29    4.4425   436.6    5.829      34.938
2015    5        5    12  35    4.4455   436.6    5.836      34.940
2015    5        5    12  40    4.4485   436.5    5.843      34.941
2015    5        5    12  46    4.4516   436.4    5.850      34.943
2015    5        5    12  52    4.4546   436.4    5.856      34.945
2015    5        5    12  58    4.4576   436.3    5.863      34.947
2015    5        5    13   3    4.4606   436.2    5.870      34.949
2015    5        5    13   9    4.4636   436.2    5.877      34.951
2015    5        5    13  15    4.4667   436.1    5.883      34.953
2015    5        5    13  20    4.4697   436.0    5.890      34.955
2015    5        5    13  26    4.4727   435.9    5.897      34.956
2015    5        5    13  32    4.4758   435.9    5.903      34.958
2015    5        5    13  38    4.4788   435.8    5.910      34.960
2015    5        5    13  43    4.4818   435.8    5.916      34.963
2015    5        5    13  49    4.4849   435.7    5.923      34.965
2015    5        5    13  55    4.4879   435.6    5.930      34.967
2015    5        5    14   0    4.4910   435.6    5.936      34.970
2015    5        5    14   6    4.4941   435.5    5.943      34.972
2015    5        5    14  12    4.4971   435.4    5.949      34.975
2015    5        5    14  18    4.5002   435.4    5.956      34.978
2015    5        5    14  23    4.5033   435.3    5.962      34.982
2015    5        5    14  29    4.5064   435.2    5.969      34.985
2015    5        5    14  35    4.5095   435.2    5.975      34.989
2015    5        5    14  40    4.5126   435.1    5.982      34.993
2015    5        5    14  46    4.5157   435.1    5.989      34.997
2015    5        5    14  52    4.5188   435.0    5.995      35.002
2015    5        5    14  58    4.5219   435.0    6.002      35.007
2015    5        5    15   3    4.5250   434.9    6.008      35.012
2015    5        5    15   9    4.5281   434.8    6.015      35.017
2015    5        5    15  15    4.5312   434.8    6.021      35.023
2015    5        5    15  20    4.5344   434.7    6.028      35.029
2015    5        5    15  26    4.5375   434.7    6.034      35.035
2015    5        5    15  32    4.5406   434.6    6.041      35.041
2015    5        5    15  38    4.5438   434.6    6.048      35.047
2015    5        5    15  43    4.5469   434.5    6.054      35.054
2015    5        5    15  49    4.5501   434.5    6.061      35.061
2015    5        5    15  55    4.5532   434.4    6.067      35.068
2015    5        5    16   0    4.5564   434.4    6.074      35.075
2015    5        5    16   6    4.5596   434.3    6.081      35.083
2015    5        5    16  12    4.5628   434.3    6.088      35.090
2015    5        5    16  18    4.5659   434.2    6.095      35.098
2015    5        5    16  23    4.5691   434.2    6.101      35.106
2015    5        5    16  29    4.5723   434.1    6.108      35.114
2015    5        5    16  35    4.5755   434.1    6.115      35.123
2015    5        5    16  41    4.5787   434.0    6.122      35.132
2015    5        5    16  46    4.5819   434.0    6.129      35.141
2015    5        5    16  52    4.5851   433.9    6.136      35.151
2015    5        5    16  58    4.5883   433.9    6.143      35.161
2015    5        5    17   3    4.5915   433.9    6.150      35.172
2015    5        5    17   9    4.5947   433.8    6.156      35.182
2015    5        5    17  15    4.5979   433.8    6.163      35.193
2015    5        5    17  21    4.6010   433.7    6.170      35.203
2015    5        5    17  26    4.6042   433.7    6.177      35.214
2015    5        5    17  32    4.6074   433.7    6.184      35.225
2015    5        5    17  38    4.6105   433.6    6.190      35.236
2015    5        5    17  43    4.6137   433.6    6.197      35.247
2015    5        5    17  49    4.6169   433.5    6.204      35.258
2015    5        5    17  55    4.6201   433.5    6.210      35.269
2015    5        5    18   1    4.6232   433.5    6.217      35.280
2015    5        5    18   6    4.6264   433.4    6.224      35.291
2015    5        5    18  12    4.6296   433.4    6.230      35.302
2015    5        5    18  18    4.6328   433.4    6.237      35.313
2015    5        5    18  23    4.6360   433.3    6.244      35.324
2015    5        5    18  29    4.6392   433.3    6.250      35.335
2015    5        5    18  35    4.6424   433.3    6.257      35.346
2015    5        5    18  41    4.6456   433.2    6.264      35.357
2015    5        5    18  46    4.6489   433.2    6.271      35.369
2015    5        5    18  52    4.6521   433.2    6.277      35.381
2015    5        5    18  58    4.6554   433.1    6.284      35.393
2015    5        5    19   3    4.6586   433.1    6.291      35.405
2015    5        5    19   9    4.6619   433.1    6.297      35.417
2015    5        5    19  15    4.6651   433.0    6.304      35.430
2015    5        5    19  21    4.6684   433.0    6.311      35.442
2015    5        5    19  26    4.6717   433.0    6.317      35.454
2015    5        5    19  32    4.6750   433.0    6.324      35.466
2015    5        5    19  38    4.6783   432.9    6.330      35.479
2015    5        5    19  43    4.6815   432.9    6.337      35.492
2015    5        5    19  49    4.6847   432.9    6.343      35.505
2015    5        5    19  55    4.6880   432.9    6.350      35.518
2015    5        5    20   1    4.6912   432.9    6.356      35.531
2015    5        5    20   6    4.6944   432.8    6.362      35.545
2015    5        5    20  12    4.6975   432.8    6.368      35.559
2015    5        5    20  18    4.7007   432.8    6.374      35.572
2015    5        5    20  23    4.7038   432.8    6.380      35.586
2015    5        5    20  29    4.7069   432.8    6.386      35.599
2015    5        5    20  35    4.7100   432.7    6.391      35.613
2015    5        5    20  41    4.7130   432.7    6.397      35.626
2015    5        5    20  46    4.7161   432.7    6.402      35.639
2015    5        5    20  52    4.7191   432.7    6.408      35.652
2015    5        5    20  58    4.7221   432.7    6.413      35.665
2015    5        5    21   3    4.7251   432.6    6.418      35.677
2015    5        5    21   9    4.7281   432.6    6.423      35.690
2015    5        5    21  15    4.7311   432.6    6.428      35.702
2015    5        5    21  21    4.7340   432.6    6.433      35.715
2015    5        5    21  26    4.7369   432.6    6.438      35.727
2015    5        5    21  32    4.7399   432.6    6.443      35.739
2015    5        5    21  38    4.7428   432.5    6.447      35.751
2015    5        5    21  43    4.7457   432.5    6.452      35.763
2015    5        5    21  49    4.7485   432.5    6.456      35.775
2015    5        5    21  55    4.7514   432.5    6.461      35.788
2015    5        5    22   1    4.7543   432.5    6.465      35.800
2015    5        5    22   6    4.7571   432.5    6.469      35.812
2015    5        5    22  12    4.7600   432.4    6.473      35.824
2015    5        5    22  18    4.7628   432.4    6.478      35.836
2015    5        5    22  23    4.7656   432.4    6.482      35.848
2015    5        5    22  29    4.7685   432.4    6.486      35.861
2015    5        5    22  35    4.7713   432.4    6.490      35.873
2015    5        5    22  41    4.7741   432.4    6.494      35.885
2015    5        5    22  46    4.7769   432.3    6.498      35.897
2015    5        5    22  52    4.7797   432.3    6.502      35.909
2015    5        5    22  58    4.7825   432.3    6.505      35.921
2015    5        5    23   3    4.7853   432.3    6.509      35.934
2015    5        5    23   9    4.7881   432.3    6.513      35.946
2015    5        5    23  15    4.7909   432.3    6.517      35.958
2015    5        5    23  20    4.7937   432.3    6.521      35.970
2015    5        5    23  26    4.7965   432.3    6.525      35.983
2015    5        5    23  32    4.7993   432.2    6.528      35.995
2015    5        5    23  38    4.8021   432.2    6.532      36.008
2015    5        5    23  43    4.8049   432.2    6.536      36.020
2015    5        5    23  49    4.8076   432.2    6.539      36.033
2015    5        5    23  55    4.8104   432.2    6.543      36.046
2015    5        6     0   0    4.8132   432.2    6.547      36.059
2015    5        6     0   6    4.8159   432.2    6.551      36.072
2015    5        6     0  12    4.8186   432.2    6.554      36.085
2015    5        6     0  18    4.8213   432.2    6.558      36.099
2015    5        6     0  23    4.8240   432.2    6.562      36.112
2015    5        6     0  29    4.8267   432.2    6.565      36.126
2015    5        6     0  35    4.8294   432.2    6.569      36.139
2015    5        6     0  40    4.8321   432.2    6.572      36.154
2015    5        6     0  46    4.8347   432.1    6.576      36.168
2015    5        6     0  52    4.8373   432.1    6.580      36.182
2015    5        6     0  58    4.8399   432.1    6.583      36.196
2015    5        6     1   3    4.8425   432.1    6.587      36.211
2015    5        6     1   9    4.8451   432.1    6.590      36.226
2015    5        6     1  15    4.8476   432.1    6.594      36.240
2015    5        6     1  20    4.8502   432.1    6.597      36.255
2015    5        6     1  26    4.8527   432.1    6.601      36.271
2015    5        6     1  32    4.8552   432.1    6.604      36.286
2015    5        6     1  38    4.8578   432.1    6.608      36.301
2015    5        6     1  43    4.8602   432.1    6.611      36.316
2015    5        6     1  49    4.8628   432.1    6.615      36.332
2015    5        6     1  55    4.8653   432.1    6.619      36.348
2015    5        6     2   0    4.8678   432.1    6.622      36.363
2015    5        6     2   6    4.8703   432.1    6.626      36.379
2015    5        6     2  12    4.8728   432.1    6.630      36.395
2015    5        6     2  17    4.8753   432.1    6.634      36.411
2015    5        6     2  23    4.8778   432.1    6.638      36.428
2015    5        6     2  29    4.8803   432.0    6.642      36.445
2015    5        6     2  35    4.8828   432.0    6.646      36.462
2015    5        6     2  40    4.8852   432.0    6.650      36.480
2015    5        6     2  46    4.8876   432.0    6.655      36.499
2015    5        6     2  52    4.8900   432.0    6.659      36.517
2015    5        6     2  57    4.8924   432.0    6.663      36.537
2015    5        6     3   3    4.8946   432.0    6.667      36.556
2015    5        6     3   9    4.8968   432.0    6.671      36.576
2015    5        6     3  15    4.8990   432.0    6.675      36.597
2015    5        6     3  20    4.9012   432.0    6.679      36.617
2015    5        6     3  26    4.9032   432.0    6.682      36.638
2015    5        6     3  32    4.9052   432.0    6.686      36.660
2015    5        6     3  37    4.9072   432.0    6.689      36.680
2015    5        6     3  43    4.9091   432.0    6.693      36.701
2015    5        6     3  49    4.9110   432.0    6.696      36.721
2015    5        6     3  55    4.9128   432.0    6.699      36.740
2015    5        6     4   0    4.9145   432.0    6.702      36.759
2015    5        6     4   6    4.9162   432.0    6.705      36.777
2015    5        6     4  12    4.9179   432.0    6.708      36.795
2015    5        6     4  17    4.9195   432.0    6.710      36.812
2015    5        6     4  23    4.9210   432.0    6.713      36.828
2015    5        6     4  29    4.9225   432.0    6.715      36.843
2015    5        6     4  34    4.9239   432.0    6.717      36.858
2015    5        6     4  40    4.9253   432.0    6.719      36.873
2015    5        6     4  46    4.9266   432.0    6.720      36.886
2015    5        6     4  52    4.9279   432.0    6.722      36.899
2015    5        6     4  57    4.9291   432.0    6.723      36.911
2015    5        6     5   3    4.9303   432.0    6.725      36.923
2015    5        6     5   9    4.9314   432.0    6.726      36.934
2015    5        6     5  14    4.9325   432.0    6.727      36.944
2015    5        6     5  20    4.9335   432.0    6.727      36.954
2015    5        6     5  26    4.9344   432.0    6.728      36.963
2015    5        6     5  32    4.9353   432.0    6.729      36.972
2015    5        6     5  37    4.9362   431.9    6.729      36.980
2015    5        6     5  43    4.9370   431.9    6.729      36.987
2015    5        6     5  49    4.9377   431.9    6.729      36.994
2015    5        6     5  54    4.9384   431.9    6.729      37.001
2015    5        6     6   0    4.9391   431.9    6.729      37.007
2015    5        6     6   6    4.9397   431.9    6.729      37.012
2015    5        6     6  11    4.9402   431.9    6.729      37.017
2015    5        6     6  17    4.9407   431.9    6.728      37.022
2015    5        6     6  23    4.9412   431.9    6.728      37.026
2015    5        6     6  29    4.9416   431.9    6.727      37.029
2015    5        6     6  34    4.9419   431.9    6.727      37.032
2015    5        6     6  40    4.9422   431.9    6.726      37.035
2015    5        6     6  46    4.9425   431.8    6.725      37.038
2015    5        6     6  51    4.9426   431.8    6.724      37.040
2015    5        6     6  57    4.9428   431.8    6.723      37.041
2015    5        6     7   3    4.9428   431.8    6.722      37.043
2015    5        6     7   9    4.9429   431.8    6.721      37.044
2015    5        6     7  14    4.9428   431.8    6.719      37.044
2015    5        6     7  20    4.9428   431.8    6.718      37.045
2015    5        6     7  26    4.9426   431.8    6.717      37.045
2015    5        6     7  31    4.9424   431.8    6.715      37.045
2015    5        6     7  37    4.9422   431.7    6.714      37.044
2015    5        6     7  43    4.9419   431.7    6.712      37.044
2015    5        6     7  48    4.9416   431.7    6.711      37.042
2015    5        6     7  54    4.9412   431.7    6.709      37.041
2015    5        6     8   0    4.9407   431.7    6.708      37.040
2015    5        6     8   6    4.9403   431.7    6.706      37.038
2015    5        6     8  11    4.9397   431.6    6.704      37.036
2015    5        6     8  17    4.9391   431.6    6.702      37.034
2015    5        6     8  23    4.9385   431.6    6.701      37.032
2015    5        6     8  28    4.9378   431.6    6.699      37.029
2015    5        6     8  34    4.9371   431.6    6.697      37.027
2015    5        6     8  40    4.9364   431.6    6.695      37.024
2015    5        6     8  46    4.9356   431.5    6.694      37.021
2015    5        6     8  51    4.9348   431.5    6.692      37.018
2015    5        6     8  57    4.9339   431.5    6.690      37.016
2015    5        6     9   3    4.9330   431.5    6.688      37.013
2015    5        6     9   8    4.9320   431.5    6.687      37.010
2015    5        6     9  14    4.9311   431.5    6.685      37.007
2015    5        6     9  20    4.9301   431.4    6.683      37.004
2015    5        6     9  25    4.9290   431.4    6.682      37.001
2015    5        6     9  31    4.9280   431.4    6.680      36.998
2015    5        6     9  37    4.9269   431.4    6.679      36.996
2015    5        6     9  43    4.9257   431.4    6.678      36.993
2015    5        6     9  48    4.9246   431.3    6.677      36.991
2015    5        6     9  54    4.9234   431.3    6.675      36.989
2015    5        6    10   0    4.9221   431.3    6.674      36.987
2015    5        6    10   5    4.9208   431.3    6.673      36.985
2015    5        6    10  11    4.9196   431.3    6.672      36.983
2015    5        6    10  17    4.9182   431.3    6.671      36.982
2015    5        6    10  22    4.9169   431.2    6.670      36.981
2015    5        6    10  28    4.9154   431.2    6.669      36.980
2015    5        6    10  34    4.9140   431.2    6.668      36.979
2015    5        6    10  40    4.9125   431.2    6.667      36.978
2015    5        6    10  45    4.9111   431.2    6.666      36.977
2015    5        6    10  51    4.9095   431.2    6.664      36.975
2015    5        6    10  57    4.9080   431.2    6.663      36.973
2015    5        6    11   2    4.9064   431.2    6.661      36.971
2015    5        6    11   8    4.9047   431.2    6.659      36.968
2015    5        6    11  14    4.9031   431.1    6.658      36.964
2015    5        6    11  19    4.9014   431.1    6.656      36.961
2015    5        6    11  25    4.8997   431.1    6.654      36.956
2015    5        6    11  31    4.8980   431.1    6.652      36.951
2015    5        6    11  37    4.8962   431.1    6.649      36.946
2015    5        6    11  42    4.8945   431.1    6.647      36.940
2015    5        6    11  48    4.8926   431.1    6.645      36.933
2015    5        6    11  54    4.8908   431.1    6.642      36.926
2015    5        6    11  59    4.8890   431.1    6.640      36.919
2015    5        6    12   5    4.8871   431.1    6.637      36.911
2015    5        6    12  11    4.8852   431.1    6.634      36.902
2015    5        6    12  17    4.8833   431.1    6.632      36.893
2015    5        6    12  22    4.8814   431.0    6.629      36.884
2015    5        6    12  28    4.8794   431.0    6.626      36.875
2015    5        6    12  34    4.8774   431.0    6.623      36.865
2015    5        6    12  39    4.8754   431.0    6.620      36.855
2015    5        6    12  45    4.8734   431.0    6.617      36.845
2015    5        6    12  51    4.8714   431.0    6.614      36.835
2015    5        6    12  56    4.8693   431.0    6.611      36.825
2015    5        6    13   2    4.8673   431.0    6.607      36.815
2015    5        6    13   8    4.8652   431.0    6.604      36.804
2015    5        6    13  14    4.8631   431.0    6.600      36.794
2015    5        6    13  19    4.8610   431.0    6.596      36.782
2015    5        6    13  25    4.8589   431.0    6.592      36.771
2015    5        6    13  31    4.8567   431.0    6.588      36.759
2015    5        6    13  36    4.8546   431.0    6.584      36.747
2015    5        6    13  42    4.8524   431.0    6.580      36.735
2015    5        6    13  48    4.8502   431.0    6.575      36.722
2015    5        6    13  53    4.8481   431.0    6.571      36.709
2015    5        6    13  59    4.8459   431.0    6.566      36.695
2015    5        6    14   5    4.8437   431.0    6.561      36.682
2015    5        6    14  11    4.8415   431.0    6.556      36.668
2015    5        6    14  16    4.8393   431.0    6.551      36.654
2015    5        6    14  22    4.8371   431.0    6.546      36.639
2015    5        6    14  28    4.8349   431.0    6.541      36.625
2015    5        6    14  33    4.8327   431.0    6.536      36.610
2015    5        6    14  39    4.8306   431.0    6.530      36.595
2015    5        6    14  45    4.8285   430.9    6.525      36.580
2015    5        6    14  51    4.8263   430.9    6.520      36.565
2015    5        6    14  56    4.8243   430.9    6.514      36.549
2015    5        6    15   2    4.8222   430.9    6.509      36.534
2015    5        6    15   8    4.8201   430.9    6.503      36.518
2015    5        6    15  13    4.8181   430.9    6.497      36.503
2015    5        6    15  19    4.8161   430.9    6.492      36.487
2015    5        6    15  25    4.8142   430.9    6.486      36.471
2015    5        6    15  30    4.8122   430.9    6.480      36.455
2015    5        6    15  36    4.8103   430.9    6.474      36.440
2015    5        6    15  42    4.8084   430.9    6.468      36.424
2015    5        6    15  48    4.8065   430.9    6.463      36.408
2015    5        6    15  53    4.8047   430.8    6.457      36.393
2015    5        6    15  59    4.8029   430.8    6.451      36.377
2015    5        6    16   5    4.8011   430.8    6.445      36.362
2015    5        6    16  10    4.7994   430.8    6.439      36.346
2015    5        6    16  16    4.7976   430.8    6.432      36.331
2015    5        6    16  22    4.7959   430.8    6.426      36.316
2015    5        6    16  27    4.7943   430.8    6.420      36.301
2015    5        6    16  33    4.7927   430.8    6.414      36.287
2015    5        6    16  39    4.7911   430.8    6.408      36.272
2015    5        6    16  45    4.7895   430.8    6.402      36.258
2015    5        6    16  50    4.7880   430.8    6.395      36.243
2015    5        6    16  56    4.7865   430.8    6.389      36.229
2015    5        6    17   2    4.7850   430.8    6.382      36.215
2015    5        6    17   7    4.7836   430.8    6.376      36.200
2015    5        6    17  13    4.7822   430.8    6.370      36.186
2015    5        6    17  19    4.7809   430.7    6.363      36.172
2015    5        6    17  24    4.7796   430.7    6.357      36.158
2015    5        6    17  30    4.7784   430.7    6.350      36.144
2015    5        6    17  36    4.7772   430.7    6.344      36.130
2015    5        6    17  42    4.7761   430.7    6.337      36.116
2015    5        6    17  47    4.7750   430.7    6.331      36.102
2015    5        6    17  53    4.7740   430.7    6.324      36.088
2015    5        6    17  59    4.7730   430.7    6.318      36.075
2015    5        6    18   4    4.7721   430.7    6.311      36.061
2015    5        6    18  10    4.7713   430.7    6.305      36.048
2015    5        6    18  16    4.7705   430.7    6.298      36.035
2015    5        6    18  21    4.7697   430.7    6.292      36.022
2015    5        6    18  27    4.7691   430.7    6.285      36.010
2015    5        6    18  33    4.7684   430.7    6.279      35.998
2015    5        6    18  39    4.7679   430.7    6.272      35.986
2015    5        6    18  44    4.7673   430.7    6.265      35.975
2015    5        6    18  50    4.7669   430.7    6.259      35.964
2015    5        6    18  56    4.7665   430.7    6.252      35.953
2015    5        6    19   1    4.7661   430.7    6.245      35.942
2015    5        6    19   7    4.7658   430.7    6.238      35.931
2015    5        6    19  13    4.7656   430.7    6.232      35.920
2015    5        6    19  18    4.7654   430.7    6.225      35.910
2015    5        6    19  24    4.7652   430.8    6.218      35.899
2015    5        6    19  30    4.7652   430.8    6.211      35.889
2015    5        6    19  36    4.7651   430.8    6.204      35.878
2015    5        6    19  41    4.7652   430.8    6.198      35.868
2015    5        6    19  47    4.7652   430.8    6.191      35.858
2015    5        6    19  53    4.7654   430.8    6.184      35.847
2015    5        6    19  58    4.7656   430.8    6.177      35.837
2015    5        6    20   4    4.7658   430.8    6.171      35.827
2015    5        6    20  10    4.7661   430.8    6.164      35.817
2015    5        6    20  15    4.7665   430.8    6.157      35.808
2015    5        6    20  21    4.7669   430.8    6.151      35.799
2015    5        6    20  27    4.7674   430.9    6.144      35.791
2015    5        6    20  33    4.7680   430.9    6.137      35.784
2015    5        6    20  38    4.7686   430.9    6.131      35.778
2015    5        6    20  44    4.7693   430.9    6.124      35.773
2015    5        6    20  50    4.7700   430.9    6.117      35.768
2015    5        6    20  55    4.7708   431.0    6.110      35.764
2015    5        6    21   1    4.7716   431.0    6.103      35.761
2015    5        6    21   7    4.7724   431.0    6.096      35.757
2015    5        6    21  12    4.7733   431.0    6.089      35.754
2015    5        6    21  18    4.7741   431.0    6.082      35.751
2015    5        6    21  24    4.7750   431.1    6.074      35.749
2015    5        6    21  30    4.7759   431.1    6.067      35.746
2015    5        6    21  35    4.7769   431.1    6.060      35.744
2015    5        6    21  41    4.7778   431.1    6.053      35.742
2015    5        6    21  47    4.7787   431.1    6.046      35.740
2015    5        6    21  52    4.7797   431.2    6.038      35.738
2015    5        6    21  58    4.7807   431.2    6.031      35.737
2015    5        6    22   4    4.7817   431.2    6.024      35.736
2015    5        6    22   9    4.7827   431.2    6.017      35.734
2015    5        6    22  15    4.7837   431.2    6.010      35.734
2015    5        6    22  21    4.7848   431.3    6.003      35.733
2015    5        6    22  27    4.7859   431.3    5.997      35.733
2015    5        6    22  32    4.7870   431.3    5.990      35.733
2015    5        6    22  38    4.7881   431.3    5.983      35.733
2015    5        6    22  44    4.7893   431.4    5.977      35.733
2015    5        6    22  49    4.7906   431.4    5.970      35.734
2015    5        6    22  55    4.7919   431.4    5.964      35.735
2015    5        6    23   1    4.7932   431.4    5.958      35.737
2015    5        6    23   6    4.7947   431.4    5.952      35.739
2015    5        6    23  12    4.7961   431.5    5.947      35.742
2015    5        6    23  18    4.7977   431.5    5.941      35.745
2015    5        6    23  24    4.7992   431.5    5.936      35.749
2015    5        6    23  29    4.8009   431.5    5.931      35.754
2015    5        6    23  35    4.8026   431.6    5.926      35.759
2015    5        6    23  41    4.8044   431.6    5.922      35.766
2015    5        6    23  46    4.8062   431.6    5.918      35.772
2015    5        6    23  52    4.8081   431.6    5.914      35.780
2015    5        6    23  58    4.8101   431.7    5.910      35.788
2015    5        7     0   3    4.8121   431.7    5.907      35.797
2015    5        7     0   9    4.8140   431.7    5.905      35.806
2015    5        7     0  15    4.8159   431.7    5.902      35.816
2015    5        7     0  21    4.8178   431.8    5.900      35.827
2015    5        7     0  26    4.8195   431.8    5.899      35.840
2015    5        7     0  32    4.8212   431.8    5.898      35.854
2015    5        7     0  38    4.8228   431.9    5.897      35.871
2015    5        7     0  43    4.8242   431.9    5.896      35.891
2015    5        7     0  49    4.8255   432.0    5.895      35.916
2015    5        7     0  55    4.8266   432.0    5.894      35.945
2015    5        7     1   0    4.8276   432.1    5.892      35.978
2015    5        7     1   6    4.8284   432.2    5.891      36.017
2015    5        7     1  12    4.8291   432.2    5.889      36.062
2015    5        7     1  18    4.8296   432.3    5.887      36.113
2015    5        7     1  23    4.8299   432.3    5.884      36.170
2015    5        7     1  29    4.8300   432.4    5.881      36.232
2015    5        7     1  35    4.8300   432.5    5.877      36.301
2015    5        7     1  40    4.8298   432.5    5.873      36.375
2015    5        7     1  46    4.8294   432.6    5.868      36.455
2015    5        7     1  52    4.8289   432.7    5.863      36.541
2015    5        7     1  57    4.8283   432.8    5.858      36.632
2015    5        7     2   3    4.8275   432.8    5.852      36.728
2015    5        7     2   9    4.8266   432.9    5.845      36.829
2015    5        7     2  15    4.8255   433.0    5.838      36.936
2015    5        7     2  20    4.8243   433.0    5.831      37.048
2015    5        7     2  26    4.8231   433.1    5.823      37.165
2015    5        7     2  32    4.8217   433.2    5.815      37.287
2015    5        7     2  37    4.8202   433.2    5.806      37.412
2015    5        7     2  43    4.8187   433.3    5.797      37.542
2015    5        7     2  49    4.8170   433.4    5.788      37.675
2015    5        7     2  54    4.8153   433.4    5.778      37.811
2015    5        7     3   0    4.8136   433.5    5.768      37.949
2015    5        7     3   6    4.8118   433.6    5.757      38.090
2015    5        7     3  11    4.8099   433.6    5.746      38.231
2015    5        7     3  17    4.8080   433.7    5.735      38.374
2015    5        7     3  23    4.8061   433.7    5.724      38.517
2015    5        7     3  29    4.8041   433.8    5.712      38.662
2015    5        7     3  34    4.8021   433.9    5.700      38.807
2015    5        7     3  40    4.8000   433.9    5.688      38.953
2015    5        7     3  46    4.7979   434.0    5.675      39.099
2015    5        7     3  51    4.7958   434.0    5.662      39.247
2015    5        7     3  57    4.7936   434.1    5.649      39.395
2015    5        7     4   3    4.7914   434.1    5.636      39.545
2015    5        7     4   8    4.7892   434.1    5.622      39.697
2015    5        7     4  14    4.7870   434.2    5.609      39.850
2015    5        7     4  20    4.7847   434.2    5.595      40.006
2015    5        7     4  26    4.7824   434.2    5.581      40.164
2015    5        7     4  31    4.7801   434.3    5.566      40.326
2015    5        7     4  37    4.7778   434.3    5.552      40.490
2015    5        7     4  43    4.7754   434.3    5.537      40.660
2015    5        7     4  48    4.7729   434.4    5.522      40.835
2015    5        7     4  54    4.7705   434.4    5.506      41.015
2015    5        7     5   0    4.7679   434.4    5.490      41.199
2015    5        7     5   5    4.7654   434.5    5.474      41.389
2015    5        7     5  11    4.7627   434.5    5.458      41.584
2015    5        7     5  17    4.7601   434.5    5.442      41.782
2015    5        7     5  23    4.7573   434.6    5.425      41.984
2015    5        7     5  28    4.7546   434.6    5.408      42.186
2015    5        7     5  34    4.7519   434.6    5.391      42.389
2015    5        7     5  40    4.7491   434.7    5.375      42.593
2015    5        7     5  45    4.7463   434.7    5.358      42.795
2015    5        7     5  51    4.7435   434.7    5.341      42.996
2015    5        7     5  57    4.7406   434.8    5.324      43.195
2015    5        7     6   2    4.7379   434.8    5.307      43.393
2015    5        7     6   8    4.7351   434.8    5.290      43.589
2015    5        7     6  14    4.7323   434.9    5.272      43.783
2015    5        7     6  20    4.7296   434.9    5.255      43.977
2015    5        7     6  25    4.7269   434.9    5.238      44.169
2015    5        7     6  31    4.7242   435.0    5.220      44.360
2015    5        7     6  37    4.7215   435.0    5.202      44.551
2015    5        7     6  42    4.7189   435.0    5.184      44.741
2015    5        7     6  48    4.7162   435.0    5.166      44.931
2015    5        7     6  54    4.7136   435.1    5.148      45.122
2015    5        7     6  59    4.7110   435.1    5.129      45.313
2015    5        7     7   5    4.7083   435.1    5.111      45.505
2015    5        7     7  11    4.7057   435.1    5.092      45.699
2015    5        7     7  16    4.7030   435.2    5.072      45.894
2015    5        7     7  22    4.7004   435.2    5.053      46.090
2015    5        7     7  28    4.6977   435.2    5.033      46.288
2015    5        7     7  34    4.6950   435.2    5.014      46.489
2015    5        7     7  39    4.6923   435.3    4.994      46.691
2015    5        7     7  45    4.6895   435.3    4.973      46.897
2015    5        7     7  51    4.6867   435.3    4.953      47.105
2015    5        7     7  56    4.6839   435.3    4.932      47.316
2015    5        7     8   2    4.6810   435.3    4.911      47.531
2015    5        7     8   8    4.6781   435.4    4.889      47.750
2015    5        7     8  13    4.6752   435.4    4.868      47.974
2015    5        7     8  19    4.6722   435.4    4.846      48.201
2015    5        7     8  25    4.6691   435.4    4.824      48.433
2015    5        7     8  31    4.6660   435.4    4.801      48.669
2015    5        7     8  36    4.6628   435.4    4.779      48.908
2015    5        7     8  42    4.6596   435.4    4.757      49.149
2015    5        7     8  48    4.6563   435.4    4.734      49.392
2015    5        7     8  53    4.6531   435.4    4.712      49.636
2015    5        7     8  59    4.6498   435.4    4.691      49.881
2015    5        7     9   5    4.6465   435.4    4.669      50.126
2015    5        7     9  10    4.6432   435.4    4.648      50.371
2015    5        7     9  16    4.6399   435.4    4.627      50.615
2015    5        7     9  22    4.6366   435.4    4.607      50.858
2015    5        7     9  28    4.6334   435.4    4.586      51.101
2015    5        7     9  33    4.6302   435.4    4.567      51.343
2015    5        7     9  39    4.6270   435.4    4.547      51.583
2015    5        7     9  45    4.6238   435.4    4.528      51.822
2015    5        7     9  50    4.6207   435.4    4.509      52.060
2015    5        7     9  56    4.6176   435.3    4.491      52.296
2015    5        7    10   2    4.6146   435.3    4.472      52.531
2015    5        7    10   7    4.6116   435.3    4.455      52.765
2015    5        7    10  13    4.6086   435.3    4.437      52.997
2015    5        7    10  19    4.6057   435.3    4.420      53.228
2015    5        7    10  25    4.6029   435.3    4.403      53.457
2015    5        7    10  30    4.6000   435.3    4.386      53.685
2015    5        7    10  36    4.5973   435.3    4.370      53.911
2015    5        7    10  42    4.5946   435.3    4.354      54.135
2015    5        7    10  47    4.5919   435.3    4.339      54.357
2015    5        7    10  53    4.5894   435.3    4.323      54.576
2015    5        7    10  59    4.5868   435.2    4.308      54.794
2015    5        7    11   4    4.5843   435.2    4.294      55.008
2015    5        7    11  10    4.5819   435.2    4.279      55.221
2015    5        7    11  16    4.5796   435.2    4.265      55.430
2015    5        7    11  21    4.5773   435.2    4.251      55.637
2015    5        7    11  27    4.5750   435.2    4.238      55.841
2015    5        7    11  33    4.5728   435.1    4.225      56.044
2015    5        7    11  39    4.5707   435.1    4.212      56.243
2015    5        7    11  44    4.5687   435.1    4.200      56.441
2015    5        7    11  50    4.5667   435.1    4.187      56.637
2015    5        7    11  56    4.5647   435.1    4.176      56.830
2015    5        7    12   1    4.5629   435.0    4.164      57.022
2015    5        7    12   7    4.5610   435.0    4.153      57.212
2015    5        7    12  13    4.5593   435.0    4.143      57.401
2015    5        7    12  18    4.5576   435.0    4.132      57.588
2015    5        7    12  24    4.5559   434.9    4.122      57.775
2015    5        7    12  30    4.5543   434.9    4.113      57.961
2015    5        7    12  36    4.5528   434.9    4.104      58.146
2015    5        7    12  41    4.5513   434.9    4.095      58.331
2015    5        7    12  47    4.5499   434.8    4.087      58.516
2015    5        7    12  53    4.5485   434.8    4.079      58.702
2015    5        7    12  58    4.5473   434.8    4.071      58.888
2015    5        7    13   4    4.5461   434.8    4.064      59.075
2015    5        7    13  10    4.5450   434.8    4.057      59.263
2015    5        7    13  15    4.5440   434.8    4.051      59.453
2015    5        7    13  21    4.5431   434.7    4.045      59.644
2015    5        7    13  27    4.5423   434.7    4.039      59.836
2015    5        7    13  32    4.5416   434.7    4.034      60.030
2015    5        7    13  38    4.5410   434.7    4.029      60.227
2015    5        7    13  44    4.5406   434.7    4.025      60.425
2015    5        7    13  50    4.5403   434.7    4.020      60.626
2015    5        7    13  55    4.5401   434.7    4.017      60.829
2015    5        7    14   1    4.5400   434.7    4.013      61.036
2015    5        7    14   7    4.5401   434.7    4.011      61.245
2015    5        7    14  12    4.5404   434.7    4.008      61.457
2015    5        7    14  18    4.5408   434.7    4.006      61.672
2015    5        7    14  24    4.5413   434.8    4.004      61.891
2015    5        7    14  29    4.5421   434.8    4.002      62.113
2015    5        7    14  35    4.5430   434.8    4.001      62.339
2015    5        7    14  41    4.5441   434.8    4.001      62.567
2015    5        7    14  47    4.5454   434.9    4.000      62.799
2015    5        7    14  52    4.5469   434.9    4.000      63.033
2015    5        7    14  58    4.5487   434.9    4.001      63.271
2015    5        7    15   4    4.5507   435.0    4.002      63.512
2015    5        7    15   9    4.5531   435.0    4.004      63.755
2015    5        7    15  15    4.5557   435.1    4.006      64.002
2015    5        7    15  21    4.5586   435.1    4.008      64.251
2015    5        7    15  26    4.5619   435.2    4.012      64.503
2015    5        7    15  32    4.5656   435.2    4.015      64.757
2015    5        7    15  38    4.5696   435.3    4.020      65.013
2015    5        7    15  43    4.5740   435.4    4.025      65.272
2015    5        7    15  49    4.5789   435.5    4.030      65.533
2015    5        7    15  55    4.5844   435.5    4.037      65.796
2015    5        7    16   1    4.5903   435.6    4.043      66.061
2015    5        7    16   6    4.5967   435.7    4.051      66.328
2015    5        7    16  12    4.6034   435.8    4.059      66.597
2015    5        7    16  18    4.6107   435.9    4.069      66.867
2015    5        7    16  23    4.6183   436.0    4.078      67.139
2015    5        7    16  29    4.6262   436.1    4.089      67.412
2015    5        7    16  35    4.6344   436.3    4.100      67.687
2015    5        7    16  40    4.6429   436.4    4.112      67.963
2015    5        7    16  46    4.6518   436.5    4.125      68.241
2015    5        7    16  52    4.6611   436.6    4.139      68.519
2015    5        7    16  58    4.6707   436.8    4.154      68.798
2015    5        7    17   3    4.6805   436.9    4.169      69.078
2015    5        7    17   9    4.6905   437.0    4.185      69.359
2015    5        7    17  15    4.7006   437.2    4.202      69.639
2015    5        7    17  20    4.7105   437.3    4.220      69.920
2015    5        7    17  26    4.7204   437.5    4.239      70.199
2015    5        7    17  32    4.7300   437.7    4.259      70.478
2015    5        7    17  37    4.7396   437.8    4.280      70.757
2015    5        7    17  43    4.7488   438.0    4.301      71.038
2015    5        7    17  49    4.7578   438.2    4.323      71.323
2015    5        7    17  54    4.7664   438.4    4.345      71.613
2015    5        7    18   0    4.7747   438.5    4.367      71.909
2015    5        7    18   6    4.7825   438.7    4.390      72.212
2015    5        7    18  12    4.7899   438.9    4.412      72.518
2015    5        7    18  17    4.7969   439.0    4.434      72.826
2015    5        7    18  23    4.8033   439.2    4.457      73.134
2015    5        7    18  29    4.8093   439.3    4.479      73.440
2015    5        7    18  34    4.8148   439.5    4.502      73.741
2015    5        7    18  40    4.8199   439.6    4.524      74.036
2015    5        7    18  46    4.8245   439.8    4.546      74.326
2015    5        7    18  51    4.8286   439.9    4.567      74.608
2015    5        7    18  57    4.8322   440.0    4.589      74.883
2015    5        7    19   3    4.8354   440.1    4.610      75.153
2015    5        7    19   9    4.8381   440.2    4.631      75.416
2015    5        7    19  14    4.8404   440.3    4.651      75.674
2015    5        7    19  20    4.8421   440.4    4.671      75.928
2015    5        7    19  26    4.8435   440.4    4.691      76.179
2015    5        7    19  31    4.8444   440.4    4.710      76.429
2015    5        7    19  37    4.8448   440.5    4.728      76.676
2015    5        7    19  43    4.8447   440.5    4.746      76.922
2015    5        7    19  48    4.8443   440.5    4.763      77.167
2015    5        7    19  54    4.8433   440.5    4.780      77.409
2015    5        7    20   0    4.8420   440.5    4.797      77.649
2015    5        7    20   5    4.8401   440.4    4.812      77.887
2015    5        7    20  11    4.8379   440.4    4.828      78.123
2015    5        7    20  17    4.8352   440.4    4.843      78.358
2015    5        7    20  23    4.8321   440.3    4.857      78.590
2015    5        7    20  28    4.8285   440.3    4.872      78.820
2015    5        7    20  34    4.8246   440.2    4.885      79.049
2015    5        7    20  40    4.8204   440.2    4.899      79.275
2015    5        7    20  45    4.8158   440.1    4.912      79.498
2015    5        7    20  51    4.8110   440.0    4.925      79.719
2015    5        7    20  57    4.8060   440.0    4.938      79.937
2015    5        7    21   2    4.8007   439.9    4.950      80.153
2015    5        7    21   8    4.7953   439.8    4.962      80.366
2015    5        7    21  14    4.7897   439.7    4.974      80.576
2015    5        7    21  20    4.7839   439.6    4.986      80.783
2015    5        7    21  25    4.7780   439.5    4.998      80.985
2015    5        7    21  31    4.7719   439.4    5.009      81.183
2015    5        7    21  37    4.7656   439.3    5.020      81.377
2015    5        7    21  42    4.7592   439.2    5.032      81.565
2015    5        7    21  48    4.7526   439.1    5.042      81.746
2015    5        7    21  54    4.7458   439.0    5.053      81.922
2015    5        7    21  59    4.7389   438.9    5.064      82.092
2015    5        7    22   5    4.7319   438.7    5.074      82.254
2015    5        7    22  11    4.7248   438.6    5.085      82.411
2015    5        7    22  16    4.7176   438.5    5.095      82.560
2015    5        7    22  22    4.7102   438.4    5.105      82.703
2015    5        7    22  28    4.7029   438.2    5.115      82.838
2015    5        7    22  34    4.6954   438.1    5.125      82.966
2015    5        7    22  39    4.6880   438.0    5.135      83.086
2015    5        7    22  45    4.6804   437.9    5.144      83.199
2015    5        7    22  51    4.6729   437.7    5.154      83.305
2015    5        7    22  56    4.6654   437.6    5.163      83.403
2015    5        7    23   2    4.6578   437.4    5.172      83.494
2015    5        7    23   8    4.6503   437.3    5.182      83.578
2015    5        7    23  13    4.6428   437.2    5.191      83.654
2015    5        7    23  19    4.6352   437.0    5.200      83.724
2015    5        7    23  25    4.6277   436.9    5.208      83.786
2015    5        7    23  30    4.6202   436.7    5.217      83.841
2015    5        7    23  36    4.6128   436.6    5.226      83.890
2015    5        7    23  42    4.6053   436.4    5.234      83.932
2015    5        7    23  48    4.5980   436.3    5.243      83.968
2015    5        7    23  53    4.5906   436.1    5.251      83.997
2015    5        7    23  59    4.5834   436.0    5.259      84.021
2015    5        8     0   5    4.5761   435.8    5.268      84.038
2015    5        8     0  10    4.5689   435.6    5.276      84.051
2015    5        8     0  16    4.5618   435.5    5.284      84.058
2015    5        8     0  22    4.5547   435.3    5.292      84.059
2015    5        8     0  27    4.5477   435.2    5.299      84.056
2015    5        8     0  33    4.5407   435.0    5.307      84.049
2015    5        8     0  39    4.5338   434.8    5.315      84.037
2015    5        8     0  45    4.5270   434.7    5.322      84.020
2015    5        8     0  50    4.5201   434.5    5.330      84.000
2015    5        8     0  56    4.5134   434.3    5.337      83.976
2015    5        8     1   2    4.5067   434.1    5.345      83.948
2015    5        8     1   7    4.5001   434.0    5.352      83.918
2015    5        8     1  13    4.4935   433.8    5.359      83.884
2015    5        8     1  19    4.4870   433.6    5.366      83.847
2015    5        8     1  24    4.4806   433.4    5.373      83.808
2015    5        8     1  30    4.4742   433.3    5.380      83.766
2015    5        8     1  36    4.4678   433.1    5.387      83.722
2015    5        8     1  41    4.4616   432.9    5.394      83.675
2015    5        8     1  47    4.4554   432.7    5.401      83.627
2015    5        8     1  53    4.4493   432.5    5.408      83.576
2015    5        8     1  59    4.4432   432.3    5.415      83.523
2015    5        8     2   4    4.4372   432.1    5.422      83.468
2015    5        8     2  10    4.4313   432.0    5.428      83.411
2015    5        8     2  16    4.4254   431.8    5.435      83.352
2015    5        8     2  21    4.4196   431.6    5.442      83.290
2015    5        8     2  27    4.4140   431.4    5.449      83.227
2015    5        8     2  33    4.4083   431.2    5.456      83.161
2015    5        8     2  38    4.4028   431.0    5.463      83.093
2015    5        8     2  44    4.3974   430.8    5.470      83.023
2015    5        8     2  50    4.3921   430.6    5.478      82.951
2015    5        8     2  55    4.3868   430.4    5.485      82.877
2015    5        8     3   1    4.3817   430.2    5.492      82.801
2015    5        8     3   7    4.3766   430.0    5.500      82.723
2015    5        8     3  13    4.3717   429.8    5.508      82.644
2015    5        8     3  18    4.3669   429.6    5.516      82.563
2015    5        8     3  24    4.3622   429.4    5.524      82.480
2015    5        8     3  30    4.3576   429.2    5.532      82.395
2015    5        8     3  35    4.3532   429.0    5.541      82.309
2015    5        8     3  41    4.3489   428.9    5.550      82.222
2015    5        8     3  47    4.3447   428.7    5.559      82.133
2015    5        8     3  52    4.3407   428.5    5.568      82.043
2015    5        8     3  58    4.3369   428.3    5.577      81.951
2015    5        8     4   4    4.3331   428.1    5.587      81.858
2015    5        8     4  10    4.3296   427.9    5.597      81.764
2015    5        8     4  15    4.3262   427.7    5.607      81.668
2015    5        8     4  21    4.3230   427.6    5.618      81.572
2015    5        8     4  27    4.3200   427.4    5.629      81.474
2015    5        8     4  32    4.3171   427.2    5.640      81.375
2015    5        8     4  38    4.3144   427.0    5.651      81.275
2015    5        8     4  44    4.3119   426.8    5.663      81.174
2015    5        8     4  49    4.3095   426.7    5.674      81.072
2015    5        8     4  55    4.3074   426.5    5.687      80.969
2015    5        8     5   1    4.3054   426.3    5.699      80.864
2015    5        8     5   6    4.3035   426.1    5.712      80.759
2015    5        8     5  12    4.3019   426.0    5.724      80.651
2015    5        8     5  18    4.3004   425.8    5.738      80.541
2015    5        8     5  24    4.2991   425.6    5.751      80.430
2015    5        8     5  29    4.2979   425.5    5.765      80.315
2015    5        8     5  35    4.2969   425.3    5.779      80.198
2015    5        8     5  41    4.2960   425.1    5.793      80.078
2015    5        8     5  46    4.2953   424.9    5.807      79.956
2015    5        8     5  52    4.2948   424.8    5.822      79.831
2015    5        8     5  58    4.2943   424.6    5.837      79.703
2015    5        8     6   3    4.2941   424.4    5.852      79.572
2015    5        8     6   9    4.2939   424.3    5.867      79.439
2015    5        8     6  15    4.2939   424.1    5.883      79.302
2015    5        8     6  20    4.2940   423.9    5.899      79.163
2015    5        8     6  26    4.2943   423.8    5.915      79.022
2015    5        8     6  32    4.2946   423.6    5.931      78.878
2015    5        8     6  38    4.2951   423.4    5.948      78.731
2015    5        8     6  43    4.2957   423.3    5.964      78.582
2015    5        8     6  49    4.2963   423.1    5.981      78.430
2015    5        8     6  55    4.2971   422.9    5.999      78.275
2015    5        8     7   0    4.2980   422.8    6.016      78.119
2015    5        8     7   6    4.2990   422.6    6.033      77.959
2015    5        8     7  12    4.3000   422.4    6.051      77.798
2015    5        8     7  17    4.3012   422.3    6.069      77.634
2015    5        8     7  23    4.3024   422.1    6.087      77.468
2015    5        8     7  29    4.3037   421.9    6.106      77.299
2015    5        8     7  35    4.3051   421.8    6.124      77.129
2015    5        8     7  40    4.3066   421.6    6.143      76.956
2015    5        8     7  46    4.3081   421.4    6.162      76.781
2015    5        8     7  52    4.3097   421.2    6.181      76.604
2015    5        8     7  57    4.3114   421.1    6.201      76.425
2015    5        8     8   3    4.3131   420.9    6.220      76.244
2015    5        8     8   9    4.3149   420.7    6.240      76.061
2015    5        8     8  14    4.3168   420.5    6.260      75.877
2015    5        8     8  20    4.3187   420.4    6.280      75.691
2015    5        8     8  26    4.3207   420.2    6.301      75.503
2015    5        8     8  31    4.3227   420.0    6.321      75.314
2015    5        8     8  37    4.3248   419.8    6.342      75.123
2015    5        8     8  43    4.3269   419.6    6.364      74.930
2015    5        8     8  49    4.3291   419.5    6.385      74.737
2015    5        8     8  54    4.3313   419.3    6.407      74.542
2015    5        8     9   0    4.3336   419.1    6.429      74.346
2015    5        8     9   6    4.3360   418.9    6.451      74.149
2015    5        8     9  11    4.3384   418.7    6.473      73.951
2015    5        8     9  17    4.3408   418.5    6.496      73.752
2015    5        8     9  23    4.3433   418.4    6.519      73.553
2015    5        8     9  28    4.3458   418.2    6.542      73.353
2015    5        8     9  34    4.3484   418.0    6.566      73.153
2015    5        8     9  40    4.3511   417.8    6.590      72.952
2015    5        8     9  45    4.3538   417.6    6.614      72.750
2015    5        8     9  51    4.3566   417.4    6.639      72.549
2015    5        8     9  57    4.3594   417.3    6.664      72.347
2015    5        8    10   3    4.3622   417.1    6.689      72.145
2015    5        8    10   8    4.3651   416.9    6.714      71.943
2015    5        8    10  14    4.3681   416.7    6.740      71.742
2015    5        8    10  20    4.3711   416.5    6.766      71.540
2015    5        8    10  25    4.3742   416.4    6.793      71.339
2015    5        8    10  31    4.3773   416.2    6.820      71.138
2015    5        8    10  37    4.3804   416.0    6.847      70.938
2015    5        8    10  42    4.3837   415.8    6.875      70.738
2015    5        8    10  48    4.3869   415.6    6.903      70.538
2015    5        8    10  54    4.3902   415.5    6.931      70.340
2015    5        8    10  59    4.3936   415.3    6.960      70.142
2015    5        8    11   5    4.3970   415.1    6.989      69.945
2015    5        8    11  11    4.4004   414.9    7.019      69.748
2015    5        8    11  17    4.4039   414.8    7.048      69.553
2015    5        8    11  22    4.4074   414.6    7.079      69.358
2015    5        8    11  28    4.4110   414.4    7.109      69.165
2015    5        8    11  34    4.4146   414.3    7.140      68.972
2015    5        8    11  39    4.4183   414.1    7.171      68.781
2015    5        8    11  45    4.4220   413.9    7.203      68.591
2015    5        8    11  51    4.4257   413.7    7.235      68.401
2015    5        8    11  56    4.4295   413.6    7.267      68.213
2015    5        8    12   2    4.4333   413.4    7.299      68.027
2015    5        8    12   8    4.4372   413.2    7.332      67.841
2015    5        8    12  14    4.4411   413.1    7.365      67.657
2015    5        8    12  19    4.4450   412.9    7.399      67.474
2015    5        8    12  25    4.4490   412.8    7.432      67.292
2015    5        8    12  31    4.4529   412.6    7.466      67.111
2015    5        8    12  36    4.4570   412.4    7.500      66.932
2015    5        8    12  42    4.4610   412.3    7.534      66.754
2015    5        8    12  48    4.4651   412.1    7.569      66.577
2015    5        8    12  53    4.4692   411.9    7.604      66.401
2015    5        8    12  59    4.4734   411.8    7.638      66.226
2015    5        8    13   5    4.4776   411.6    7.673      66.052
2015    5        8    13  10    4.4819   411.5    7.709      65.879
2015    5        8    13  16    4.4862   411.3    7.744      65.707
2015    5        8    13  22    4.4905   411.1    7.779      65.536
2015    5        8    13  28    4.4949   411.0    7.815      65.365
2015    5        8    13  33    4.4994   410.8    7.851      65.196
2015    5        8    13  39    4.5039   410.7    7.886      65.027
2015    5        8    13  45    4.5084   410.5    7.922      64.860
2015    5        8    13  50    4.5131   410.3    7.958      64.693
2015    5        8    13  56    4.5178   410.2    7.994      64.528
2015    5        8    14   2    4.5226   410.0    8.030      64.363
2015    5        8    14   7    4.5275   409.9    8.066      64.200
2015    5        8    14  13    4.5325   409.7    8.103      64.038
2015    5        8    14  19    4.5376   409.5    8.139      63.877
2015    5        8    14  24    4.5428   409.4    8.175      63.717
2015    5        8    14  30    4.5482   409.2    8.212      63.559
2015    5        8    14  36    4.5537   409.0    8.248      63.402
2015    5        8    14  42    4.5594   408.9    8.285      63.248
2015    5        8    14  47    4.5653   408.7    8.322      63.095
2015    5        8    14  53    4.5714   408.5    8.358      62.943
2015    5        8    14  59    4.5777   408.3    8.395      62.794
2015    5        8    15   4    4.5844   408.1    8.432      62.648
2015    5        8    15  10    4.5912   408.0    8.469      62.506
2015    5        8    15  16    4.5984   407.8    8.505      62.367
2015    5        8    15  21    4.6058   407.6    8.541      62.230
2015    5        8    15  27    4.6137   407.4    8.577      62.095
2015    5        8    15  33    4.6218   407.2    8.613      61.963
2015    5        8    15  38    4.6304   407.0    8.648      61.833
2015    5        8    15  44    4.6394   406.9    8.683      61.706
2015    5        8    15  50    4.6488   406.7    8.717      61.578
2015    5        8    15  56    4.6586   406.5    8.751      61.452
2015    5        8    16   1    4.6690   406.3    8.784      61.326
2015    5        8    16   7    4.6798   406.2    8.817      61.200
2015    5        8    16  13    4.6912   406.0    8.849      61.074
2015    5        8    16  18    4.7031   405.8    8.881      60.948
2015    5        8    16  24    4.7155   405.7    8.911      60.822
2015    5        8    16  30    4.7284   405.5    8.942      60.696
2015    5        8    16  35    4.7420   405.4    8.971      60.569
2015    5        8    16  41    4.7560   405.2    9.000      60.442
2015    5        8    16  47    4.7707   405.1    9.027      60.313
2015    5        8    16  52    4.7858   404.9    9.054      60.184
2015    5        8    16  58    4.8016   404.8    9.081      60.054
2015    5        8    17   4    4.8179   404.7    9.106      59.924
2015    5        8    17  10    4.8347   404.6    9.130      59.792
2015    5        8    17  15    4.8520   404.4    9.154      59.660
2015    5        8    17  21    4.8699   404.3    9.177      59.527
2015    5        8    17  27    4.8881   404.2    9.199      59.393
2015    5        8    17  32    4.9068   404.1    9.220      59.258
2015    5        8    17  38    4.9258   404.0    9.240      59.123
2015    5        8    17  44    4.9453   403.9    9.259      58.986
2015    5        8    17  49    4.9651   403.7    9.277      58.849
2015    5        8    17  55    4.9853   403.6    9.295      58.712
2015    5        8    18   1    5.0057   403.5    9.311      58.574
2015    5        8    18   7    5.0266   403.5    9.327      58.435
2015    5        8    18  12    5.0478   403.4    9.342      58.296
2015    5        8    18  18    5.0692   403.3    9.356      58.156
2015    5        8    18  24    5.0909   403.2    9.369      58.016
2015    5        8    18  29    5.1129   403.1    9.381      57.876
2015    5        8    18  35    5.1350   403.0    9.392      57.735
2015    5        8    18  41    5.1573   403.0    9.402      57.594
2015    5        8    18  46    5.1797   402.9    9.412      57.454
2015    5        8    18  52    5.2021   402.8    9.421      57.313
2015    5        8    18  58    5.2244   402.8    9.429      57.172
2015    5        8    19   3    5.2468   402.7    9.436      57.032
2015    5        8    19   9    5.2691   402.6    9.442      56.891
2015    5        8    19  15    5.2913   402.6    9.448      56.751
2015    5        8    19  21    5.3133   402.5    9.453      56.610
2015    5        8    19  26    5.3353   402.5    9.457      56.470
2015    5        8    19  32    5.3572   402.4    9.461      56.330
2015    5        8    19  38    5.3789   402.4    9.464      56.189
2015    5        8    19  43    5.4006   402.3    9.466      56.048
2015    5        8    19  49    5.4221   402.3    9.467      55.907
2015    5        8    19  55    5.4435   402.3    9.468      55.766
2015    5        8    20   0    5.4648   402.2    9.468      55.624
2015    5        8    20   6    5.4859   402.2    9.468      55.481
2015    5        8    20  12    5.5069   402.2    9.467      55.338
2015    5        8    20  17    5.5278   402.2    9.465      55.193
2015    5        8    20  23    5.5486   402.2    9.463      55.048
2015    5        8    20  29    5.5692   402.1    9.461      54.901
2015    5        8    20  35    5.5897   402.1    9.458      54.753
2015    5        8    20  40    5.6100   402.1    9.454      54.603
2015    5        8    20  46    5.6302   402.1    9.450      54.452
2015    5        8    20  52    5.6502   402.1    9.446      54.300
2015    5        8    20  57    5.6702   402.1    9.441      54.147
2015    5        8    21   3    5.6899   402.1    9.436      53.993
2015    5        8    21   9    5.7094   402.1    9.430      53.837
2015    5        8    21  14    5.7288   402.1    9.424      53.680
2015    5        8    21  20    5.7480   402.2    9.417      53.522
2015    5        8    21  26    5.7669   402.2    9.411      53.362
2015    5        8    21  31    5.7857   402.2    9.404      53.201
2015    5        8    21  37    5.8041   402.2    9.396      53.038
2015    5        8    21  43    5.8224   402.3    9.388      52.873
2015    5        8    21  49    5.8404   402.3    9.380      52.706
2015    5        8    21  54    5.8581   402.3    9.372      52.537
2015    5        8    22   0    5.8754   402.4    9.363      52.366
2015    5        8    22   6    5.8925   402.4    9.354      52.192
2015    5        8    22  11    5.9091   402.5    9.345      52.017
2015    5        8    22  17    5.9254   402.5    9.335      51.840
2015    5        8    22  23    5.9413   402.6    9.325      51.663
2015    5        8    22  28    5.9568   402.6    9.315      51.484
2015    5        8    22  34    5.9718   402.7    9.304      51.304
2015    5        8    22  40    5.9864   402.8    9.294      51.124
2015    5        8    22  45    6.0004   402.8    9.282      50.943
2015    5        8    22  51    6.0141   402.9    9.271      50.762
2015    5        8    22  57    6.0272   403.0    9.260      50.580
2015    5        8    23   3    6.0399   403.1    9.248      50.397
2015    5        8    23   8    6.0521   403.1    9.235      50.214
2015    5        8    23  14    6.0637   403.2    9.223      50.029
2015    5        8    23  20    6.0749   403.3    9.210      49.843
2015    5        8    23  25    6.0856   403.4    9.198      49.656
2015    5        8    23  31    6.0957   403.5    9.184      49.468
2015    5        8    23  37    6.1054   403.6    9.171      49.278
2015    5        8    23  42    6.1145   403.7    9.158      49.083
2015    5        8    23  48    6.1232   403.8    9.144      48.887
2015    5        8    23  54    6.1315   403.9    9.130      48.690
2015    5        8    23  59    6.1392   404.0    9.116      48.492
2015    5        9     0   5    6.1465   404.1    9.102      48.295
2015    5        9     0  11    6.1533   404.2    9.087      48.099
2015    5        9     0  17    6.1597   404.3    9.073      47.905
2015    5        9     0  22    6.1657   404.4    9.058      47.715
2015    5        9     0  28    6.1712   404.5    9.043      47.529
2015    5        9     0  34    6.1764   404.6    9.028      47.349
2015    5        9     0  39    6.1811   404.8    9.013      47.175
2015    5        9     0  45    6.1856   404.9    8.998      47.007
2015    5        9     0  51    6.1896   405.0    8.982      46.844
2015    5        9     0  56    6.1933   405.2    8.967      46.687
2015    5        9     1   2    6.1967   405.3    8.951      46.537
2015    5        9     1   8    6.1998   405.5    8.935      46.393
2015    5        9     1  14    6.2026   405.6    8.919      46.256
2015    5        9     1  19    6.2050   405.8    8.902      46.126
2015    5        9     1  25    6.2071   405.9    8.886      46.003
2015    5        9     1  31    6.2089   406.0    8.869      45.886
2015    5        9     1  36    6.2102   406.2    8.852      45.775
2015    5        9     1  42    6.2113   406.3    8.835      45.671
2015    5        9     1  48    6.2119   406.5    8.818      45.573
2015    5        9     1  53    6.2123   406.6    8.802      45.480
2015    5        9     1  59    6.2123   406.7    8.786      45.393
2015    5        9     2   5    6.2120   406.8    8.770      45.310
2015    5        9     2  10    6.2115   407.0    8.754      45.232
2015    5        9     2  16    6.2107   407.1    8.739      45.160
2015    5        9     2  22    6.2096   407.2    8.725      45.092
2015    5        9     2  28    6.2085   407.3    8.710      45.027
2015    5        9     2  33    6.2071   407.5    8.697      44.965
2015    5        9     2  39    6.2057   407.6    8.683      44.906
2015    5        9     2  45    6.2042   407.7    8.671      44.851
2015    5        9     2  50    6.2026   407.9    8.658      44.800
2015    5        9     2  56    6.2010   408.0    8.646      44.753
2015    5        9     3   2    6.1994   408.2    8.635      44.710
2015    5        9     3   7    6.1978   408.3    8.624      44.670
2015    5        9     3  13    6.1962   408.5    8.613      44.634
2015    5        9     3  19    6.1947   408.7    8.602      44.601
2015    5        9     3  24    6.1931   408.9    8.591      44.571
2015    5        9     3  30    6.1916   409.1    8.581      44.542
2015    5        9     3  36    6.1899   409.3    8.571      44.514
2015    5        9     3  42    6.1883   409.5    8.560      44.485
2015    5        9     3  47    6.1865   409.7    8.550      44.457
2015    5        9     3  53    6.1846   409.9    8.541      44.428
2015    5        9     3  59    6.1825   410.1    8.531      44.398
2015    5        9     4   4    6.1802   410.4    8.521      44.369
2015    5        9     4  10    6.1777   410.6    8.512      44.339
2015    5        9     4  16    6.1749   410.8    8.502      44.309
2015    5        9     4  21    6.1719   411.0    8.492      44.279
2015    5        9     4  27    6.1685   411.3    8.482      44.248
2015    5        9     4  33    6.1648   411.5    8.472      44.218
2015    5        9     4  38    6.1608   411.7    8.461      44.188
2015    5        9     4  44    6.1564   412.0    8.450      44.157
2015    5        9     4  50    6.1516   412.2    8.439      44.127
2015    5        9     4  56    6.1464   412.4    8.427      44.095
2015    5        9     5   1    6.1407   412.7    8.415      44.064
2015    5        9     5   7    6.1344   412.9    8.403      44.033
2015    5        9     5  13    6.1278   413.1    8.390      44.002
2015    5        9     5  18    6.1206   413.3    8.377      43.970
2015    5        9     5  24    6.1131   413.5    8.365      43.937
2015    5        9     5  30    6.1051   413.7    8.351      43.904
2015    5        9     5  35    6.0969   413.9    8.338      43.870
2015    5        9     5  41    6.0883   414.1    8.325      43.836
2015    5        9     5  47    6.0794   414.4    8.311      43.800
2015    5        9     5  52    6.0703   414.6    8.298      43.764
2015    5        9     5  58    6.0610   414.8    8.284      43.727
2015    5        9     6   4    6.0514   415.0    8.270      43.689
2015    5        9     6  10    6.0417   415.2    8.256      43.651
2015    5        9     6  15    6.0318   415.4    8.242      43.611
2015    5        9     6  21    6.0217   415.6    8.228      43.572
2015    5        9     6  27    6.0115   415.8    8.213      43.532
2015    5        9     6  32    6.0011   416.0    8.199      43.491
2015    5        9     6  38    5.9905   416.2    8.184      43.448
2015    5        9     6  44    5.9798   416.4    8.169      43.405
2015    5        9     6  49    5.9689   416.6    8.154      43.361
2015    5        9     6  55    5.9579   416.8    8.138      43.317
2015    5        9     7   1    5.9466   417.1    8.122      43.272
2015    5        9     7   6    5.9354   417.3    8.106      43.227
2015    5        9     7  12    5.9240   417.5    8.090      43.182
2015    5        9     7  18    5.9127   417.7    8.074      43.137
2015    5        9     7  24    5.9013   418.0    8.057      43.092
2015    5        9     7  29    5.8902   418.2    8.040      43.046
2015    5        9     7  35    5.8793   418.4    8.023      43.000
2015    5        9     7  41    5.8687   418.7    8.006      42.954
2015    5        9     7  46    5.8583   418.9    7.989      42.908
2015    5        9     7  52    5.8483   419.1    7.972      42.862
2015    5        9     7  58    5.8386   419.3    7.956      42.817
2015    5        9     8   3    5.8294   419.4    7.939      42.772
2015    5        9     8   9    5.8204   419.6    7.923      42.729
2015    5        9     8  15    5.8119   419.7    7.908      42.688
2015    5        9     8  20    5.8037   419.9    7.892      42.648
2015    5        9     8  26    5.7959   420.0    7.878      42.610
2015    5        9     8  32    5.7885   420.2    7.864      42.574
2015    5        9     8  38    5.7816   420.3    7.850      42.539
2015    5        9     8  43    5.7750   420.5    7.837      42.507
2015    5        9     8  49    5.7688   420.6    7.825      42.476
2015    5        9     8  55    5.7630   420.8    7.813      42.447
2015    5        9     9   0    5.7575   420.9    7.802      42.420
2015    5        9     9   6    5.7523   421.0    7.791      42.395
2015    5        9     9  12    5.7475   421.2    7.781      42.372
2015    5        9     9  17    5.7429   421.3    7.772      42.351
2015    5        9     9  23    5.7385   421.5    7.763      42.332
2015    5        9     9  29    5.7344   421.7    7.754      42.314
2015    5        9     9  34    5.7305   421.9    7.746      42.297
2015    5        9     9  40    5.7267   422.0    7.738      42.282
2015    5        9     9  46    5.7232   422.2    7.731      42.269
2015    5        9     9  52    5.7198   422.4    7.724      42.258
2015    5        9     9  57    5.7165   422.6    7.717      42.248
2015    5        9    10   3    5.7134   422.8    7.711      42.241
2015    5        9    10   9    5.7105   423.0    7.705      42.235
2015    5        9    10  14    5.7077   423.2    7.699      42.231
2015    5        9    10  20    5.7050   423.5    7.693      42.227
2015    5        9    10  26    5.7024   423.7    7.687      42.224
2015    5        9    10  31    5.6999   423.9    7.682      42.221
2015    5        9    10  37    5.6975   424.1    7.676      42.219
2015    5        9    10  43    5.6953   424.3    7.670      42.216
2015    5        9    10  48    5.6931   424.6    7.664      42.212
2015    5        9    10  54    5.6910   424.8    7.657      42.209
2015    5        9    11   0    5.6890   425.0    7.651      42.205
2015    5        9    11   6    5.6871   425.2    7.645      42.201
2015    5        9    11  11    5.6854   425.4    7.639      42.197
2015    5        9    11  17    5.6838   425.6    7.633      42.194
2015    5        9    11  23    5.6822   425.8    7.627      42.190
2015    5        9    11  28    5.6809   426.0    7.621      42.187
2015    5        9    11  34    5.6796   426.2    7.615      42.184
2015    5        9    11  40    5.6784   426.4    7.609      42.181
2015    5        9    11  45    5.6775   426.6    7.603      42.179
2015    5        9    11  51    5.6766   426.8    7.598      42.178
2015    5        9    11  57    5.6759   427.0    7.592      42.177
2015    5        9    12   2    5.6753   427.2    7.587      42.177
2015    5        9    12   8    5.6748   427.3    7.583      42.178
2015    5        9    12  14    5.6745   427.5    7.578      42.179
2015    5        9    12  20    5.6743   427.7    7.574      42.181
2015    5        9    12  25    5.6743   427.9    7.570      42.185
2015    5        9    12  31    5.6744   428.0    7.566      42.190
2015    5        9    12  37    5.6747   428.2    7.563      42.196
2015    5        9    12  42    5.6752   428.4    7.560      42.203
2015    5        9    12  48    5.6758   428.5    7.558      42.212
2015    5        9    12  54    5.6766   428.7    7.556      42.223
2015    5        9    12  59    5.6776   428.8    7.555      42.236
2015    5        9    13   5    5.6788   429.0    7.555      42.252
2015    5        9    13  11    5.6802   429.1    7.555      42.269
2015    5        9    13  16    5.6818   429.2    7.555      42.288
2015    5        9    13  22    5.6835   429.4    7.556      42.310
2015    5        9    13  28    5.6855   429.5    7.558      42.336
2015    5        9    13  34    5.6876   429.6    7.560      42.364
2015    5        9    13  39    5.6899   429.7    7.563      42.395
2015    5        9    13  45    5.6923   429.9    7.566      42.429
2015    5        9    13  51    5.6950   430.0    7.570      42.466
2015    5        9    13  56    5.6978   430.1    7.574      42.505
2015    5        9    14   2    5.7007   430.2    7.579      42.547
2015    5        9    14   8    5.7037   430.3    7.584      42.592
2015    5        9    14  13    5.7068   430.4    7.589      42.639
2015    5        9    14  19    5.7101   430.6    7.595      42.686
2015    5        9    14  25    5.7134   430.7    7.601      42.735
2015    5        9    14  30    5.7169   430.8    7.608      42.787
2015    5        9    14  36    5.7204   430.9    7.614      42.843
2015    5        9    14  42    5.7240   431.0    7.621      42.900
2015    5        9    14  48    5.7278   431.1    7.629      42.958
2015    5        9    14  53    5.7316   431.2    7.636      43.019
2015    5        9    14  59    5.7357   431.3    7.643      43.080
2015    5        9    15   5    5.7398   431.4    7.651      43.143
2015    5        9    15  10    5.7442   431.5    7.658      43.208
2015    5        9    15  16    5.7486   431.6    7.665      43.272
2015    5        9    15  22    5.7533   431.7    7.671      43.335
2015    5        9    15  27    5.7581   431.8    7.677      43.398
2015    5        9    15  33    5.7631   431.9    7.683      43.459
2015    5        9    15  39    5.7683   432.0    7.689      43.519
2015    5        9    15  45    5.7735   432.1    7.695      43.579
2015    5        9    15  50    5.7789   432.2    7.700      43.638
2015    5        9    15  56    5.7844   432.3    7.704      43.695
2015    5        9    16   2    5.7900   432.4    7.709      43.751
2015    5        9    16   7    5.7956   432.5    7.713      43.805
2015    5        9    16  13    5.8013   432.6    7.717      43.859
2015    5        9    16  19    5.8070   432.7    7.720      43.910
2015    5        9    16  24    5.8126   432.8    7.724      43.961
2015    5        9    16  30    5.8183   432.9    7.727      44.011
2015    5        9    16  36    5.8239   433.0    7.730      44.060
2015    5        9    16  41    5.8295   433.1    7.733      44.108
2015    5        9    16  47    5.8351   433.2    7.735      44.155
2015    5        9    16  53    5.8406   433.3    7.738      44.201
2015    5        9    16  59    5.8460   433.5    7.740      44.247
2015    5        9    17   4    5.8514   433.6    7.742      44.291
2015    5        9    17  10    5.8567   433.7    7.744      44.335
2015    5        9    17  16    5.8619   433.8    7.746      44.379
2015    5        9    17  21    5.8671   433.9    7.748      44.422
2015    5        9    17  27    5.8723   434.0    7.750      44.464
2015    5        9    17  33    5.8775   434.1    7.751      44.506
2015    5        9    17  38    5.8826   434.2    7.753      44.548
2015    5        9    17  44    5.8877   434.4    7.754      44.589
2015    5        9    17  50    5.8928   434.5    7.756      44.630
2015    5        9    17  55    5.8978   434.6    7.757      44.670
2015    5        9    18   1    5.9028   434.7    7.759      44.710
2015    5        9    18   7    5.9078   434.8    7.760      44.750
2015    5        9    18  13    5.9128   434.9    7.762      44.790
2015    5        9    18  18    5.9178   435.0    7.763      44.830
2015    5        9    18  24    5.9227   435.2    7.765      44.870
2015    5        9    18  30    5.9277   435.3    7.766      44.910
2015    5        9    18  35    5.9326   435.4    7.768      44.949
2015    5        9    18  41    5.9375   435.5    7.769      44.989
2015    5        9    18  47    5.9424   435.6    7.771      45.029
2015    5        9    18  52    5.9473   435.8    7.773      45.069
2015    5        9    18  58    5.9522   435.9    7.775      45.109
2015    5        9    19   4    5.9571   436.0    7.776      45.150
2015    5        9    19   9    5.9619   436.1    7.778      45.191
2015    5        9    19  15    5.9668   436.3    7.780      45.232
2015    5        9    19  21    5.9716   436.4    7.782      45.273
2015    5        9    19  27    5.9764   436.5    7.785      45.314
2015    5        9    19  32    5.9813   436.6    7.787      45.356
2015    5        9    19  38    5.9861   436.8    7.790      45.398
2015    5        9    19  44    5.9909   436.9    7.792      45.440
2015    5        9    19  49    5.9957   437.0    7.795      45.483
2015    5        9    19  55    6.0004   437.1    7.799      45.526
2015    5        9    20   1    6.0052   437.3    7.802      45.569
2015    5        9    20   6    6.0099   437.4    7.806      45.612
2015    5        9    20  12    6.0147   437.5    7.810      45.656
2015    5        9    20  18    6.0194   437.7    7.814      45.701
2015    5        9    20  23    6.0241   437.8    7.818      45.747
2015    5        9    20  29    6.0288   437.9    7.823      45.794
2015    5        9    20  35    6.0335   438.1    7.827      45.843
2015    5        9    20  41    6.0381   438.2    7.832      45.894
2015    5        9    20  46    6.0427   438.3    7.837      45.945
2015    5        9    20  52    6.0473   438.5    7.843      45.998
2015    5        9    20  58    6.0518   438.6    7.848      46.051
2015    5        9    21   3    6.0564   438.8    7.853      46.104
2015    5        9    21   9    6.0609   438.9    7.859      46.159
2015    5        9    21  15    6.0653   439.1    7.865      46.215
2015    5        9    21  20    6.0698   439.2    7.870      46.272
2015    5        9    21  26    6.0743   439.4    7.876      46.330
2015    5        9    21  32    6.0787   439.5    7.882      46.389
2015    5        9    21  37    6.0832   439.7    7.888      46.448
2015    5        9    21  43    6.0877   439.8    7.894      46.509
2015    5        9    21  49    6.0922   440.0    7.900      46.572
2015    5        9    21  55    6.0967   440.1    7.907      46.636
2015    5        9    22   0    6.1011   440.3    7.913      46.702
2015    5        9    22   6    6.1056   440.4    7.919      46.769
2015    5        9    22  12    6.1100   440.6    7.924      46.838
2015    5        9    22  17    6.1144   440.8    7.930      46.908
2015    5        9    22  23    6.1189   441.0    7.935      46.979
2015    5        9    22  29    6.1232   441.1    7.940      47.048
2015    5        9    22  34    6.1276   441.3    7.945      47.117
2015    5        9    22  40    6.1319   441.5    7.949      47.186
2015    5        9    22  46    6.1362   441.7    7.953      47.254
2015    5        9    22  51    6.1404   441.9    7.956      47.321
2015    5        9    22  57    6.1446   442.0    7.960      47.388
2015    5        9    23   3    6.1488   442.2    7.963      47.455
2015    5        9    23   9    6.1529   442.4    7.965      47.520
2015    5        9    23  14    6.1570   442.6    7.967      47.585
2015    5        9    23  20    6.1610   442.8    7.969      47.648
2015    5        9    23  26    6.1650   443.0    7.970      47.711
2015    5        9    23  31    6.1690   443.2    7.972      47.772
2015    5        9    23  37    6.1730   443.4    7.973      47.832
2015    5        9    23  43    6.1769   443.5    7.973      47.890
2015    5        9    23  48    6.1808   443.7    7.974      47.948
2015    5        9    23  54    6.1847   443.9    7.974      48.005
2015    5       10     0   0    6.1885   444.1    7.974      48.061
2015    5       10     0   5    6.1924   444.3    7.974      48.117
2015    5       10     0  11    6.1963   444.5    7.974      48.171
2015    5       10     0  17    6.2001   444.7    7.973      48.225
2015    5       10     0  23    6.2039   444.9    7.973      48.278
2015    5       10     0  28    6.2078   445.1    7.972      48.331
2015    5       10     0  34    6.2116   445.3    7.972      48.383
2015    5       10     0  40    6.2155   445.5    7.971      48.435
2015    5       10     0  45    6.2194   445.6    7.970      48.487
2015    5       10     0  51    6.2233   445.8    7.969      48.539
2015    5       10     0  57    6.2271   446.0    7.968      48.591
2015    5       10     1   2    6.2310   446.2    7.967      48.642
2015    5       10     1   8    6.2349   446.4    7.966      48.694
2015    5       10     1  14    6.2387   446.6    7.964      48.744
2015    5       10     1  19    6.2426   446.8    7.963      48.795
2015    5       10     1  25    6.2464   447.0    7.961      48.845
2015    5       10     1  31    6.2502   447.2    7.960      48.894
2015    5       10     1  37    6.2541   447.4    7.958      48.944
2015    5       10     1  42    6.2578   447.6    7.956      48.992
2015    5       10     1  48    6.2616   447.8    7.955      49.041
2015    5       10     1  54    6.2654   448.0    7.953      49.089
2015    5       10     1  59    6.2691   448.2    7.951      49.136
2015    5       10     2   5    6.2728   448.4    7.949      49.184
2015    5       10     2  11    6.2766   448.6    7.946      49.231
2015    5       10     2  16    6.2803   448.8    7.944      49.278
2015    5       10     2  22    6.2840   449.0    7.942      49.324
2015    5       10     2  28    6.2877   449.2    7.940      49.371
2015    5       10     2  33    6.2914   449.4    7.938      49.417
2015    5       10     2  39    6.2951   449.6    7.936      49.463
2015    5       10     2  45    6.2988   449.8    7.934      49.509
2015    5       10     2  51    6.3025   450.0    7.932      49.556
2015    5       10     2  56    6.3062   450.2    7.930      49.602
2015    5       10     3   2    6.3100   450.4    7.928      49.649
2015    5       10     3   8    6.3138   450.6    7.927      49.696
2015    5       10     3  13    6.3176   450.8    7.926      49.743
2015    5       10     3  19    6.3214   451.0    7.924      49.791
2015    5       10     3  25    6.3252   451.2    7.923      49.839
2015    5       10     3  30    6.3290   451.4    7.922      49.889
2015    5       10     3  36    6.3328   451.6    7.922      49.941
2015    5       10     3  42    6.3367   451.8    7.921      49.994
2015    5       10     3  47    6.3405   452.0    7.920      50.049
2015    5       10     3  53    6.3443   452.2    7.919      50.105
2015    5       10     3  59    6.3481   452.4    7.919      50.162
2015    5       10     4   5    6.3519   452.7    7.918      50.221
2015    5       10     4  10    6.3557   452.9    7.918      50.279
2015    5       10     4  16    6.3595   453.1    7.918      50.338
2015    5       10     4  22    6.3633   453.3    7.918      50.397
2015    5       10     4  27    6.3671   453.5    7.918      50.456
2015    5       10     4  33    6.3709   453.7    7.918      50.515
2015    5       10     4  39    6.3747   453.9    7.918      50.575
2015    5       10     4  44    6.3785   454.1    7.918      50.636
2015    5       10     4  50    6.3824   454.3    7.919      50.697
2015    5       10     4  56    6.3863   454.5    7.920      50.758
2015    5       10     5   1    6.3903   454.7    7.921      50.820
2015    5       10     5   7    6.3943   454.9    7.922      50.884
2015    5       10     5  13    6.3983   455.1    7.924      50.949
2015    5       10     5  19    6.4023   455.4    7.926      51.017
2015    5       10     5  24    6.4064   455.6    7.927      51.086
2015    5       10     5  30    6.4104   455.8    7.929      51.156
2015    5       10     5  36    6.4145   456.0    7.930      51.228
2015    5       10     5  41    6.4185   456.3    7.932      51.302
2015    5       10     5  47    6.4225   456.5    7.933      51.375
2015    5       10     5  53    6.4265   456.7    7.934      51.448
2015    5       10     5  58    6.4304   456.9    7.935      51.520
2015    5       10     6   4    6.4343   457.2    7.935      51.591
2015    5       10     6  10    6.4381   457.4    7.935      51.662
2015    5       10     6  15    6.4419   457.6    7.935      51.733
2015    5       10     6  21    6.4456   457.9    7.935      51.803
2015    5       10     6  27    6.4492   458.1    7.934      51.872
2015    5       10     6  33    6.4528   458.4    7.933      51.940
2015    5       10     6  38    6.4563   458.6    7.932      52.007
2015    5       10     6  44    6.4598   458.9    7.930      52.072
2015    5       10     6  50    6.4632   459.1    7.928      52.136
2015    5       10     6  55    6.4666   459.4    7.926      52.200
2015    5       10     7   1    6.4700   459.6    7.924      52.262
2015    5       10     7   7    6.4733   459.9    7.922      52.324
2015    5       10     7  12    6.4766   460.1    7.919      52.384
2015    5       10     7  18    6.4798   460.4    7.916      52.444
2015    5       10     7  24    6.4830   460.6    7.913      52.504
2015    5       10     7  29    6.4863   460.9    7.911      52.562
2015    5       10     7  35    6.4894   461.1    7.907      52.620
2015    5       10     7  41    6.4926   461.4    7.904      52.678
2015    5       10     7  47    6.4958   461.6    7.901      52.735
2015    5       10     7  52    6.4989   461.9    7.898      52.792
2015    5       10     7  58    6.5020   462.1    7.895      52.849
2015    5       10     8   4    6.5052   462.4    7.891      52.905
2015    5       10     8   9    6.5083   462.7    7.888      52.961
2015    5       10     8  15    6.5114   462.9    7.884      53.017
2015    5       10     8  21    6.5145   463.2    7.881      53.072
2015    5       10     8  26    6.5176   463.4    7.878      53.127
2015    5       10     8  32    6.5207   463.7    7.874      53.183
2015    5       10     8  38    6.5238   463.9    7.871      53.239
2015    5       10     8  43    6.5270   464.2    7.868      53.294
2015    5       10     8  49    6.5301   464.5    7.864      53.351
2015    5       10     8  55    6.5332   464.7    7.861      53.407
2015    5       10     9   1    6.5363   465.0    7.858      53.465
2015    5       10     9   6    6.5395   465.3    7.855      53.524
2015    5       10     9  12    6.5426   465.5    7.852      53.583
2015    5       10     9  18    6.5457   465.8    7.848      53.642
2015    5       10     9  23    6.5488   466.1    7.845      53.703
2015    5       10     9  29    6.5519   466.3    7.841      53.763
2015    5       10     9  35    6.5549   466.6    7.838      53.823
2015    5       10     9  40    6.5579   466.9    7.834      53.883
2015    5       10     9  46    6.5609   467.2    7.830      53.943
2015    5       10     9  52    6.5639   467.4    7.827      54.002
2015    5       10     9  57    6.5668   467.7    7.823      54.061
2015    5       10    10   3    6.5697   468.0    7.819      54.120
2015    5       10    10   9    6.5726   468.3    7.815      54.179
2015    5       10    10  15    6.5755   468.6    7.811      54.238
2015    5       10    10  20    6.5784   468.8    7.807      54.296
2015    5       10    10  26    6.5813   469.1    7.803      54.355
2015    5       10    10  32    6.5842   469.4    7.799      54.413
2015    5       10    10  37    6.5871   469.7    7.796      54.471
2015    5       10    10  43    6.5900   469.9    7.792      54.530
2015    5       10    10  49    6.5929   470.2    7.788      54.591
2015    5       10    10  54    6.5957   470.5    7.784      54.653
2015    5       10    11   0    6.5985   470.8    7.780      54.717
2015    5       10    11   6    6.6013   471.1    7.776      54.782
2015    5       10    11  11    6.6040   471.4    7.772      54.848
2015    5       10    11  17    6.6067   471.7    7.767      54.916
2015    5       10    11  23    6.6094   472.0    7.763      54.984
2015    5       10    11  29    6.6120   472.3    7.758      55.051
2015    5       10    11  34    6.6146   472.6    7.753      55.118
2015    5       10    11  40    6.6172   472.9    7.748      55.185
2015    5       10    11  46    6.6197   473.2    7.742      55.251
2015    5       10    11  51    6.6221   473.5    7.736      55.316
2015    5       10    11  57    6.6245   473.8    7.731      55.381
2015    5       10    12   3    6.6269   474.2    7.724      55.446
2015    5       10    12   8    6.6292   474.5    7.718      55.510
2015    5       10    12  14    6.6315   474.8    7.712      55.573
2015    5       10    12  20    6.6337   475.1    7.705      55.636
2015    5       10    12  25    6.6359   475.4    7.698      55.697
2015    5       10    12  31    6.6381   475.7    7.691      55.758
2015    5       10    12  37    6.6402   476.0    7.684      55.819
2015    5       10    12  43    6.6424   476.3    7.677      55.878
2015    5       10    12  48    6.6444   476.6    7.670      55.937
2015    5       10    12  54    6.6465   477.0    7.663      55.995
2015    5       10    13   0    6.6485   477.3    7.655      56.053
2015    5       10    13   5    6.6505   477.6    7.648      56.111
2015    5       10    13  11    6.6525   477.9    7.640      56.169
2015    5       10    13  17    6.6544   478.2    7.633      56.226
2015    5       10    13  22    6.6563   478.5    7.625      56.283
2015    5       10    13  28    6.6582   478.8    7.617      56.340
2015    5       10    13  34    6.6600   479.2    7.609      56.397
2015    5       10    13  39    6.6618   479.5    7.601      56.453
2015    5       10    13  45    6.6635   479.8    7.593      56.509
2015    5       10    13  51    6.6651   480.1    7.584      56.564
2015    5       10    13  57    6.6667   480.4    7.576      56.618
2015    5       10    14   2    6.6683   480.8    7.567      56.672
2015    5       10    14   8    6.6698   481.1    7.558      56.726
2015    5       10    14  14    6.6712   481.4    7.550      56.779
2015    5       10    14  19    6.6726   481.8    7.541      56.831
2015    5       10    14  25    6.6739   482.1    7.532      56.883
2015    5       10    14  31    6.6752   482.4    7.522      56.934
2015    5       10    14  36    6.6765   482.7    7.513      56.984
2015    5       10    14  42    6.6777   483.1    7.504      57.034
2015    5       10    14  48    6.6788   483.4    7.495      57.084
2015    5       10    14  53    6.6799   483.7    7.485      57.132
2015    5       10    14  59    6.6810   484.1    7.475      57.181
2015    5       10    15   5    6.6820   484.4    7.466      57.228
2015    5       10    15  11    6.6830   484.7    7.456      57.276
2015    5       10    15  16    6.6839   485.1    7.446      57.322
2015    5       10    15  22    6.6848   485.4    7.437      57.368
2015    5       10    15  28    6.6856   485.7    7.427      57.413
2015    5       10    15  33    6.6865   486.0    7.417      57.457
2015    5       10    15  39    6.6872   486.4    7.407      57.501
2015    5       10    15  45    6.6879   486.7    7.396      57.545
2015    5       10    15  50    6.6886   487.0    7.386      57.587
2015    5       10    15  56    6.6891   487.4    7.376      57.630
2015    5       10    16   2    6.6895   487.7    7.365      57.671
2015    5       10    16   7    6.6899   488.0    7.355      57.712
2015    5       10    16  13    6.6902   488.4    7.344      57.752
2015    5       10    16  19    6.6904   488.7    7.334      57.790
2015    5       10    16  25    6.6906   489.0    7.323      57.827
2015    5       10    16  30    6.6908   489.3    7.313      57.864
2015    5       10    16  36    6.6910   489.6    7.303      57.899
2015    5       10    16  42    6.6912   489.9    7.293      57.934
2015    5       10    16  47    6.6914   490.2    7.284      57.969
2015    5       10    16  53    6.6917   490.5    7.274      58.006
2015    5       10    16  59    6.6919   490.8    7.265      58.044
2015    5       10    17   4    6.6922   491.1    7.256      58.083
2015    5       10    17  10    6.6925   491.4    7.247      58.126
2015    5       10    17  16    6.6929   491.7    7.238      58.172
2015    5       10    17  21    6.6932   492.0    7.229      58.221
2015    5       10    17  27    6.6936   492.3    7.221      58.273
2015    5       10    17  33    6.6940   492.7    7.212      58.327
2015    5       10    17  39    6.6943   493.0    7.203      58.382
2015    5       10    17  44    6.6947   493.4    7.194      58.437
2015    5       10    17  50    6.6950   493.7    7.185      58.490
2015    5       10    17  56    6.6952   494.0    7.176      58.542
2015    5       10    18   1    6.6954   494.4    7.167      58.593
2015    5       10    18   7    6.6954   494.7    7.158      58.643
2015    5       10    18  13    6.6955   495.0    7.148      58.692
2015    5       10    18  18    6.6954   495.4    7.138      58.740
2015    5       10    18  24    6.6953   495.7    7.128      58.788
2015    5       10    18  30    6.6951   496.1    7.118      58.835
2015    5       10    18  35    6.6948   496.4    7.108      58.882
2015    5       10    18  41    6.6943   496.7    7.097      58.927
2015    5       10    18  47    6.6939   497.1    7.087      58.972
2015    5       10    18  53    6.6933   497.4    7.076      59.016
2015    5       10    18  58    6.6927   497.8    7.065      59.059
2015    5       10    19   4    6.6920   498.1    7.054      59.101
2015    5       10    19  10    6.6914   498.4    7.043      59.142
2015    5       10    19  15    6.6907   498.8    7.033      59.181
2015    5       10    19  21    6.6900   499.1    7.022      59.220
2015    5       10    19  27    6.6894   499.4    7.011      59.258
2015    5       10    19  32    6.6887   499.7    7.000      59.295
2015    5       10    19  38    6.6881   500.0    6.990      59.333
2015    5       10    19  44    6.6874   500.3    6.979      59.371
2015    5       10    19  49    6.6868   500.6    6.969      59.409
2015    5       10    19  55    6.6861   501.0    6.958      59.447
2015    5       10    20   1    6.6855   501.3    6.948      59.488
2015    5       10    20   7    6.6848   501.6    6.937      59.529
2015    5       10    20  12    6.6842   502.0    6.927      59.572
2015    5       10    20  18    6.6835   502.3    6.917      59.615
2015    5       10    20  24    6.6828   502.7    6.906      59.658
2015    5       10    20  29    6.6821   503.0    6.896      59.703
2015    5       10    20  35    6.6814   503.4    6.886      59.746
2015    5       10    20  41    6.6806   503.7    6.876      59.789
2015    5       10    20  46    6.6798   504.1    6.866      59.831
2015    5       10    20  52    6.6789   504.4    6.855      59.871
2015    5       10    20  58    6.6779   504.8    6.845      59.912
2015    5       10    21   3    6.6768   505.1    6.835      59.952
2015    5       10    21   9    6.6757   505.5    6.824      59.992
2015    5       10    21  15    6.6744   505.8    6.814      60.031
2015    5       10    21  21    6.6731   506.1    6.803      60.070
2015    5       10    21  26    6.6718   506.5    6.793      60.108
2015    5       10    21  32    6.6704   506.8    6.782      60.146
2015    5       10    21  38    6.6690   507.2    6.771      60.183
2015    5       10    21  43    6.6676   507.5    6.761      60.220
2015    5       10    21  49    6.6661   507.9    6.750      60.257
2015    5       10    21  55    6.6646   508.2    6.740      60.294
2015    5       10    22   0    6.6630   508.5    6.729      60.330
2015    5       10    22   6    6.6614   508.9    6.718      60.366
2015    5       10    22  12    6.6598   509.2    6.707      60.402
2015    5       10    22  17    6.6582   509.6    6.697      60.438
2015    5       10    22  23    6.6566   509.9    6.686      60.474
2015    5       10    22  29    6.6549   510.3    6.675      60.509
2015    5       10    22  34    6.6532   510.6    6.665      60.544
2015    5       10    22  40    6.6515   510.9    6.654      60.579
2015    5       10    22  46    6.6497   511.3    6.643      60.614
2015    5       10    22  52    6.6479   511.6    6.633      60.649
2015    5       10    22  57    6.6461   512.0    6.622      60.683
2015    5       10    23   3    6.6442   512.3    6.611      60.717
2015    5       10    23   9    6.6423   512.6    6.600      60.750
2015    5       10    23  14    6.6403   513.0    6.590      60.782
2015    5       10    23  20    6.6383   513.3    6.579      60.814
2015    5       10    23  26    6.6362   513.6    6.568      60.846
2015    5       10    23  31    6.6340   514.0    6.556      60.877
2015    5       10    23  37    6.6317   514.3    6.545      60.909
2015    5       10    23  43    6.6293   514.7    6.534      60.939
2015    5       10    23  48    6.6268   515.0    6.522      60.968
2015    5       10    23  54    6.6242   515.4    6.510      60.994
2015    5       11     0   0    6.6216   515.7    6.499      61.018
2015    5       11     0   6    6.6191   516.0    6.487      61.041
2015    5       11     0  11    6.6165   516.3    6.476      61.060
2015    5       11     0  17    6.6140   516.6    6.465      61.079
2015    5       11     0  23    6.6116   516.8    6.454      61.097
2015    5       11     0  28    6.6092   517.1    6.443      61.116
2015    5       11     0  34    6.6069   517.4    6.433      61.135
2015    5       11     0  40    6.6046   517.6    6.422      61.156
2015    5       11     0  45    6.6024   517.9    6.412      61.179
2015    5       11     0  51    6.6002   518.2    6.402      61.207
2015    5       11     0  57    6.5981   518.5    6.393      61.238
2015    5       11     1   2    6.5961   518.8    6.383      61.273
2015    5       11     1   8    6.5941   519.2    6.374      61.311
2015    5       11     1  14    6.5922   519.5    6.365      61.352
2015    5       11     1  20    6.5902   519.8    6.356      61.394
2015    5       11     1  25    6.5883   520.2    6.347      61.435
2015    5       11     1  31    6.5864   520.5    6.338      61.475
2015    5       11     1  37    6.5844   520.8    6.329      61.514
2015    5       11     1  42    6.5824   521.1    6.321      61.552
2015    5       11     1  48    6.5803   521.5    6.312      61.590
2015    5       11     1  54    6.5782   521.8    6.303      61.630
2015    5       11     1  59    6.5761   522.1    6.294      61.670
2015    5       11     2   5    6.5739   522.5    6.285      61.711
2015    5       11     2  11    6.5716   522.8    6.276      61.752
2015    5       11     2  16    6.5692   523.2    6.267      61.793
2015    5       11     2  22    6.5668   523.5    6.258      61.834
2015    5       11     2  28    6.5642   523.9    6.248      61.875
2015    5       11     2  34    6.5616   524.3    6.239      61.915
2015    5       11     2  39    6.5590   524.6    6.229      61.953
2015    5       11     2  45    6.5562   525.0    6.220      61.991
2015    5       11     2  51    6.5535   525.3    6.210      62.028
2015    5       11     2  56    6.5508   525.6    6.200      62.064
2015    5       11     3   2    6.5480   526.0    6.191      62.098
2015    5       11     3   8    6.5452   526.3    6.181      62.131
2015    5       11     3  13    6.5425   526.6    6.171      62.164
2015    5       11     3  19    6.5397   526.9    6.162      62.196
2015    5       11     3  25    6.5370   527.2    6.152      62.227
2015    5       11     3  30    6.5342   527.5    6.143      62.259
2015    5       11     3  36    6.5315   527.9    6.133      62.292
2015    5       11     3  42    6.5287   528.2    6.124      62.327
2015    5       11     3  48    6.5259   528.5    6.115      62.364
2015    5       11     3  53    6.5232   528.8    6.105      62.401
2015    5       11     3  59    6.5204   529.2    6.096      62.440
2015    5       11     4   5    6.5176   529.5    6.087      62.480
2015    5       11     4  10    6.5149   529.9    6.078      62.520
2015    5       11     4  16    6.5121   530.2    6.069      62.559
2015    5       11     4  22    6.5092   530.6    6.060      62.598
2015    5       11     4  27    6.5064   531.0    6.051      62.635
2015    5       11     4  33    6.5034   531.3    6.042      62.671
2015    5       11     4  39    6.5004   531.7    6.032      62.706
2015    5       11     4  44    6.4973   532.0    6.023      62.741
2015    5       11     4  50    6.4942   532.4    6.013      62.775
2015    5       11     4  56    6.4909   532.7    6.004      62.807
2015    5       11     5   2    6.4877   533.0    5.994      62.840
2015    5       11     5   7    6.4844   533.4    5.984      62.871
2015    5       11     5  13    6.4811   533.7    5.975      62.902
2015    5       11     5  19    6.4779   534.1    5.965      62.932
2015    5       11     5  24    6.4746   534.4    5.956      62.961
2015    5       11     5  30    6.4713   534.7    5.946      62.990
2015    5       11     5  36    6.4680   535.1    5.936      63.018
2015    5       11     5  41    6.4648   535.4    5.927      63.047
2015    5       11     5  47    6.4615   535.7    5.917      63.075
2015    5       11     5  53    6.4583   536.1    5.908      63.103
2015    5       11     5  58    6.4551   536.4    5.898      63.132
2015    5       11     6   4    6.4519   536.7    5.889      63.160
2015    5       11     6  10    6.4487   537.0    5.879      63.189
2015    5       11     6  16    6.4455   537.4    5.870      63.217
2015    5       11     6  21    6.4424   537.7    5.861      63.246
2015    5       11     6  27    6.4392   538.0    5.852      63.275
2015    5       11     6  33    6.4360   538.3    5.843      63.305
2015    5       11     6  38    6.4329   538.7    5.834      63.334
2015    5       11     6  44    6.4298   539.0    5.825      63.364
2015    5       11     6  50    6.4266   539.3    5.816      63.395
2015    5       11     6  55    6.4235   539.6    5.807      63.425
2015    5       11     7   1    6.4203   539.9    5.798      63.456
2015    5       11     7   7    6.4172   540.3    5.790      63.488
2015    5       11     7  12    6.4141   540.6    5.781      63.520
2015    5       11     7  18    6.4109   540.9    5.773      63.551
2015    5       11     7  24    6.4078   541.2    5.765      63.584
2015    5       11     7  30    6.4047   541.5    5.756      63.616
2015    5       11     7  35    6.4016   541.8    5.748      63.649
2015    5       11     7  41    6.3985   542.2    5.740      63.682
2015    5       11     7  47    6.3955   542.5    5.732      63.716
2015    5       11     7  52    6.3924   542.8    5.724      63.750
2015    5       11     7  58    6.3894   543.1    5.716      63.784
2015    5       11     8   4    6.3864   543.4    5.708      63.818
2015    5       11     8   9    6.3833   543.7    5.701      63.853
2015    5       11     8  15    6.3803   544.0    5.693      63.889
2015    5       11     8  21    6.3773   544.3    5.685      63.924
2015    5       11     8  26    6.3744   544.7    5.678      63.961
2015    5       11     8  32    6.3714   545.0    5.670      63.998
2015    5       11     8  38    6.3684   545.3    5.662      64.035
2015    5       11     8  44    6.3655   545.6    5.655      64.074
2015    5       11     8  49    6.3625   546.0    5.648      64.113
2015    5       11     8  55    6.3596   546.3    5.640      64.154
2015    5       11     9   1    6.3566   546.6    5.633      64.195
2015    5       11     9   6    6.3536   546.9    5.625      64.236
2015    5       11     9  12    6.3507   547.3    5.618      64.278
2015    5       11     9  18    6.3477   547.6    5.611      64.320
2015    5       11     9  23    6.3447   547.9    5.603      64.362
2015    5       11     9  29    6.3417   548.2    5.596      64.404
2015    5       11     9  35    6.3387   548.6    5.589      64.447
2015    5       11     9  40    6.3356   548.9    5.581      64.491
2015    5       11     9  46    6.3325   549.2    5.574      64.534
2015    5       11     9  52    6.3294   549.6    5.566      64.578
2015    5       11     9  58    6.3263   549.9    5.559      64.621
2015    5       11    10   3    6.3231   550.3    5.551      64.664
2015    5       11    10   9    6.3200   550.6    5.544      64.707
2015    5       11    10  15    6.3168   551.0    5.536      64.749
2015    5       11    10  20    6.3136   551.3    5.528      64.791
2015    5       11    10  26    6.3103   551.6    5.521      64.833
2015    5       11    10  32    6.3070   552.0    5.513      64.874
2015    5       11    10  37    6.3037   552.3    5.505      64.916
2015    5       11    10  43    6.3004   552.7    5.497      64.957
2015    5       11    10  49    6.2971   553.0    5.489      64.997
2015    5       11    10  54    6.2937   553.4    5.481      65.037
2015    5       11    11   0    6.2903   553.7    5.473      65.076
2015    5       11    11   6    6.2869   554.1    5.464      65.115
2015    5       11    11  12    6.2835   554.4    5.456      65.153
2015    5       11    11  17    6.2800   554.8    5.448      65.191
2015    5       11    11  23    6.2765   555.1    5.440      65.228
2015    5       11    11  29    6.2730   555.5    5.431      65.264
2015    5       11    11  34    6.2695   555.8    5.423      65.300
2015    5       11    11  40    6.2660   556.1    5.414      65.335
2015    5       11    11  46    6.2625   556.5    5.406      65.369
2015    5       11    11  51    6.2589   556.8    5.398      65.404
2015    5       11    11  57    6.2554   557.2    5.389      65.437
2015    5       11    12   3    6.2518   557.5    5.381      65.471
2015    5       11    12   8    6.2482   557.9    5.372      65.503
2015    5       11    12  14    6.2447   558.2    5.364      65.536
2015    5       11    12  20    6.2411   558.5    5.355      65.568
2015    5       11    12  26    6.2375   558.9    5.347      65.600
2015    5       11    12  31    6.2339   559.2    5.338      65.631
2015    5       11    12  37    6.2303   559.6    5.330      65.662
2015    5       11    12  43    6.2267   559.9    5.321      65.693
2015    5       11    12  48    6.2230   560.3    5.312      65.723
2015    5       11    12  54    6.2194   560.6    5.304      65.754
2015    5       11    13   0    6.2158   560.9    5.295      65.783
2015    5       11    13   5    6.2122   561.3    5.287      65.813
2015    5       11    13  11    6.2085   561.6    5.278      65.842
2015    5       11    13  17    6.2049   562.0    5.270      65.871
2015    5       11    13  22    6.2013   562.3    5.261      65.900
2015    5       11    13  28    6.1976   562.6    5.252      65.929
2015    5       11    13  34    6.1940   563.0    5.244      65.957
2015    5       11    13  40    6.1903   563.3    5.235      65.985
2015    5       11    13  45    6.1867   563.6    5.227      66.013
2015    5       11    13  51    6.1831   564.0    5.218      66.041
2015    5       11    13  57    6.1794   564.3    5.209      66.068
2015    5       11    14   2    6.1758   564.7    5.201      66.095
2015    5       11    14   8    6.1722   565.0    5.192      66.122
2015    5       11    14  14    6.1685   565.3    5.183      66.148
2015    5       11    14  19    6.1649   565.7    5.175      66.174
2015    5       11    14  25    6.1613   566.0    5.166      66.201
2015    5       11    14  31    6.1577   566.3    5.157      66.227
2015    5       11    14  36    6.1540   566.7    5.149      66.253
2015    5       11    14  42    6.1504   567.0    5.140      66.279
2015    5       11    14  48    6.1468   567.3    5.131      66.305
2015    5       11    14  54    6.1432   567.7    5.123      66.331
2015    5       11    14  59    6.1395   568.0    5.114      66.357
2015    5       11    15   5    6.1359   568.3    5.106      66.383
2015    5       11    15  11    6.1323   568.6    5.097      66.409
2015    5       11    15  16    6.1286   569.0    5.089      66.435
2015    5       11    15  22    6.1250   569.3    5.080      66.462
2015    5       11    15  28    6.1213   569.6    5.072      66.488
2015    5       11    15  33    6.1177   570.0    5.063      66.515
2015    5       11    15  39    6.1140   570.3    5.055      66.541
2015    5       11    15  45    6.1104   570.6    5.047      66.568
2015    5       11    15  50    6.1067   570.9    5.039      66.596
2015    5       11    15  56    6.1030   571.3    5.030      66.623
2015    5       11    16   2    6.0994   571.6    5.022      66.650
2015    5       11    16   8    6.0957   571.9    5.014      66.677
2015    5       11    16  13    6.0920   572.2    5.006      66.704
2015    5       11    16  19    6.0883   572.6    4.998      66.732
2015    5       11    16  25    6.0846   572.9    4.990      66.760
2015    5       11    16  30    6.0808   573.2    4.981      66.787
2015    5       11    16  36    6.0771   573.5    4.973      66.815
2015    5       11    16  42    6.0733   573.9    4.965      66.843
2015    5       11    16  47    6.0696   574.2    4.957      66.871
2015    5       11    16  53    6.0658   574.5    4.949      66.898
2015    5       11    16  59    6.0620   574.8    4.941      66.925
2015    5       11    17   4    6.0582   575.2    4.933      66.952
2015    5       11    17  10    6.0544   575.5    4.925      66.979
2015    5       11    17  16    6.0506   575.8    4.917      67.005
2015    5       11    17  22    6.0468   576.1    4.909      67.031
2015    5       11    17  27    6.0429   576.4    4.901      67.057
2015    5       11    17  33    6.0391   576.8    4.893      67.083
2015    5       11    17  39    6.0352   577.1    4.886      67.108
2015    5       11    17  44    6.0313   577.4    4.878      67.133
2015    5       11    17  50    6.0274   577.7    4.870      67.158
2015    5       11    17  56    6.0235   578.1    4.862      67.183
2015    5       11    18   1    6.0196   578.4    4.854      67.207
2015    5       11    18   7    6.0157   578.7    4.846      67.232
2015    5       11    18  13    6.0117   579.0    4.839      67.256
2015    5       11    18  18    6.0078   579.3    4.831      67.280
2015    5       11    18  24    6.0038   579.6    4.823      67.304
2015    5       11    18  30    5.9998   580.0    4.815      67.328
2015    5       11    18  36    5.9958   580.3    4.808      67.352
2015    5       11    18  41    5.9918   580.6    4.800      67.375
2015    5       11    18  47    5.9878   580.9    4.793      67.399
2015    5       11    18  53    5.9838   581.2    4.785      67.422
2015    5       11    18  58    5.9798   581.5    4.778      67.445
2015    5       11    19   4    5.9757   581.9    4.770      67.468
2015    5       11    19  10    5.9717   582.2    4.763      67.491
2015    5       11    19  15    5.9676   582.5    4.755      67.514
2015    5       11    19  21    5.9636   582.8    4.748      67.536
2015    5       11    19  27    5.9596   583.1    4.741      67.559
2015    5       11    19  32    5.9556   583.4    4.733      67.582
2015    5       11    19  38    5.9516   583.7    4.726      67.605
2015    5       11    19  44    5.9475   584.0    4.719      67.628
2015    5       11    19  50    5.9436   584.3    4.712      67.650
2015    5       11    19  55    5.9396   584.6    4.704      67.673
2015    5       11    20   1    5.9356   584.9    4.697      67.696
2015    5       11    20   7    5.9316   585.2    4.690      67.718
2015    5       11    20  12    5.9277   585.5    4.683      67.740
2015    5       11    20  18    5.9237   585.8    4.676      67.763
2015    5       11    20  24    5.9198   586.1    4.669      67.785
2015    5       11    20  29    5.9158   586.4    4.662      67.807
2015    5       11    20  35    5.9119   586.7    4.655      67.829
2015    5       11    20  41    5.9079   587.0    4.648      67.852
2015    5       11    20  46    5.9040   587.3    4.641      67.875
2015    5       11    20  52    5.9001   587.6    4.634      67.898
2015    5       11    20  58    5.8962   587.9    4.628      67.921
2015    5       11    21   4    5.8923   588.2    4.621      67.945
2015    5       11    21   9    5.8885   588.4    4.614      67.970
2015    5       11    21  15    5.8846   588.7    4.608      67.995
2015    5       11    21  21    5.8808   589.0    4.601      68.020
2015    5       11    21  26    5.8770   589.3    4.595      68.046
2015    5       11    21  32    5.8732   589.6    4.588      68.071
2015    5       11    21  38    5.8694   589.9    4.582      68.096
2015    5       11    21  43    5.8656   590.2    4.575      68.120
2015    5       11    21  49    5.8617   590.5    4.568      68.142
2015    5       11    21  55    5.8579   590.8    4.562      68.164
2015    5       11    22   0    5.8540   591.1    4.555      68.185
2015    5       11    22   6    5.8502   591.4    4.548      68.205
2015    5       11    22  12    5.8463   591.7    4.541      68.224
2015    5       11    22  17    5.8423   592.0    4.534      68.242
2015    5       11    22  23    5.8384   592.3    4.527      68.259
2015    5       11    22  29    5.8344   592.6    4.520      68.275
2015    5       11    22  35    5.8305   592.9    4.513      68.290
2015    5       11    22  40    5.8265   593.2    4.506      68.305
2015    5       11    22  46    5.8225   593.5    4.498      68.319
2015    5       11    22  52    5.8185   593.8    4.491      68.333
2015    5       11    22  57    5.8144   594.1    4.484      68.346
2015    5       11    23   3    5.8104   594.4    4.476      68.358
2015    5       11    23   9    5.8063   594.7    4.469      68.370
2015    5       11    23  14    5.8023   595.0    4.462      68.381
2015    5       11    23  20    5.7982   595.3    4.454      68.392
2015    5       11    23  26    5.7942   595.6    4.447      68.402
2015    5       11    23  31    5.7901   595.9    4.440      68.412
2015    5       11    23  37    5.7860   596.1    4.432      68.421
2015    5       11    23  43    5.7819   596.4    4.425      68.430
2015    5       11    23  49    5.7778   596.7    4.418      68.439
2015    5       11    23  54    5.7737   597.0    4.410      68.447
2015    5       12     0   0    5.7696   597.3    4.403      68.455
