year    month   day   hour  minute  B_enl V_enl   n_enl       T_enl
[year] [month] [day] [hour][minute] [nT]  [km/s]  [cm-3]      [kK]
2015    2       21     0   4    6.1906   584.0    4.483      65.921
2015    2       21     0   9    6.1837   584.1    4.475      65.861
2015    2       21     0  15    6.1772   584.2    4.468      65.801
2015    2       21     0  20    6.1704   584.3    4.460      65.741
2015    2       21     0  25    6.1640   584.4    4.452      65.681
2015    2       21     0  30    6.1573   584.5    4.445      65.621
2015    2       21     0  36    6.1509   584.6    4.438      65.562
2015    2       21     0  41    6.1445   584.6    4.431      65.503
2015    2       21     0  46    6.1382   584.7    4.424      65.444
2015    2       21     0  51    6.1321   584.8    4.417      65.386
2015    2       21     0  57    6.1258   584.9    4.410      65.330
2015    2       21     1   2    6.1195   584.9    4.403      65.274
2015    2       21     1   7    6.1133   585.0    4.396      65.219
2015    2       21     1  12    6.1072   585.1    4.389      65.164
2015    2       21     1  18    6.1012   585.2    4.382      65.109
2015    2       21     1  23    6.0952   585.2    4.376      65.054
2015    2       21     1  28    6.0893   585.3    4.369      64.999
2015    2       21     1  34    6.0833   585.4    4.363      64.943
2015    2       21     1  39    6.0771   585.5    4.356      64.887
2015    2       21     1  44    6.0714   585.5    4.350      64.829
2015    2       21     1  49    6.0654   585.6    4.343      64.772
2015    2       21     1  55    6.0595   585.7    4.337      64.714
2015    2       21     2   0    6.0535   585.8    4.331      64.656
2015    2       21     2   5    6.0476   585.8    4.324      64.597
2015    2       21     2  10    6.0418   585.9    4.318      64.537
2015    2       21     2  16    6.0359   586.0    4.312      64.476
2015    2       21     2  21    6.0301   586.0    4.306      64.415
2015    2       21     2  26    6.0243   586.1    4.300      64.354
2015    2       21     2  31    6.0183   586.1    4.293      64.292
2015    2       21     2  37    6.0125   586.2    4.287      64.230
2015    2       21     2  42    6.0068   586.2    4.281      64.167
2015    2       21     2  47    6.0011   586.3    4.275      64.105
2015    2       21     2  52    5.9957   586.3    4.270      64.043
2015    2       21     2  58    5.9901   586.3    4.264      63.982
2015    2       21     3   3    5.9846   586.4    4.259      63.920
2015    2       21     3   8    5.9791   586.4    4.253      63.860
2015    2       21     3  14    5.9736   586.4    4.248      63.801
2015    2       21     3  19    5.9682   586.4    4.243      63.742
2015    2       21     3  24    5.9629   586.4    4.238      63.685
2015    2       21     3  29    5.9576   586.4    4.234      63.628
2015    2       21     3  35    5.9523   586.4    4.229      63.573
2015    2       21     3  40    5.9471   586.4    4.225      63.520
2015    2       21     3  45    5.9418   586.4    4.221      63.469
2015    2       21     3  50    5.9367   586.4    4.218      63.419
2015    2       21     3  56    5.9314   586.4    4.214      63.370
2015    2       21     4   1    5.9265   586.4    4.211      63.323
2015    2       21     4   6    5.9214   586.4    4.207      63.277
2015    2       21     4  11    5.9164   586.4    4.204      63.231
2015    2       21     4  17    5.9112   586.5    4.201      63.187
2015    2       21     4  22    5.9064   586.5    4.198      63.142
2015    2       21     4  27    5.9014   586.5    4.195      63.098
2015    2       21     4  32    5.8964   586.5    4.192      63.054
2015    2       21     4  38    5.8914   586.5    4.189      63.010
2015    2       21     4  43    5.8863   586.5    4.186      62.967
2015    2       21     4  48    5.8815   586.5    4.183      62.922
2015    2       21     4  54    5.8765   586.5    4.180      62.878
2015    2       21     4  59    5.8713   586.6    4.176      62.834
2015    2       21     5   4    5.8665   586.6    4.173      62.788
2015    2       21     5   9    5.8615   586.6    4.170      62.742
2015    2       21     5  15    5.8565   586.6    4.166      62.695
2015    2       21     5  20    5.8512   586.6    4.163      62.648
2015    2       21     5  25    5.8462   586.6    4.159      62.601
2015    2       21     5  30    5.8414   586.7    4.156      62.553
2015    2       21     5  36    5.8364   586.7    4.152      62.505
2015    2       21     5  41    5.8313   586.7    4.149      62.457
2015    2       21     5  46    5.8261   586.7    4.145      62.408
2015    2       21     5  51    5.8210   586.7    4.141      62.359
2015    2       21     5  57    5.8161   586.8    4.138      62.311
2015    2       21     6   2    5.8111   586.8    4.134      62.261
2015    2       21     6   7    5.8058   586.8    4.130      62.212
2015    2       21     6  12    5.8007   586.8    4.127      62.163
2015    2       21     6  18    5.7956   586.8    4.123      62.114
2015    2       21     6  23    5.7905   586.8    4.119      62.064
2015    2       21     6  28    5.7855   586.9    4.116      62.014
2015    2       21     6  34    5.7806   586.9    4.112      61.965
2015    2       21     6  39    5.7753   586.9    4.108      61.915
2015    2       21     6  44    5.7704   586.9    4.105      61.865
2015    2       21     6  49    5.7653   586.9    4.101      61.815
2015    2       21     6  55    5.7600   586.9    4.097      61.764
2015    2       21     7   0    5.7551   586.9    4.093      61.714
2015    2       21     7   5    5.7498   586.9    4.090      61.664
2015    2       21     7  10    5.7450   586.9    4.086      61.613
2015    2       21     7  16    5.7397   586.9    4.082      61.562
2015    2       21     7  21    5.7347   586.9    4.079      61.512
2015    2       21     7  26    5.7298   586.9    4.075      61.461
2015    2       21     7  31    5.7248   586.9    4.071      61.410
2015    2       21     7  37    5.7199   586.9    4.067      61.359
2015    2       21     7  42    5.7149   586.9    4.064      61.307
2015    2       21     7  47    5.7099   586.9    4.060      61.256
2015    2       21     7  53    5.7048   586.9    4.056      61.205
2015    2       21     7  58    5.7001   586.9    4.052      61.154
2015    2       21     8   3    5.6950   586.8    4.049      61.102
2015    2       21     8   8    5.6904   586.8    4.045      61.051
2015    2       21     8  14    5.6856   586.8    4.041      60.999
2015    2       21     8  19    5.6807   586.8    4.038      60.948
2015    2       21     8  24    5.6758   586.8    4.034      60.896
2015    2       21     8  29    5.6710   586.7    4.031      60.845
2015    2       21     8  35    5.6665   586.7    4.027      60.793
2015    2       21     8  40    5.6616   586.7    4.023      60.742
2015    2       21     8  45    5.6570   586.7    4.020      60.690
2015    2       21     8  50    5.6524   586.6    4.016      60.639
2015    2       21     8  56    5.6478   586.6    4.013      60.587
2015    2       21     9   1    5.6434   586.6    4.010      60.536
2015    2       21     9   6    5.6389   586.5    4.006      60.484
2015    2       21     9  11    5.6342   586.5    4.003      60.433
2015    2       21     9  17    5.6299   586.4    4.000      60.382
2015    2       21     9  22    5.6255   586.4    3.996      60.331
2015    2       21     9  27    5.6208   586.4    3.993      60.280
2015    2       21     9  33    5.6167   586.3    3.990      60.229
2015    2       21     9  38    5.6124   586.3    3.987      60.178
2015    2       21     9  43    5.6080   586.2    3.984      60.127
2015    2       21     9  48    5.6037   586.2    3.981      60.077
2015    2       21     9  54    5.5995   586.1    3.978      60.026
2015    2       21     9  59    5.5953   586.1    3.975      59.976
2015    2       21    10   4    5.5911   586.0    3.972      59.925
2015    2       21    10   9    5.5869   586.0    3.969      59.875
2015    2       21    10  15    5.5825   585.9    3.966      59.825
2015    2       21    10  20    5.5786   585.9    3.964      59.775
2015    2       21    10  25    5.5743   585.8    3.961      59.725
2015    2       21    10  30    5.5705   585.7    3.958      59.675
2015    2       21    10  36    5.5662   585.7    3.955      59.625
2015    2       21    10  41    5.5622   585.6    3.953      59.575
2015    2       21    10  46    5.5584   585.6    3.950      59.526
2015    2       21    10  51    5.5544   585.5    3.947      59.477
2015    2       21    10  57    5.5503   585.5    3.944      59.427
2015    2       21    11   2    5.5463   585.4    3.942      59.378
2015    2       21    11   7    5.5424   585.3    3.939      59.329
2015    2       21    11  13    5.5385   585.3    3.937      59.280
2015    2       21    11  18    5.5349   585.2    3.934      59.232
2015    2       21    11  23    5.5308   585.2    3.931      59.183
2015    2       21    11  28    5.5271   585.1    3.929      59.135
2015    2       21    11  34    5.5233   585.1    3.926      59.087
2015    2       21    11  39    5.5193   585.0    3.924      59.039
2015    2       21    11  44    5.5154   584.9    3.921      58.991
2015    2       21    11  49    5.5118   584.9    3.919      58.943
2015    2       21    11  55    5.5080   584.8    3.916      58.896
2015    2       21    12   0    5.5040   584.7    3.913      58.848
2015    2       21    12   5    5.5003   584.7    3.911      58.801
2015    2       21    12  10    5.4965   584.6    3.908      58.754
2015    2       21    12  16    5.4927   584.6    3.906      58.707
2015    2       21    12  21    5.4887   584.5    3.904      58.660
2015    2       21    12  26    5.4851   584.4    3.901      58.614
2015    2       21    12  32    5.4813   584.4    3.899      58.568
2015    2       21    12  37    5.4775   584.3    3.896      58.521
2015    2       21    12  42    5.4735   584.2    3.894      58.475
2015    2       21    12  47    5.4697   584.2    3.892      58.429
2015    2       21    12  53    5.4660   584.1    3.889      58.383
2015    2       21    12  58    5.4622   584.0    3.887      58.337
2015    2       21    13   3    5.4583   584.0    3.885      58.292
2015    2       21    13   8    5.4546   583.9    3.882      58.246
2015    2       21    13  14    5.4507   583.8    3.880      58.201
2015    2       21    13  19    5.4469   583.8    3.878      58.156
2015    2       21    13  24    5.4432   583.7    3.876      58.110
2015    2       21    13  29    5.4393   583.6    3.874      58.065
2015    2       21    13  35    5.4357   583.5    3.872      58.020
2015    2       21    13  40    5.4319   583.5    3.870      57.975
2015    2       21    13  45    5.4280   583.4    3.868      57.930
2015    2       21    13  50    5.4244   583.3    3.865      57.886
2015    2       21    13  56    5.4206   583.2    3.864      57.841
2015    2       21    14   1    5.4169   583.2    3.862      57.796
2015    2       21    14   6    5.4130   583.1    3.860      57.751
2015    2       21    14  12    5.4093   583.0    3.858      57.707
2015    2       21    14  17    5.4056   582.9    3.856      57.662
2015    2       21    14  22    5.4019   582.9    3.854      57.618
2015    2       21    14  27    5.3982   582.8    3.852      57.573
2015    2       21    14  33    5.3947   582.7    3.851      57.529
2015    2       21    14  38    5.3910   582.6    3.849      57.484
2015    2       21    14  43    5.3874   582.5    3.847      57.440
2015    2       21    14  48    5.3838   582.5    3.846      57.396
2015    2       21    14  54    5.3802   582.4    3.844      57.352
2015    2       21    14  59    5.3765   582.3    3.842      57.308
2015    2       21    15   4    5.3729   582.2    3.841      57.264
2015    2       21    15   9    5.3695   582.1    3.839      57.219
2015    2       21    15  15    5.3658   582.1    3.838      57.175
2015    2       21    15  20    5.3624   582.0    3.837      57.131
2015    2       21    15  25    5.3589   581.9    3.835      57.087
2015    2       21    15  30    5.3554   581.8    3.834      57.044
2015    2       21    15  36    5.3518   581.7    3.832      57.000
2015    2       21    15  41    5.3483   581.6    3.831      56.956
2015    2       21    15  46    5.3449   581.5    3.830      56.912
2015    2       21    15  52    5.3415   581.4    3.829      56.869
2015    2       21    15  57    5.3381   581.3    3.827      56.825
2015    2       21    16   2    5.3347   581.2    3.826      56.782
2015    2       21    16   7    5.3315   581.2    3.825      56.738
2015    2       21    16  13    5.3282   581.1    3.824      56.695
2015    2       21    16  18    5.3247   581.0    3.822      56.651
2015    2       21    16  23    5.3214   580.9    3.821      56.608
2015    2       21    16  28    5.3182   580.8    3.820      56.565
2015    2       21    16  34    5.3151   580.7    3.819      56.522
2015    2       21    16  39    5.3117   580.6    3.818      56.480
2015    2       21    16  44    5.3086   580.5    3.817      56.437
2015    2       21    16  49    5.3055   580.4    3.816      56.394
2015    2       21    16  55    5.3022   580.3    3.815      56.352
2015    2       21    17   0    5.2990   580.2    3.814      56.310
2015    2       21    17   5    5.2959   580.1    3.813      56.268
2015    2       21    17  10    5.2928   580.0    3.812      56.226
2015    2       21    17  16    5.2899   579.8    3.811      56.184
2015    2       21    17  21    5.2867   579.7    3.810      56.143
2015    2       21    17  26    5.2838   579.6    3.809      56.101
2015    2       21    17  32    5.2809   579.5    3.808      56.060
2015    2       21    17  37    5.2777   579.4    3.807      56.019
2015    2       21    17  42    5.2749   579.3    3.807      55.978
2015    2       21    17  47    5.2718   579.2    3.806      55.937
2015    2       21    17  53    5.2690   579.1    3.805      55.897
2015    2       21    17  58    5.2659   579.0    3.804      55.856
2015    2       21    18   3    5.2630   578.9    3.803      55.816
2015    2       21    18   8    5.2601   578.8    3.802      55.776
2015    2       21    18  14    5.2571   578.7    3.801      55.736
2015    2       21    18  19    5.2542   578.6    3.800      55.696
2015    2       21    18  24    5.2514   578.5    3.800      55.656
2015    2       21    18  29    5.2485   578.3    3.799      55.615
2015    2       21    18  35    5.2456   578.2    3.798      55.576
2015    2       21    18  40    5.2427   578.1    3.797      55.536
2015    2       21    18  45    5.2398   578.0    3.796      55.496
2015    2       21    18  51    5.2369   577.9    3.795      55.456
2015    2       21    18  56    5.2340   577.8    3.793      55.416
2015    2       21    19   1    5.2309   577.7    3.792      55.376
2015    2       21    19   6    5.2282   577.5    3.791      55.336
2015    2       21    19  12    5.2253   577.4    3.790      55.296
2015    2       21    19  17    5.2223   577.3    3.789      55.256
2015    2       21    19  22    5.2195   577.2    3.788      55.216
2015    2       21    19  27    5.2167   577.1    3.786      55.176
2015    2       21    19  33    5.2138   576.9    3.785      55.136
2015    2       21    19  38    5.2110   576.8    3.784      55.096
2015    2       21    19  43    5.2082   576.7    3.783      55.055
2015    2       21    19  48    5.2053   576.6    3.781      55.015
2015    2       21    19  54    5.2024   576.4    3.780      54.975
2015    2       21    19  59    5.1997   576.3    3.779      54.934
2015    2       21    20   4    5.1969   576.2    3.777      54.893
2015    2       21    20   9    5.1941   576.1    3.776      54.852
2015    2       21    20  15    5.1913   575.9    3.774      54.812
2015    2       21    20  20    5.1884   575.8    3.773      54.770
2015    2       21    20  25    5.1858   575.7    3.772      54.729
2015    2       21    20  31    5.1831   575.6    3.770      54.688
2015    2       21    20  36    5.1803   575.4    3.769      54.646
2015    2       21    20  41    5.1776   575.3    3.767      54.604
2015    2       21    20  46    5.1749   575.2    3.766      54.562
2015    2       21    20  52    5.1722   575.0    3.764      54.519
2015    2       21    20  57    5.1695   574.9    3.763      54.477
2015    2       21    21   2    5.1667   574.8    3.762      54.434
2015    2       21    21   7    5.1642   574.6    3.760      54.391
2015    2       21    21  13    5.1615   574.5    3.759      54.348
2015    2       21    21  18    5.1589   574.4    3.757      54.305
2015    2       21    21  23    5.1563   574.2    3.756      54.262
2015    2       21    21  28    5.1537   574.1    3.755      54.218
2015    2       21    21  34    5.1511   574.0    3.753      54.175
2015    2       21    21  39    5.1485   573.8    3.752      54.131
2015    2       21    21  44    5.1460   573.7    3.751      54.087
2015    2       21    21  49    5.1433   573.6    3.750      54.043
2015    2       21    21  55    5.1408   573.4    3.748      53.999
2015    2       21    22   0    5.1384   573.3    3.747      53.955
2015    2       21    22   5    5.1359   573.2    3.746      53.911
2015    2       21    22  11    5.1334   573.0    3.745      53.867
2015    2       21    22  16    5.1308   572.9    3.744      53.822
2015    2       21    22  21    5.1285   572.8    3.743      53.778
2015    2       21    22  26    5.1259   572.6    3.742      53.734
2015    2       21    22  32    5.1236   572.5    3.741      53.690
2015    2       21    22  37    5.1212   572.4    3.740      53.645
2015    2       21    22  42    5.1188   572.2    3.739      53.601
2015    2       21    22  47    5.1164   572.1    3.738      53.557
2015    2       21    22  53    5.1140   572.0    3.738      53.513
2015    2       21    22  58    5.1116   571.8    3.737      53.468
2015    2       21    23   3    5.1093   571.7    3.736      53.424
2015    2       21    23   8    5.1070   571.5    3.735      53.380
2015    2       21    23  14    5.1045   571.4    3.735      53.335
2015    2       21    23  19    5.1023   571.3    3.734      53.291
2015    2       21    23  24    5.1000   571.1    3.733      53.247
2015    2       21    23  29    5.0977   571.0    3.733      53.203
2015    2       21    23  35    5.0953   570.9    3.732      53.159
2015    2       21    23  40    5.0931   570.7    3.732      53.115
2015    2       21    23  45    5.0908   570.6    3.731      53.071
2015    2       21    23  51    5.0885   570.4    3.731      53.027
2015    2       21    23  56    5.0862   570.3    3.730      52.983
2015    2       22     0   1    5.0840   570.2    3.730      52.939
2015    2       22     0   6    5.0816   570.0    3.730      52.895
2015    2       22     0  12    5.0795   569.9    3.729      52.852
2015    2       22     0  17    5.0771   569.7    3.729      52.808
2015    2       22     0  22    5.0749   569.6    3.729      52.765
2015    2       22     0  27    5.0727   569.5    3.729      52.721
2015    2       22     0  33    5.0704   569.3    3.728      52.678
2015    2       22     0  38    5.0682   569.2    3.728      52.635
2015    2       22     0  43    5.0660   569.0    3.728      52.592
2015    2       22     0  48    5.0638   568.9    3.728      52.549
2015    2       22     0  54    5.0616   568.8    3.728      52.507
2015    2       22     0  59    5.0594   568.6    3.728      52.464
2015    2       22     1   4    5.0571   568.5    3.728      52.422
2015    2       22     1  10    5.0549   568.3    3.728      52.380
2015    2       22     1  15    5.0527   568.2    3.728      52.339
2015    2       22     1  20    5.0505   568.0    3.728      52.297
2015    2       22     1  25    5.0482   567.9    3.729      52.256
2015    2       22     1  31    5.0460   567.7    3.729      52.215
2015    2       22     1  36    5.0438   567.6    3.729      52.175
2015    2       22     1  41    5.0415   567.4    3.729      52.135
2015    2       22     1  46    5.0393   567.3    3.730      52.096
2015    2       22     1  52    5.0370   567.1    3.730      52.057
2015    2       22     1  57    5.0348   567.0    3.731      52.018
2015    2       22     2   2    5.0325   566.8    3.731      51.980
2015    2       22     2   7    5.0303   566.7    3.731      51.942
2015    2       22     2  13    5.0281   566.5    3.732      51.905
2015    2       22     2  18    5.0258   566.4    3.732      51.869
2015    2       22     2  23    5.0236   566.2    3.733      51.833
2015    2       22     2  28    5.0214   566.1    3.733      51.798
2015    2       22     2  34    5.0191   565.9    3.734      51.763
2015    2       22     2  39    5.0170   565.7    3.734      51.728
2015    2       22     2  44    5.0148   565.6    3.735      51.694
2015    2       22     2  50    5.0126   565.4    3.736      51.660
2015    2       22     2  55    5.0105   565.3    3.736      51.627
2015    2       22     3   0    5.0083   565.1    3.737      51.594
2015    2       22     3   5    5.0061   565.0    3.737      51.561
2015    2       22     3  11    5.0040   564.8    3.738      51.529
2015    2       22     3  16    5.0019   564.6    3.738      51.497
2015    2       22     3  21    4.9997   564.5    3.739      51.465
2015    2       22     3  26    4.9976   564.3    3.739      51.434
2015    2       22     3  32    4.9954   564.2    3.739      51.403
2015    2       22     3  37    4.9933   564.0    3.740      51.372
2015    2       22     3  42    4.9912   563.8    3.740      51.341
2015    2       22     3  47    4.9891   563.7    3.740      51.311
2015    2       22     3  53    4.9870   563.5    3.740      51.280
2015    2       22     3  58    4.9850   563.3    3.740      51.250
2015    2       22     4   3    4.9829   563.2    3.740      51.219
2015    2       22     4   8    4.9808   563.0    3.740      51.189
2015    2       22     4  14    4.9787   562.9    3.740      51.157
2015    2       22     4  19    4.9767   562.7    3.740      51.126
2015    2       22     4  24    4.9746   562.5    3.740      51.094
2015    2       22     4  30    4.9726   562.4    3.740      51.062
2015    2       22     4  35    4.9706   562.2    3.740      51.029
2015    2       22     4  40    4.9687   562.0    3.740      50.996
2015    2       22     4  45    4.9667   561.9    3.739      50.962
2015    2       22     4  51    4.9647   561.7    3.739      50.927
2015    2       22     4  56    4.9627   561.6    3.738      50.892
2015    2       22     5   1    4.9608   561.4    3.738      50.857
2015    2       22     5   6    4.9588   561.2    3.738      50.821
2015    2       22     5  12    4.9570   561.1    3.737      50.784
2015    2       22     5  17    4.9551   560.9    3.737      50.747
2015    2       22     5  22    4.9531   560.7    3.736      50.709
2015    2       22     5  27    4.9513   560.6    3.736      50.672
2015    2       22     5  33    4.9495   560.4    3.735      50.633
2015    2       22     5  38    4.9475   560.2    3.734      50.594
2015    2       22     5  43    4.9458   560.1    3.734      50.555
2015    2       22     5  48    4.9440   559.9    3.733      50.515
2015    2       22     5  54    4.9420   559.8    3.733      50.475
2015    2       22     5  59    4.9402   559.6    3.732      50.434
2015    2       22     6   4    4.9385   559.4    3.731      50.394
2015    2       22     6  10    4.9367   559.3    3.730      50.352
2015    2       22     6  15    4.9348   559.1    3.730      50.311
2015    2       22     6  20    4.9331   558.9    3.729      50.269
2015    2       22     6  25    4.9313   558.8    3.728      50.227
2015    2       22     6  31    4.9296   558.6    3.728      50.184
2015    2       22     6  36    4.9278   558.4    3.727      50.141
2015    2       22     6  41    4.9260   558.3    3.726      50.098
2015    2       22     6  46    4.9243   558.1    3.726      50.054
2015    2       22     6  52    4.9226   557.9    3.725      50.011
2015    2       22     6  57    4.9209   557.8    3.724      49.967
2015    2       22     7   2    4.9192   557.6    3.723      49.923
2015    2       22     7   7    4.9174   557.4    3.723      49.878
2015    2       22     7  13    4.9157   557.3    3.722      49.834
2015    2       22     7  18    4.9139   557.1    3.722      49.789
2015    2       22     7  23    4.9122   556.9    3.721      49.744
2015    2       22     7  29    4.9105   556.8    3.720      49.699
2015    2       22     7  34    4.9089   556.6    3.720      49.653
2015    2       22     7  39    4.9071   556.4    3.719      49.608
2015    2       22     7  44    4.9054   556.3    3.719      49.562
2015    2       22     7  50    4.9037   556.1    3.718      49.516
2015    2       22     7  55    4.9020   555.9    3.718      49.470
2015    2       22     8   0    4.9003   555.8    3.717      49.424
2015    2       22     8   5    4.8986   555.6    3.717      49.377
2015    2       22     8  11    4.8970   555.4    3.717      49.331
2015    2       22     8  16    4.8952   555.3    3.716      49.285
2015    2       22     8  21    4.8935   555.1    3.716      49.239
2015    2       22     8  26    4.8918   554.9    3.716      49.192
2015    2       22     8  32    4.8901   554.7    3.716      49.146
2015    2       22     8  37    4.8885   554.6    3.716      49.100
2015    2       22     8  42    4.8867   554.4    3.716      49.054
2015    2       22     8  47    4.8851   554.2    3.716      49.008
2015    2       22     8  53    4.8833   554.0    3.716      48.963
2015    2       22     8  58    4.8816   553.9    3.716      48.917
2015    2       22     9   3    4.8799   553.7    3.716      48.872
2015    2       22     9   9    4.8782   553.5    3.716      48.827
2015    2       22     9  14    4.8765   553.3    3.716      48.782
2015    2       22     9  19    4.8749   553.1    3.717      48.738
2015    2       22     9  24    4.8731   553.0    3.717      48.694
2015    2       22     9  30    4.8714   552.8    3.717      48.650
2015    2       22     9  35    4.8697   552.6    3.718      48.607
2015    2       22     9  40    4.8681   552.4    3.718      48.564
2015    2       22     9  45    4.8663   552.2    3.719      48.522
2015    2       22     9  51    4.8646   552.1    3.719      48.480
2015    2       22     9  56    4.8630   551.9    3.720      48.438
2015    2       22    10   1    4.8612   551.7    3.720      48.397
2015    2       22    10   6    4.8595   551.5    3.721      48.356
2015    2       22    10  12    4.8578   551.3    3.722      48.315
2015    2       22    10  17    4.8562   551.1    3.723      48.275
2015    2       22    10  22    4.8545   550.9    3.723      48.235
2015    2       22    10  27    4.8528   550.7    3.724      48.195
2015    2       22    10  33    4.8511   550.5    3.725      48.156
2015    2       22    10  38    4.8494   550.3    3.726      48.118
2015    2       22    10  43    4.8477   550.1    3.727      48.080
2015    2       22    10  49    4.8461   550.0    3.727      48.042
2015    2       22    10  54    4.8444   549.8    3.728      48.005
2015    2       22    10  59    4.8428   549.6    3.729      47.969
2015    2       22    11   4    4.8411   549.4    3.730      47.933
2015    2       22    11  10    4.8395   549.2    3.731      47.898
2015    2       22    11  15    4.8379   549.0    3.732      47.863
2015    2       22    11  20    4.8363   548.8    3.733      47.829
2015    2       22    11  25    4.8347   548.6    3.734      47.795
2015    2       22    11  31    4.8331   548.4    3.735      47.762
2015    2       22    11  36    4.8315   548.2    3.736      47.729
2015    2       22    11  41    4.8300   548.0    3.737      47.696
2015    2       22    11  46    4.8285   547.8    3.738      47.663
2015    2       22    11  52    4.8269   547.6    3.739      47.631
2015    2       22    11  57    4.8254   547.4    3.740      47.599
2015    2       22    12   2    4.8239   547.2    3.742      47.567
2015    2       22    12   8    4.8225   547.0    3.743      47.535
2015    2       22    12  13    4.8210   546.8    3.744      47.503
2015    2       22    12  18    4.8196   546.6    3.745      47.471
2015    2       22    12  23    4.8181   546.4    3.746      47.439
2015    2       22    12  29    4.8167   546.2    3.747      47.406
2015    2       22    12  34    4.8152   546.0    3.748      47.374
2015    2       22    12  39    4.8138   545.8    3.749      47.342
2015    2       22    12  44    4.8124   545.6    3.750      47.309
2015    2       22    12  50    4.8110   545.4    3.751      47.276
2015    2       22    12  55    4.8096   545.2    3.752      47.243
2015    2       22    13   0    4.8082   545.0    3.753      47.211
2015    2       22    13   5    4.8068   544.8    3.754      47.177
2015    2       22    13  11    4.8054   544.6    3.755      47.144
2015    2       22    13  16    4.8041   544.4    3.756      47.110
2015    2       22    13  21    4.8027   544.2    3.757      47.077
2015    2       22    13  26    4.8013   544.0    3.758      47.043
2015    2       22    13  32    4.7999   543.7    3.759      47.009
2015    2       22    13  37    4.7986   543.5    3.759      46.975
2015    2       22    13  42    4.7972   543.3    3.760      46.941
2015    2       22    13  48    4.7959   543.1    3.761      46.906
2015    2       22    13  53    4.7946   542.9    3.762      46.872
2015    2       22    13  58    4.7932   542.7    3.762      46.837
2015    2       22    14   3    4.7920   542.5    3.763      46.803
2015    2       22    14   9    4.7907   542.3    3.764      46.768
2015    2       22    14  14    4.7894   542.1    3.764      46.733
2015    2       22    14  19    4.7881   541.9    3.765      46.698
2015    2       22    14  24    4.7869   541.7    3.766      46.663
2015    2       22    14  30    4.7856   541.5    3.766      46.628
2015    2       22    14  35    4.7844   541.3    3.767      46.593
2015    2       22    14  40    4.7832   541.1    3.768      46.558
2015    2       22    14  45    4.7820   540.9    3.768      46.523
2015    2       22    14  51    4.7808   540.7    3.769      46.488
2015    2       22    14  56    4.7796   540.5    3.770      46.453
2015    2       22    15   1    4.7785   540.3    3.770      46.418
2015    2       22    15   6    4.7773   540.1    3.771      46.384
2015    2       22    15  12    4.7762   539.9    3.772      46.349
2015    2       22    15  17    4.7751   539.7    3.773      46.314
2015    2       22    15  22    4.7739   539.5    3.774      46.280
2015    2       22    15  28    4.7728   539.3    3.775      46.245
2015    2       22    15  33    4.7717   539.1    3.775      46.211
2015    2       22    15  38    4.7705   538.9    3.776      46.177
2015    2       22    15  43    4.7694   538.7    3.777      46.143
2015    2       22    15  49    4.7683   538.5    3.778      46.110
2015    2       22    15  54    4.7672   538.3    3.780      46.076
2015    2       22    15  59    4.7660   538.1    3.781      46.043
2015    2       22    16   4    4.7650   537.9    3.782      46.010
2015    2       22    16  10    4.7638   537.7    3.783      45.976
2015    2       22    16  15    4.7627   537.5    3.784      45.943
2015    2       22    16  20    4.7615   537.3    3.786      45.910
2015    2       22    16  25    4.7604   537.0    3.787      45.877
2015    2       22    16  31    4.7592   536.8    3.788      45.843
2015    2       22    16  36    4.7581   536.6    3.790      45.809
2015    2       22    16  41    4.7569   536.4    3.791      45.775
2015    2       22    16  46    4.7557   536.2    3.792      45.739
2015    2       22    16  52    4.7545   536.0    3.794      45.704
2015    2       22    16  57    4.7534   535.8    3.795      45.668
2015    2       22    17   2    4.7522   535.6    3.797      45.631
2015    2       22    17   8    4.7510   535.4    3.798      45.594
2015    2       22    17  13    4.7498   535.2    3.799      45.556
2015    2       22    17  18    4.7486   535.0    3.801      45.517
2015    2       22    17  23    4.7474   534.8    3.802      45.477
2015    2       22    17  29    4.7462   534.5    3.804      45.438
2015    2       22    17  34    4.7450   534.3    3.805      45.398
2015    2       22    17  39    4.7439   534.1    3.807      45.357
2015    2       22    17  44    4.7426   533.9    3.808      45.317
2015    2       22    17  50    4.7414   533.7    3.810      45.276
2015    2       22    17  55    4.7403   533.4    3.811      45.235
2015    2       22    18   0    4.7392   533.2    3.813      45.194
2015    2       22    18   5    4.7380   533.0    3.814      45.153
2015    2       22    18  11    4.7369   532.8    3.816      45.111
2015    2       22    18  16    4.7358   532.5    3.817      45.070
2015    2       22    18  21    4.7347   532.3    3.819      45.029
2015    2       22    18  27    4.7336   532.1    3.821      44.989
2015    2       22    18  32    4.7325   531.8    3.822      44.948
2015    2       22    18  37    4.7314   531.6    3.824      44.907
2015    2       22    18  42    4.7304   531.4    3.826      44.867
2015    2       22    18  48    4.7293   531.2    3.828      44.827
2015    2       22    18  53    4.7284   530.9    3.829      44.787
2015    2       22    18  58    4.7273   530.7    3.831      44.747
2015    2       22    19   3    4.7264   530.5    3.833      44.708
2015    2       22    19   9    4.7255   530.2    3.835      44.669
2015    2       22    19  14    4.7245   530.0    3.837      44.629
2015    2       22    19  19    4.7236   529.8    3.839      44.590
2015    2       22    19  24    4.7227   529.5    3.841      44.552
2015    2       22    19  30    4.7218   529.3    3.843      44.513
2015    2       22    19  35    4.7209   529.1    3.845      44.474
2015    2       22    19  40    4.7201   528.8    3.847      44.436
2015    2       22    19  45    4.7192   528.6    3.849      44.398
2015    2       22    19  51    4.7184   528.3    3.851      44.360
2015    2       22    19  56    4.7175   528.1    3.853      44.322
2015    2       22    20   1    4.7167   527.9    3.855      44.284
2015    2       22    20   7    4.7160   527.6    3.857      44.246
2015    2       22    20  12    4.7152   527.4    3.859      44.209
2015    2       22    20  17    4.7144   527.1    3.861      44.171
2015    2       22    20  22    4.7137   526.9    3.863      44.134
2015    2       22    20  28    4.7129   526.7    3.865      44.097
2015    2       22    20  33    4.7121   526.4    3.867      44.060
2015    2       22    20  38    4.7115   526.2    3.870      44.023
2015    2       22    20  43    4.7107   525.9    3.872      43.987
2015    2       22    20  49    4.7101   525.7    3.874      43.950
2015    2       22    20  54    4.7094   525.5    3.876      43.914
2015    2       22    20  59    4.7088   525.2    3.878      43.879
2015    2       22    21   4    4.7081   525.0    3.880      43.844
2015    2       22    21  10    4.7075   524.7    3.882      43.809
2015    2       22    21  15    4.7069   524.5    3.885      43.774
2015    2       22    21  20    4.7064   524.2    3.887      43.740
2015    2       22    21  25    4.7059   524.0    3.889      43.707
2015    2       22    21  31    4.7054   523.8    3.892      43.674
2015    2       22    21  36    4.7049   523.5    3.894      43.642
2015    2       22    21  41    4.7045   523.3    3.897      43.610
2015    2       22    21  47    4.7041   523.0    3.899      43.578
2015    2       22    21  52    4.7037   522.8    3.902      43.547
2015    2       22    21  57    4.7034   522.6    3.904      43.517
2015    2       22    22   2    4.7030   522.3    3.907      43.488
2015    2       22    22   8    4.7027   522.1    3.910      43.459
2015    2       22    22  13    4.7025   521.8    3.913      43.430
2015    2       22    22  18    4.7022   521.6    3.916      43.402
2015    2       22    22  23    4.7020   521.4    3.919      43.375
2015    2       22    22  29    4.7018   521.1    3.922      43.349
2015    2       22    22  34    4.7017   520.9    3.925      43.323
2015    2       22    22  39    4.7015   520.6    3.929      43.297
2015    2       22    22  44    4.7014   520.4    3.932      43.273
2015    2       22    22  50    4.7013   520.2    3.936      43.249
2015    2       22    22  55    4.7013   519.9    3.939      43.225
2015    2       22    23   0    4.7012   519.7    3.943      43.202
2015    2       22    23   5    4.7013   519.5    3.947      43.180
2015    2       22    23  11    4.7012   519.2    3.951      43.158
2015    2       22    23  16    4.7013   519.0    3.955      43.137
2015    2       22    23  21    4.7013   518.7    3.959      43.117
2015    2       22    23  27    4.7013   518.5    3.963      43.096
2015    2       22    23  32    4.7014   518.3    3.968      43.077
2015    2       22    23  37    4.7015   518.0    3.972      43.057
2015    2       22    23  42    4.7016   517.8    3.977      43.039
2015    2       22    23  48    4.7017   517.6    3.981      43.020
2015    2       22    23  53    4.7017   517.4    3.986      43.002
2015    2       22    23  58    4.7020   517.1    3.991      42.983
2015    2       23     0   3    4.7021   516.9    3.996      42.965
2015    2       23     0   9    4.7023   516.7    4.001      42.947
2015    2       23     0  14    4.7023   516.4    4.006      42.928
2015    2       23     0  19    4.7026   516.2    4.011      42.909
2015    2       23     0  24    4.7027   516.0    4.017      42.889
2015    2       23     0  30    4.7029   515.8    4.022      42.869
2015    2       23     0  35    4.7031   515.5    4.027      42.849
2015    2       23     0  40    4.7033   515.3    4.033      42.828
2015    2       23     0  45    4.7035   515.1    4.038      42.807
2015    2       23     0  51    4.7038   514.9    4.043      42.785
2015    2       23     0  56    4.7040   514.6    4.049      42.763
2015    2       23     1   1    4.7044   514.4    4.054      42.740
2015    2       23     1   7    4.7047   514.2    4.059      42.717
2015    2       23     1  12    4.7048   514.0    4.065      42.694
2015    2       23     1  17    4.7051   513.7    4.070      42.670
2015    2       23     1  22    4.7054   513.5    4.075      42.646
2015    2       23     1  28    4.7058   513.3    4.081      42.621
2015    2       23     1  33    4.7060   513.0    4.086      42.596
2015    2       23     1  38    4.7064   512.8    4.091      42.571
2015    2       23     1  43    4.7069   512.6    4.096      42.546
2015    2       23     1  49    4.7073   512.4    4.101      42.520
2015    2       23     1  54    4.7077   512.1    4.107      42.494
2015    2       23     1  59    4.7079   511.9    4.112      42.468
2015    2       23     2   4    4.7084   511.7    4.117      42.441
2015    2       23     2  10    4.7090   511.5    4.122      42.415
2015    2       23     2  15    4.7095   511.2    4.126      42.388
2015    2       23     2  20    4.7100   511.0    4.131      42.361
2015    2       23     2  26    4.7103   510.8    4.136      42.334
2015    2       23     2  31    4.7110   510.6    4.141      42.306
2015    2       23     2  36    4.7116   510.3    4.146      42.279
2015    2       23     2  41    4.7122   510.1    4.150      42.252
2015    2       23     2  47    4.7127   509.9    4.155      42.224
2015    2       23     2  52    4.7134   509.7    4.159      42.197
2015    2       23     2  57    4.7140   509.4    4.164      42.169
2015    2       23     3   2    4.7145   509.2    4.169      42.142
2015    2       23     3   8    4.7152   509.0    4.173      42.115
2015    2       23     3  13    4.7161   508.8    4.177      42.087
2015    2       23     3  18    4.7168   508.5    4.182      42.060
2015    2       23     3  23    4.7174   508.3    4.186      42.033
2015    2       23     3  29    4.7184   508.1    4.191      42.006
2015    2       23     3  34    4.7192   507.9    4.195      41.979
2015    2       23     3  39    4.7198   507.6    4.199      41.953
2015    2       23     3  44    4.7207   507.4    4.203      41.926
2015    2       23     3  50    4.7217   507.2    4.208      41.900
2015    2       23     3  55    4.7226   507.0    4.212      41.874
2015    2       23     4   0    4.7236   506.7    4.216      41.848
2015    2       23     4   6    4.7245   506.5    4.220      41.823
2015    2       23     4  11    4.7253   506.3    4.225      41.798
2015    2       23     4  16    4.7263   506.1    4.229      41.773
2015    2       23     4  21    4.7274   505.9    4.233      41.748
2015    2       23     4  27    4.7286   505.6    4.237      41.724
2015    2       23     4  32    4.7297   505.4    4.242      41.700
2015    2       23     4  37    4.7306   505.2    4.246      41.677
2015    2       23     4  42    4.7320   505.0    4.250      41.654
2015    2       23     4  48    4.7330   504.8    4.255      41.632
2015    2       23     4  53    4.7342   504.6    4.259      41.610
2015    2       23     4  58    4.7354   504.3    4.264      41.589
2015    2       23     5   3    4.7367   504.1    4.268      41.568
2015    2       23     5   9    4.7380   503.9    4.273      41.548
2015    2       23     5  14    4.7393   503.7    4.278      41.528
2015    2       23     5  19    4.7409   503.5    4.283      41.509
2015    2       23     5  24    4.7421   503.3    4.287      41.490
2015    2       23     5  30    4.7438   503.1    4.292      41.473
2015    2       23     5  35    4.7452   502.8    4.297      41.455
2015    2       23     5  40    4.7465   502.6    4.302      41.439
2015    2       23     5  46    4.7481   502.4    4.308      41.422
2015    2       23     5  51    4.7496   502.2    4.313      41.407
2015    2       23     5  56    4.7514   502.0    4.318      41.392
2015    2       23     6   1    4.7529   501.8    4.324      41.378
2015    2       23     6   7    4.7545   501.6    4.329      41.364
2015    2       23     6  12    4.7562   501.4    4.335      41.351
2015    2       23     6  17    4.7581   501.2    4.341      41.338
2015    2       23     6  22    4.7596   501.0    4.346      41.326
2015    2       23     6  28    4.7614   500.8    4.352      41.314
2015    2       23     6  33    4.7632   500.6    4.358      41.303
2015    2       23     6  38    4.7650   500.4    4.364      41.292
2015    2       23     6  43    4.7669   500.2    4.371      41.282
2015    2       23     6  49    4.7689   500.0    4.377      41.272
2015    2       23     6  54    4.7706   499.8    4.383      41.263
2015    2       23     6  59    4.7727   499.6    4.390      41.254
2015    2       23     7   5    4.7747   499.5    4.396      41.246
2015    2       23     7  10    4.7766   499.3    4.403      41.238
2015    2       23     7  15    4.7786   499.1    4.410      41.230
2015    2       23     7  20    4.7806   498.9    4.417      41.222
2015    2       23     7  26    4.7824   498.7    4.424      41.215
2015    2       23     7  31    4.7844   498.5    4.431      41.209
2015    2       23     7  36    4.7865   498.4    4.438      41.202
2015    2       23     7  41    4.7885   498.2    4.445      41.196
2015    2       23     7  47    4.7908   498.0    4.452      41.190
2015    2       23     7  52    4.7929   497.8    4.459      41.184
2015    2       23     7  57    4.7948   497.7    4.467      41.178
2015    2       23     8   2    4.7969   497.5    4.474      41.172
2015    2       23     8   8    4.7992   497.3    4.482      41.166
2015    2       23     8  13    4.8011   497.2    4.489      41.160
2015    2       23     8  18    4.8034   497.0    4.496      41.155
2015    2       23     8  23    4.8053   496.8    4.504      41.149
2015    2       23     8  29    4.8074   496.7    4.511      41.143
2015    2       23     8  34    4.8095   496.5    4.519      41.137
2015    2       23     8  39    4.8117   496.3    4.526      41.131
2015    2       23     8  45    4.8140   496.2    4.534      41.125
2015    2       23     8  50    4.8160   496.0    4.541      41.119
2015    2       23     8  55    4.8181   495.9    4.549      41.112
2015    2       23     9   0    4.8203   495.7    4.556      41.106
2015    2       23     9   6    4.8225   495.5    4.564      41.099
2015    2       23     9  11    4.8249   495.4    4.571      41.093
2015    2       23     9  16    4.8268   495.2    4.578      41.086
2015    2       23     9  21    4.8290   495.1    4.586      41.079
2015    2       23     9  27    4.8312   494.9    4.593      41.072
2015    2       23     9  32    4.8335   494.7    4.600      41.065
2015    2       23     9  37    4.8359   494.6    4.607      41.059
2015    2       23     9  42    4.8380   494.4    4.615      41.052
2015    2       23     9  48    4.8402   494.3    4.622      41.045
2015    2       23     9  53    4.8427   494.1    4.629      41.038
2015    2       23     9  58    4.8448   493.9    4.636      41.032
2015    2       23    10   3    4.8471   493.8    4.643      41.025
2015    2       23    10   9    4.8496   493.6    4.650      41.018
2015    2       23    10  14    4.8519   493.5    4.656      41.012
2015    2       23    10  19    4.8542   493.3    4.663      41.006
2015    2       23    10  25    4.8566   493.2    4.670      41.000
2015    2       23    10  30    4.8590   493.0    4.677      40.994
2015    2       23    10  35    4.8613   492.9    4.683      40.988
2015    2       23    10  40    4.8637   492.7    4.690      40.982
2015    2       23    10  46    4.8660   492.6    4.696      40.977
2015    2       23    10  51    4.8686   492.4    4.703      40.971
2015    2       23    10  56    4.8711   492.3    4.709      40.966
2015    2       23    11   1    4.8735   492.1    4.716      40.961
2015    2       23    11   7    4.8758   492.0    4.722      40.956
2015    2       23    11  12    4.8785   491.8    4.729      40.951
2015    2       23    11  17    4.8810   491.7    4.735      40.947
2015    2       23    11  22    4.8835   491.5    4.741      40.942
2015    2       23    11  28    4.8859   491.4    4.747      40.937
2015    2       23    11  33    4.8886   491.2    4.753      40.933
2015    2       23    11  38    4.8910   491.1    4.760      40.928
2015    2       23    11  43    4.8938   491.0    4.766      40.924
2015    2       23    11  49    4.8962   490.8    4.772      40.919
2015    2       23    11  54    4.8988   490.7    4.778      40.915
2015    2       23    11  59    4.9015   490.5    4.784      40.911
2015    2       23    12   5    4.9041   490.4    4.790      40.907
2015    2       23    12  10    4.9068   490.2    4.796      40.902
2015    2       23    12  15    4.9095   490.1    4.802      40.898
2015    2       23    12  20    4.9123   490.0    4.807      40.894
2015    2       23    12  26    4.9149   489.8    4.813      40.890
2015    2       23    12  31    4.9176   489.7    4.819      40.886
2015    2       23    12  36    4.9204   489.5    4.825      40.883
2015    2       23    12  41    4.9232   489.4    4.831      40.879
2015    2       23    12  47    4.9261   489.3    4.837      40.875
2015    2       23    12  52    4.9289   489.1    4.842      40.872
2015    2       23    12  57    4.9316   489.0    4.848      40.868
2015    2       23    13   2    4.9344   488.9    4.854      40.865
2015    2       23    13   8    4.9373   488.7    4.860      40.862
2015    2       23    13  13    4.9402   488.6    4.866      40.859
2015    2       23    13  18    4.9430   488.5    4.872      40.856
2015    2       23    13  23    4.9459   488.3    4.877      40.853
2015    2       23    13  29    4.9488   488.2    4.883      40.850
2015    2       23    13  34    4.9519   488.1    4.889      40.848
2015    2       23    13  39    4.9547   488.0    4.895      40.846
2015    2       23    13  45    4.9578   487.8    4.901      40.843
2015    2       23    13  50    4.9607   487.7    4.907      40.842
2015    2       23    13  55    4.9636   487.6    4.913      40.840
2015    2       23    14   0    4.9666   487.5    4.918      40.838
2015    2       23    14   6    4.9697   487.4    4.924      40.837
2015    2       23    14  11    4.9727   487.2    4.930      40.836
2015    2       23    14  16    4.9758   487.1    4.936      40.835
2015    2       23    14  21    4.9788   487.0    4.942      40.834
2015    2       23    14  27    4.9819   486.9    4.948      40.834
2015    2       23    14  32    4.9848   486.8    4.954      40.834
2015    2       23    14  37    4.9880   486.7    4.960      40.834
2015    2       23    14  42    4.9909   486.6    4.966      40.834
2015    2       23    14  48    4.9941   486.4    4.972      40.834
2015    2       23    14  53    4.9971   486.3    4.978      40.835
2015    2       23    14  58    5.0002   486.2    4.985      40.836
2015    2       23    15   4    5.0033   486.1    4.991      40.837
2015    2       23    15   9    5.0063   486.0    4.997      40.838
2015    2       23    15  14    5.0093   485.9    5.003      40.840
2015    2       23    15  19    5.0124   485.8    5.009      40.842
2015    2       23    15  25    5.0155   485.7    5.015      40.844
2015    2       23    15  30    5.0185   485.6    5.021      40.846
2015    2       23    15  35    5.0217   485.5    5.028      40.848
2015    2       23    15  40    5.0247   485.4    5.034      40.851
2015    2       23    15  46    5.0277   485.3    5.040      40.854
2015    2       23    15  51    5.0309   485.2    5.046      40.856
2015    2       23    15  56    5.0339   485.1    5.053      40.859
2015    2       23    16   1    5.0369   485.0    5.059      40.863
2015    2       23    16   7    5.0400   484.9    5.065      40.866
2015    2       23    16  12    5.0431   484.8    5.071      40.869
2015    2       23    16  17    5.0462   484.7    5.078      40.873
2015    2       23    16  22    5.0492   484.6    5.084      40.876
2015    2       23    16  28    5.0522   484.5    5.090      40.880
2015    2       23    16  33    5.0553   484.4    5.096      40.883
2015    2       23    16  38    5.0583   484.3    5.103      40.887
2015    2       23    16  44    5.0614   484.2    5.109      40.890
2015    2       23    16  49    5.0644   484.1    5.115      40.894
2015    2       23    16  54    5.0674   484.0    5.121      40.897
2015    2       23    16  59    5.0704   483.9    5.127      40.901
2015    2       23    17   5    5.0735   483.9    5.134      40.904
2015    2       23    17  10    5.0766   483.8    5.140      40.907
2015    2       23    17  15    5.0796   483.7    5.146      40.910
2015    2       23    17  20    5.0826   483.6    5.152      40.913
2015    2       23    17  26    5.0856   483.5    5.158      40.916
2015    2       23    17  31    5.0887   483.4    5.164      40.919
2015    2       23    17  36    5.0917   483.3    5.170      40.922
2015    2       23    17  41    5.0948   483.2    5.176      40.924
2015    2       23    17  47    5.0978   483.1    5.182      40.926
2015    2       23    17  52    5.1010   483.0    5.188      40.929
2015    2       23    17  57    5.1040   482.9    5.193      40.931
2015    2       23    18   2    5.1071   482.8    5.199      40.933
2015    2       23    18   8    5.1102   482.7    5.205      40.935
2015    2       23    18  13    5.1133   482.6    5.211      40.937
2015    2       23    18  18    5.1164   482.5    5.217      40.939
2015    2       23    18  24    5.1195   482.4    5.222      40.940
2015    2       23    18  29    5.1227   482.3    5.228      40.942
2015    2       23    18  34    5.1259   482.3    5.234      40.944
2015    2       23    18  39    5.1290   482.2    5.239      40.946
2015    2       23    18  45    5.1322   482.1    5.245      40.947
2015    2       23    18  50    5.1354   482.0    5.251      40.949
2015    2       23    18  55    5.1386   481.9    5.256      40.951
2015    2       23    19   0    5.1418   481.8    5.262      40.953
2015    2       23    19   6    5.1451   481.7    5.267      40.954
2015    2       23    19  11    5.1484   481.6    5.273      40.956
2015    2       23    19  16    5.1517   481.5    5.278      40.958
2015    2       23    19  21    5.1550   481.4    5.284      40.961
2015    2       23    19  27    5.1583   481.3    5.290      40.963
2015    2       23    19  32    5.1617   481.3    5.295      40.965
2015    2       23    19  37    5.1651   481.2    5.301      40.968
2015    2       23    19  42    5.1685   481.1    5.306      40.971
2015    2       23    19  48    5.1719   481.0    5.312      40.974
2015    2       23    19  53    5.1754   480.9    5.318      40.978
2015    2       23    19  58    5.1788   480.8    5.323      40.981
2015    2       23    20   4    5.1823   480.7    5.329      40.985
2015    2       23    20   9    5.1858   480.7    5.334      40.989
2015    2       23    20  14    5.1893   480.6    5.340      40.994
2015    2       23    20  19    5.1929   480.5    5.346      40.999
2015    2       23    20  25    5.1964   480.4    5.351      41.003
2015    2       23    20  30    5.2000   480.3    5.357      41.008
2015    2       23    20  35    5.2037   480.2    5.362      41.014
2015    2       23    20  40    5.2072   480.2    5.368      41.019
2015    2       23    20  46    5.2109   480.1    5.373      41.025
2015    2       23    20  51    5.2145   480.0    5.379      41.031
2015    2       23    20  56    5.2182   479.9    5.384      41.036
2015    2       23    21   1    5.2220   479.9    5.390      41.043
2015    2       23    21   7    5.2257   479.8    5.395      41.049
2015    2       23    21  12    5.2294   479.7    5.401      41.055
2015    2       23    21  17    5.2331   479.6    5.407      41.062
2015    2       23    21  22    5.2369   479.5    5.412      41.069
2015    2       23    21  28    5.2407   479.5    5.418      41.076
2015    2       23    21  33    5.2445   479.4    5.423      41.083
2015    2       23    21  38    5.2484   479.3    5.429      41.091
2015    2       23    21  44    5.2522   479.2    5.434      41.099
2015    2       23    21  49    5.2561   479.2    5.440      41.107
2015    2       23    21  54    5.2600   479.1    5.446      41.115
2015    2       23    21  59    5.2639   479.0    5.451      41.123
2015    2       23    22   5    5.2678   479.0    5.457      41.132
2015    2       23    22  10    5.2718   478.9    5.463      41.141
2015    2       23    22  15    5.2757   478.8    5.468      41.150
2015    2       23    22  20    5.2796   478.8    5.474      41.160
2015    2       23    22  26    5.2837   478.7    5.480      41.169
2015    2       23    22  31    5.2877   478.6    5.486      41.179
2015    2       23    22  36    5.2917   478.6    5.491      41.190
2015    2       23    22  41    5.2957   478.5    5.497      41.200
2015    2       23    22  47    5.2999   478.4    5.503      41.210
2015    2       23    22  52    5.3038   478.4    5.508      41.221
2015    2       23    22  57    5.3079   478.3    5.514      41.232
2015    2       23    23   3    5.3121   478.2    5.520      41.243
2015    2       23    23   8    5.3162   478.2    5.526      41.255
2015    2       23    23  13    5.3204   478.1    5.531      41.266
2015    2       23    23  18    5.3245   478.0    5.537      41.278
2015    2       23    23  24    5.3286   478.0    5.543      41.289
2015    2       23    23  29    5.3327   477.9    5.548      41.302
2015    2       23    23  34    5.3368   477.9    5.554      41.314
2015    2       23    23  39    5.3409   477.8    5.559      41.326
2015    2       23    23  45    5.3451   477.8    5.565      41.339
2015    2       23    23  50    5.3491   477.7    5.570      41.351
2015    2       23    23  55    5.3533   477.7    5.576      41.364
2015    2       24     0   0    5.3574   477.6    5.581      41.376
2015    2       24     0   6    5.3614   477.6    5.587      41.388
2015    2       24     0  11    5.3655   477.5    5.592      41.401
2015    2       24     0  16    5.3696   477.5    5.598      41.413
2015    2       24     0  21    5.3737   477.4    5.603      41.425
2015    2       24     0  27    5.3778   477.4    5.608      41.437
2015    2       24     0  32    5.3819   477.3    5.614      41.449
2015    2       24     0  37    5.3860   477.3    5.619      41.461
2015    2       24     0  43    5.3901   477.2    5.624      41.472
2015    2       24     0  48    5.3941   477.2    5.629      41.483
2015    2       24     0  53    5.3983   477.1    5.634      41.495
2015    2       24     0  58    5.4023   477.1    5.639      41.506
2015    2       24     1   4    5.4064   477.0    5.645      41.517
2015    2       24     1   9    5.4105   477.0    5.650      41.527
2015    2       24     1  14    5.4145   476.9    5.655      41.538
2015    2       24     1  19    5.4187   476.9    5.660      41.548
2015    2       24     1  25    5.4228   476.9    5.665      41.559
2015    2       24     1  30    5.4268   476.8    5.670      41.569
2015    2       24     1  35    5.4310   476.8    5.675      41.579
2015    2       24     1  40    5.4351   476.7    5.680      41.589
2015    2       24     1  46    5.4392   476.7    5.685      41.599
2015    2       24     1  51    5.4434   476.6    5.690      41.608
2015    2       24     1  56    5.4475   476.6    5.694      41.618
2015    2       24     2   1    5.4517   476.6    5.699      41.628
2015    2       24     2   7    5.4558   476.5    5.704      41.638
2015    2       24     2  12    5.4601   476.5    5.709      41.647
2015    2       24     2  17    5.4643   476.4    5.714      41.657
2015    2       24     2  23    5.4686   476.4    5.719      41.667
2015    2       24     2  28    5.4728   476.4    5.724      41.678
2015    2       24     2  33    5.4771   476.3    5.729      41.688
2015    2       24     2  38    5.4813   476.3    5.734      41.698
2015    2       24     2  44    5.4857   476.3    5.739      41.709
2015    2       24     2  49    5.4901   476.2    5.745      41.719
2015    2       24     2  54    5.4943   476.2    5.750      41.730
2015    2       24     2  59    5.4987   476.1    5.755      41.741
2015    2       24     3   5    5.5031   476.1    5.760      41.753
2015    2       24     3  10    5.5076   476.1    5.765      41.764
2015    2       24     3  15    5.5120   476.1    5.770      41.776
2015    2       24     3  20    5.5164   476.0    5.776      41.788
2015    2       24     3  26    5.5209   476.0    5.781      41.800
2015    2       24     3  31    5.5255   476.0    5.786      41.813
2015    2       24     3  36    5.5300   475.9    5.792      41.826
2015    2       24     3  41    5.5345   475.9    5.797      41.839
2015    2       24     3  47    5.5392   475.9    5.802      41.852
2015    2       24     3  52    5.5437   475.8    5.808      41.865
2015    2       24     3  57    5.5483   475.8    5.813      41.879
2015    2       24     4   3    5.5530   475.8    5.819      41.892
2015    2       24     4   8    5.5577   475.8    5.824      41.907
2015    2       24     4  13    5.5624   475.7    5.830      41.921
2015    2       24     4  18    5.5672   475.7    5.835      41.936
2015    2       24     4  24    5.5719   475.7    5.841      41.951
2015    2       24     4  29    5.5768   475.7    5.847      41.966
2015    2       24     4  34    5.5816   475.6    5.852      41.982
2015    2       24     4  39    5.5866   475.6    5.858      41.999
2015    2       24     4  45    5.5915   475.6    5.864      42.015
2015    2       24     4  50    5.5964   475.6    5.870      42.032
2015    2       24     4  55    5.6015   475.5    5.876      42.050
2015    2       24     5   0    5.6065   475.5    5.882      42.068
2015    2       24     5   6    5.6117   475.5    5.888      42.086
2015    2       24     5  11    5.6168   475.5    5.894      42.105
2015    2       24     5  16    5.6219   475.4    5.900      42.124
2015    2       24     5  22    5.6271   475.4    5.907      42.144
2015    2       24     5  27    5.6324   475.4    5.913      42.165
2015    2       24     5  32    5.6378   475.4    5.920      42.186
2015    2       24     5  37    5.6432   475.4    5.927      42.207
2015    2       24     5  43    5.6487   475.3    5.934      42.228
2015    2       24     5  48    5.6542   475.3    5.941      42.251
2015    2       24     5  53    5.6598   475.3    5.948      42.275
2015    2       24     5  58    5.6655   475.3    5.955      42.300
2015    2       24     6   4    5.6710   475.3    5.963      42.327
2015    2       24     6   9    5.6768   475.3    5.970      42.355
2015    2       24     6  14    5.6825   475.3    5.978      42.384
2015    2       24     6  19    5.6883   475.3    5.985      42.414
2015    2       24     6  25    5.6943   475.3    5.993      42.446
2015    2       24     6  30    5.6999   475.4    6.000      42.478
2015    2       24     6  35    5.7059   475.4    6.007      42.510
2015    2       24     6  40    5.7117   475.4    6.015      42.543
2015    2       24     6  46    5.7174   475.4    6.022      42.576
2015    2       24     6  51    5.7233   475.5    6.028      42.609
2015    2       24     6  56    5.7291   475.5    6.035      42.643
2015    2       24     7   2    5.7346   475.5    6.041      42.676
2015    2       24     7   7    5.7405   475.6    6.048      42.709
2015    2       24     7  12    5.7461   475.6    6.054      42.742
2015    2       24     7  17    5.7517   475.6    6.059      42.773
2015    2       24     7  23    5.7573   475.7    6.065      42.804
2015    2       24     7  28    5.7629   475.7    6.070      42.834
2015    2       24     7  33    5.7685   475.7    6.075      42.864
2015    2       24     7  38    5.7740   475.8    6.081      42.892
2015    2       24     7  44    5.7795   475.8    6.085      42.921
2015    2       24     7  49    5.7848   475.9    6.090      42.948
2015    2       24     7  54    5.7903   475.9    6.095      42.975
2015    2       24     7  59    5.7958   475.9    6.099      43.002
2015    2       24     8   5    5.8014   476.0    6.104      43.028
2015    2       24     8  10    5.8069   476.0    6.108      43.054
2015    2       24     8  15    5.8122   476.0    6.112      43.080
2015    2       24     8  20    5.8177   476.1    6.117      43.105
2015    2       24     8  26    5.8233   476.1    6.121      43.130
2015    2       24     8  31    5.8287   476.2    6.125      43.154
2015    2       24     8  36    5.8341   476.2    6.129      43.178
2015    2       24     8  42    5.8396   476.2    6.133      43.203
2015    2       24     8  47    5.8451   476.3    6.137      43.227
2015    2       24     8  52    5.8505   476.3    6.141      43.251
2015    2       24     8  57    5.8559   476.3    6.144      43.275
2015    2       24     9   3    5.8614   476.4    6.148      43.298
2015    2       24     9   8    5.8669   476.4    6.152      43.322
2015    2       24     9  13    5.8723   476.4    6.156      43.346
2015    2       24     9  18    5.8777   476.5    6.160      43.370
2015    2       24     9  24    5.8832   476.5    6.163      43.393
2015    2       24     9  29    5.8886   476.6    6.167      43.417
2015    2       24     9  34    5.8941   476.6    6.171      43.441
2015    2       24     9  39    5.8995   476.6    6.175      43.464
2015    2       24     9  45    5.9050   476.7    6.178      43.488
2015    2       24     9  50    5.9105   476.7    6.182      43.512
2015    2       24     9  55    5.9159   476.8    6.186      43.536
2015    2       24    10   0    5.9213   476.8    6.190      43.560
2015    2       24    10   6    5.9268   476.8    6.193      43.584
2015    2       24    10  11    5.9323   476.9    6.197      43.609
2015    2       24    10  16    5.9378   476.9    6.201      43.633
2015    2       24    10  22    5.9432   477.0    6.205      43.658
2015    2       24    10  27    5.9487   477.0    6.208      43.683
2015    2       24    10  32    5.9542   477.1    6.212      43.709
2015    2       24    10  37    5.9597   477.1    6.216      43.734
2015    2       24    10  43    5.9652   477.2    6.220      43.760
2015    2       24    10  48    5.9707   477.2    6.224      43.786
2015    2       24    10  53    5.9763   477.3    6.228      43.813
2015    2       24    10  58    5.9818   477.3    6.232      43.840
2015    2       24    11   4    5.9873   477.4    6.236      43.867
2015    2       24    11   9    5.9929   477.4    6.240      43.895
2015    2       24    11  14    5.9984   477.5    6.244      43.923
2015    2       24    11  19    6.0040   477.6    6.249      43.951
2015    2       24    11  25    6.0096   477.6    6.253      43.980
2015    2       24    11  30    6.0152   477.7    6.257      44.009
2015    2       24    11  35    6.0208   477.7    6.262      44.039
2015    2       24    11  41    6.0264   477.8    6.267      44.069
2015    2       24    11  46    6.0320   477.9    6.271      44.100
2015    2       24    11  51    6.0377   477.9    6.276      44.131
2015    2       24    11  56    6.0434   478.0    6.281      44.163
2015    2       24    12   2    6.0490   478.0    6.286      44.196
2015    2       24    12   7    6.0547   478.1    6.291      44.230
2015    2       24    12  12    6.0604   478.2    6.297      44.264
2015    2       24    12  17    6.0660   478.2    6.302      44.298
2015    2       24    12  23    6.0718   478.3    6.308      44.334
2015    2       24    12  28    6.0775   478.4    6.313      44.370
2015    2       24    12  33    6.0833   478.5    6.319      44.407
2015    2       24    12  38    6.0891   478.5    6.325      44.445
2015    2       24    12  44    6.0948   478.6    6.331      44.484
2015    2       24    12  49    6.1007   478.7    6.338      44.525
2015    2       24    12  54    6.1067   478.8    6.344      44.565
2015    2       24    12  59    6.1126   478.8    6.351      44.606
2015    2       24    13   5    6.1186   478.9    6.358      44.648
2015    2       24    13  10    6.1245   479.0    6.365      44.691
2015    2       24    13  15    6.1307   479.1    6.372      44.736
2015    2       24    13  21    6.1368   479.2    6.379      44.783
2015    2       24    13  26    6.1427   479.3    6.387      44.830
2015    2       24    13  31    6.1490   479.4    6.394      44.879
2015    2       24    13  36    6.1551   479.5    6.401      44.930
2015    2       24    13  42    6.1613   479.6    6.409      44.981
2015    2       24    13  47    6.1673   479.7    6.416      45.034
2015    2       24    13  52    6.1734   479.8    6.424      45.087
2015    2       24    13  57    6.1795   479.9    6.431      45.140
2015    2       24    14   3    6.1858   480.1    6.439      45.193
2015    2       24    14   8    6.1918   480.2    6.446      45.248
2015    2       24    14  13    6.1979   480.3    6.453      45.303
2015    2       24    14  18    6.2041   480.5    6.460      45.358
2015    2       24    14  24    6.2101   480.6    6.467      45.415
2015    2       24    14  29    6.2161   480.7    6.473      45.471
2015    2       24    14  34    6.2220   480.9    6.479      45.527
2015    2       24    14  39    6.2281   481.0    6.486      45.584
2015    2       24    14  45    6.2342   481.2    6.492      45.640
2015    2       24    14  50    6.2402   481.3    6.497      45.696
2015    2       24    14  55    6.2462   481.5    6.503      45.752
2015    2       24    15   1    6.2522   481.6    6.508      45.808
2015    2       24    15   6    6.2583   481.8    6.513      45.864
2015    2       24    15  11    6.2643   482.0    6.518      45.920
2015    2       24    15  16    6.2703   482.1    6.523      45.976
2015    2       24    15  22    6.2764   482.3    6.527      46.032
2015    2       24    15  27    6.2824   482.4    6.531      46.087
2015    2       24    15  32    6.2885   482.6    6.535      46.144
2015    2       24    15  37    6.2946   482.8    6.539      46.200
2015    2       24    15  43    6.3007   482.9    6.543      46.256
2015    2       24    15  48    6.3068   483.1    6.547      46.312
2015    2       24    15  53    6.3130   483.2    6.551      46.368
2015    2       24    15  58    6.3191   483.4    6.554      46.425
2015    2       24    16   4    6.3254   483.6    6.557      46.482
2015    2       24    16   9    6.3315   483.7    6.561      46.539
2015    2       24    16  14    6.3377   483.9    6.564      46.596
2015    2       24    16  19    6.3439   484.1    6.567      46.654
2015    2       24    16  25    6.3500   484.2    6.570      46.712
2015    2       24    16  30    6.3564   484.4    6.573      46.770
2015    2       24    16  35    6.3627   484.6    6.575      46.828
2015    2       24    16  41    6.3687   484.7    6.578      46.887
2015    2       24    16  46    6.3752   484.9    6.580      46.945
2015    2       24    16  51    6.3814   485.1    6.583      47.004
2015    2       24    16  56    6.3876   485.3    6.585      47.063
2015    2       24    17   2    6.3936   485.4    6.587      47.121
2015    2       24    17   7    6.4000   485.6    6.589      47.180
2015    2       24    17  12    6.4059   485.8    6.590      47.238
2015    2       24    17  17    6.4120   486.0    6.592      47.295
2015    2       24    17  23    6.4182   486.1    6.593      47.353
2015    2       24    17  28    6.4242   486.3    6.594      47.409
2015    2       24    17  33    6.4301   486.5    6.596      47.465
2015    2       24    17  38    6.4358   486.7    6.596      47.521
2015    2       24    17  44    6.4416   486.8    6.597      47.576
2015    2       24    17  49    6.4475   487.0    6.598      47.630
2015    2       24    17  54    6.4531   487.2    6.598      47.684
2015    2       24    18   0    6.4587   487.4    6.598      47.736
2015    2       24    18   5    6.4641   487.5    6.599      47.788
2015    2       24    18  10    6.4696   487.7    6.599      47.839
2015    2       24    18  15    6.4751   487.9    6.598      47.890
2015    2       24    18  21    6.4803   488.1    6.598      47.939
2015    2       24    18  26    6.4855   488.2    6.598      47.988
2015    2       24    18  31    6.4907   488.4    6.598      48.035
2015    2       24    18  36    6.4959   488.6    6.597      48.083
2015    2       24    18  42    6.5009   488.8    6.596      48.129
2015    2       24    18  47    6.5059   488.9    6.596      48.174
2015    2       24    18  52    6.5108   489.1    6.595      48.219
2015    2       24    18  57    6.5157   489.3    6.594      48.263
2015    2       24    19   3    6.5205   489.4    6.594      48.306
2015    2       24    19   8    6.5253   489.6    6.593      48.349
2015    2       24    19  13    6.5299   489.8    6.592      48.391
2015    2       24    19  18    6.5347   489.9    6.591      48.432
2015    2       24    19  24    6.5393   490.1    6.591      48.473
2015    2       24    19  29    6.5439   490.2    6.590      48.514
2015    2       24    19  34    6.5486   490.4    6.590      48.554
2015    2       24    19  40    6.5532   490.6    6.589      48.595
2015    2       24    19  45    6.5577   490.7    6.589      48.635
2015    2       24    19  50    6.5621   490.9    6.589      48.675
2015    2       24    19  55    6.5668   491.1    6.588      48.716
2015    2       24    20   1    6.5714   491.2    6.588      48.757
2015    2       24    20   6    6.5759   491.4    6.588      48.798
2015    2       24    20  11    6.5803   491.5    6.588      48.840
2015    2       24    20  16    6.5848   491.7    6.589      48.881
2015    2       24    20  22    6.5894   491.9    6.589      48.923
2015    2       24    20  27    6.5939   492.0    6.590      48.965
2015    2       24    20  32    6.5988   492.2    6.590      49.008
2015    2       24    20  37    6.6031   492.3    6.591      49.052
2015    2       24    20  43    6.6080   492.5    6.592      49.097
2015    2       24    20  48    6.6123   492.7    6.592      49.144
2015    2       24    20  53    6.6170   492.9    6.593      49.190
2015    2       24    20  58    6.6217   493.0    6.594      49.238
2015    2       24    21   4    6.6267   493.2    6.595      49.287
2015    2       24    21   9    6.6315   493.4    6.596      49.337
2015    2       24    21  14    6.6363   493.6    6.598      49.387
2015    2       24    21  20    6.6411   493.7    6.599      49.438
2015    2       24    21  25    6.6461   493.9    6.600      49.490
2015    2       24    21  30    6.6507   494.1    6.602      49.543
2015    2       24    21  35    6.6557   494.3    6.603      49.597
2015    2       24    21  41    6.6610   494.5    6.604      49.653
2015    2       24    21  46    6.6661   494.7    6.606      49.709
2015    2       24    21  51    6.6709   494.9    6.607      49.766
2015    2       24    21  56    6.6762   495.1    6.609      49.823
2015    2       24    22   2    6.6813   495.3    6.610      49.882
2015    2       24    22   7    6.6865   495.5    6.612      49.940
2015    2       24    22  12    6.6916   495.7    6.614      50.000
2015    2       24    22  17    6.6964   495.9    6.616      50.060
2015    2       24    22  23    6.7015   496.1    6.618      50.120
2015    2       24    22  28    6.7070   496.3    6.620      50.182
2015    2       24    22  33    6.7121   496.5    6.623      50.245
2015    2       24    22  39    6.7174   496.7    6.625      50.309
2015    2       24    22  44    6.7223   496.9    6.628      50.373
2015    2       24    22  49    6.7276   497.1    6.632      50.439
2015    2       24    22  54    6.7330   497.4    6.635      50.507
2015    2       24    23   0    6.7384   497.6    6.639      50.576
2015    2       24    23   5    6.7442   497.8    6.644      50.647
2015    2       24    23  10    6.7496   498.0    6.649      50.720
2015    2       24    23  15    6.7553   498.2    6.655      50.796
2015    2       24    23  21    6.7613   498.4    6.661      50.875
2015    2       24    23  26    6.7676   498.6    6.668      50.960
2015    2       24    23  31    6.7737   498.8    6.676      51.046
2015    2       24    23  36    6.7804   499.1    6.684      51.136
2015    2       24    23  42    6.7870   499.3    6.694      51.234
2015    2       24    23  47    6.7941   499.6    6.704      51.341
2015    2       24    23  52    6.8012   499.8    6.714      51.455
2015    2       24    23  57    6.8083   500.1    6.725      51.577
2015    2       25     0   3    6.8156   500.4    6.736      51.705
2015    2       25     0   8    6.8230   500.7    6.747      51.840
2015    2       25     0  13    6.8304   501.1    6.758      51.980
2015    2       25     0  19    6.8377   501.4    6.769      52.123
2015    2       25     0  24    6.8449   501.7    6.779      52.268
2015    2       25     0  29    6.8520   502.1    6.788      52.413
2015    2       25     0  34    6.8589   502.5    6.797      52.557
2015    2       25     0  40    6.8656   502.8    6.805      52.702
2015    2       25     0  45    6.8720   503.2    6.811      52.847
2015    2       25     0  50    6.8781   503.6    6.816      52.990
2015    2       25     0  55    6.8838   504.0    6.821      53.127
2015    2       25     1   1    6.8893   504.4    6.824      53.258
2015    2       25     1   6    6.8945   504.8    6.825      53.385
2015    2       25     1  11    6.8995   505.2    6.826      53.506
2015    2       25     1  16    6.9041   505.6    6.826      53.623
2015    2       25     1  22    6.9085   505.9    6.824      53.734
2015    2       25     1  27    6.9127   506.3    6.822      53.841
2015    2       25     1  32    6.9166   506.7    6.819      53.943
2015    2       25     1  37    6.9203   507.1    6.814      54.040
2015    2       25     1  43    6.9239   507.5    6.810      54.133
2015    2       25     1  48    6.9273   507.8    6.804      54.223
2015    2       25     1  53    6.9306   508.2    6.798      54.308
2015    2       25     1  59    6.9338   508.6    6.791      54.390
2015    2       25     2   4    6.9369   508.9    6.784      54.468
2015    2       25     2   9    6.9399   509.3    6.777      54.542
2015    2       25     2  14    6.9428   509.6    6.769      54.614
2015    2       25     2  20    6.9457   509.9    6.761      54.682
2015    2       25     2  25    6.9486   510.3    6.753      54.748
2015    2       25     2  30    6.9515   510.6    6.744      54.810
2015    2       25     2  35    6.9544   510.9    6.736      54.870
2015    2       25     2  41    6.9573   511.2    6.727      54.928
2015    2       25     2  46    6.9603   511.6    6.718      54.983
2015    2       25     2  51    6.9633   511.9    6.709      55.037
2015    2       25     2  56    6.9663   512.2    6.700      55.088
2015    2       25     3   2    6.9694   512.5    6.691      55.137
2015    2       25     3   7    6.9725   512.8    6.681      55.185
2015    2       25     3  12    6.9756   513.1    6.672      55.233
2015    2       25     3  17    6.9788   513.5    6.662      55.281
2015    2       25     3  23    6.9820   513.8    6.652      55.328
2015    2       25     3  28    6.9852   514.1    6.642      55.376
2015    2       25     3  33    6.9884   514.5    6.632      55.421
2015    2       25     3  39    6.9916   514.8    6.622      55.465
2015    2       25     3  44    6.9947   515.1    6.612      55.506
2015    2       25     3  49    6.9979   515.5    6.602      55.546
2015    2       25     3  54    7.0010   515.8    6.592      55.585
2015    2       25     4   0    7.0041   516.1    6.582      55.623
2015    2       25     4   5    7.0072   516.3    6.573      55.659
2015    2       25     4  10    7.0104   516.6    6.563      55.696
2015    2       25     4  15    7.0137   516.9    6.554      55.733
2015    2       25     4  21    7.0171   517.2    6.546      55.773
2015    2       25     4  26    7.0207   517.4    6.537      55.815
2015    2       25     4  31    7.0245   517.7    6.530      55.859
2015    2       25     4  36    7.0286   518.0    6.523      55.907
2015    2       25     4  42    7.0328   518.3    6.517      55.963
2015    2       25     4  47    7.0372   518.6    6.511      56.027
2015    2       25     4  52    7.0418   518.9    6.506      56.098
2015    2       25     4  57    7.0464   519.3    6.501      56.175
2015    2       25     5   3    7.0511   519.6    6.497      56.258
2015    2       25     5   8    7.0557   520.0    6.492      56.344
2015    2       25     5  13    7.0603   520.4    6.488      56.434
2015    2       25     5  19    7.0648   520.8    6.484      56.524
2015    2       25     5  24    7.0692   521.2    6.479      56.614
2015    2       25     5  29    7.0733   521.6    6.475      56.704
2015    2       25     5  34    7.0772   522.0    6.470      56.793
2015    2       25     5  40    7.0810   522.4    6.466      56.881
2015    2       25     5  45    7.0846   522.8    6.461      56.965
2015    2       25     5  50    7.0881   523.1    6.457      57.045
2015    2       25     5  55    7.0914   523.5    6.452      57.124
2015    2       25     6   1    7.0947   523.8    6.448      57.200
2015    2       25     6   6    7.0980   524.2    6.444      57.276
2015    2       25     6  11    7.1012   524.5    6.440      57.350
2015    2       25     6  16    7.1043   524.8    6.437      57.425
2015    2       25     6  22    7.1075   525.1    6.434      57.500
2015    2       25     6  27    7.1108   525.5    6.431      57.577
2015    2       25     6  32    7.1144   525.8    6.430      57.658
2015    2       25     6  38    7.1177   526.1    6.429      57.742
2015    2       25     6  43    7.1213   526.4    6.428      57.828
2015    2       25     6  48    7.1252   526.8    6.429      57.917
2015    2       25     6  53    7.1290   527.1    6.430      58.009
2015    2       25     6  59    7.1327   527.5    6.431      58.108
2015    2       25     7   4    7.1366   527.8    6.433      58.213
2015    2       25     7   9    7.1403   528.2    6.435      58.322
2015    2       25     7  14    7.1441   528.6    6.438      58.436
2015    2       25     7  20    7.1474   529.0    6.440      58.553
2015    2       25     7  25    7.1510   529.4    6.443      58.675
2015    2       25     7  30    7.1545   529.8    6.445      58.798
2015    2       25     7  35    7.1584   530.2    6.447      58.923
2015    2       25     7  41    7.1611   530.7    6.449      59.048
2015    2       25     7  46    7.1642   531.1    6.450      59.174
2015    2       25     7  51    7.1676   531.5    6.451      59.300
2015    2       25     7  56    7.1698   532.0    6.451      59.427
2015    2       25     8   2    7.1729   532.4    6.451      59.554
2015    2       25     8   7    7.1746   532.9    6.449      59.681
2015    2       25     8  12    7.1773   533.4    6.447      59.804
2015    2       25     8  18    7.1792   533.8    6.444      59.924
2015    2       25     8  23    7.1803   534.3    6.440      60.041
2015    2       25     8  28    7.1818   534.8    6.436      60.156
2015    2       25     8  33    7.1831   535.3    6.430      60.267
2015    2       25     8  39    7.1842   535.8    6.424      60.375
2015    2       25     8  44    7.1856   536.3    6.417      60.480
2015    2       25     8  49    7.1864   536.8    6.410      60.581
2015    2       25     8  54    7.1864   537.3    6.402      60.679
2015    2       25     9   0    7.1874   537.8    6.393      60.774
2015    2       25     9   5    7.1876   538.3    6.383      60.866
2015    2       25     9  10    7.1873   538.8    6.373      60.954
2015    2       25     9  15    7.1874   539.3    6.362      61.039
2015    2       25     9  21    7.1873   539.8    6.351      61.121
2015    2       25     9  26    7.1872   540.3    6.340      61.200
2015    2       25     9  31    7.1871   540.8    6.328      61.275
2015    2       25     9  36    7.1874   541.2    6.316      61.348
2015    2       25     9  42    7.1871   541.7    6.304      61.418
2015    2       25     9  47    7.1869   542.2    6.291      61.485
2015    2       25     9  52    7.1866   542.7    6.278      61.550
2015    2       25     9  58    7.1864   543.1    6.265      61.613
2015    2       25    10   3    7.1856   543.6    6.252      61.673
2015    2       25    10   8    7.1854   544.0    6.239      61.732
2015    2       25    10  13    7.1852   544.5    6.226      61.789
2015    2       25    10  19    7.1850   544.9    6.213      61.846
2015    2       25    10  24    7.1848   545.4    6.200      61.903
2015    2       25    10  29    7.1846   545.9    6.186      61.959
2015    2       25    10  34    7.1845   546.4    6.173      62.016
2015    2       25    10  40    7.1848   546.9    6.159      62.073
2015    2       25    10  45    7.1841   547.4    6.146      62.130
2015    2       25    10  50    7.1839   547.8    6.132      62.185
2015    2       25    10  55    7.1837   548.3    6.118      62.240
2015    2       25    11   1    7.1834   548.8    6.104      62.294
2015    2       25    11   6    7.1837   549.3    6.091      62.348
2015    2       25    11  11    7.1828   549.8    6.077      62.402
2015    2       25    11  17    7.1825   550.3    6.063      62.456
2015    2       25    11  22    7.1821   550.8    6.049      62.509
2015    2       25    11  27    7.1823   551.2    6.035      62.564
2015    2       25    11  32    7.1820   551.7    6.021      62.619
2015    2       25    11  38    7.1817   552.2    6.007      62.675
2015    2       25    11  43    7.1815   552.7    5.994      62.733
2015    2       25    11  48    7.1813   553.2    5.980      62.795
2015    2       25    11  53    7.1810   553.7    5.967      62.862
2015    2       25    11  59    7.1807   554.3    5.953      62.933
2015    2       25    12   4    7.1797   554.8    5.939      63.007
2015    2       25    12   9    7.1798   555.4    5.925      63.083
2015    2       25    12  14    7.1790   555.9    5.911      63.161
2015    2       25    12  20    7.1782   556.5    5.897      63.239
2015    2       25    12  25    7.1770   557.1    5.881      63.315
2015    2       25    12  30    7.1756   557.7    5.866      63.388
2015    2       25    12  35    7.1732   558.3    5.849      63.456
2015    2       25    12  41    7.1718   558.8    5.832      63.522
2015    2       25    12  46    7.1688   559.4    5.815      63.584
2015    2       25    12  51    7.1661   560.0    5.797      63.640
2015    2       25    12  57    7.1632   560.5    5.779      63.689
2015    2       25    13   2    7.1600   561.0    5.760      63.734
2015    2       25    13   7    7.1572   561.6    5.740      63.775
2015    2       25    13  12    7.1530   562.1    5.721      63.810
2015    2       25    13  18    7.1498   562.6    5.701      63.840
2015    2       25    13  23    7.1459   563.1    5.681      63.864
2015    2       25    13  28    7.1411   563.5    5.661      63.883
2015    2       25    13  33    7.1375   564.0    5.641      63.901
2015    2       25    13  39    7.1331   564.5    5.622      63.916
2015    2       25    13  44    7.1288   564.9    5.602      63.931
2015    2       25    13  49    7.1245   565.4    5.583      63.946
2015    2       25    13  54    7.1202   565.8    5.565      63.963
2015    2       25    14   0    7.1158   566.3    5.546      63.980
2015    2       25    14   5    7.1115   566.7    5.529      63.997
2015    2       25    14  10    7.1072   567.2    5.511      64.016
2015    2       25    14  15    7.1023   567.6    5.494      64.037
2015    2       25    14  21    7.0986   568.1    5.477      64.061
2015    2       25    14  26    7.0937   568.5    5.461      64.086
2015    2       25    14  31    7.0894   569.0    5.445      64.112
2015    2       25    14  37    7.0858   569.5    5.429      64.140
2015    2       25    14  42    7.0815   569.9    5.414      64.168
2015    2       25    14  47    7.0771   570.4    5.398      64.197
2015    2       25    14  52    7.0727   570.9    5.383      64.225
2015    2       25    14  58    7.0676   571.3    5.368      64.253
2015    2       25    15   3    7.0631   571.8    5.354      64.280
2015    2       25    15   8    7.0594   572.2    5.339      64.306
2015    2       25    15  13    7.0549   572.7    5.325      64.332
2015    2       25    15  19    7.0505   573.1    5.311      64.356
2015    2       25    15  24    7.0452   573.5    5.297      64.380
2015    2       25    15  29    7.0408   574.0    5.283      64.404
2015    2       25    15  34    7.0362   574.4    5.270      64.428
2015    2       25    15  40    7.0325   574.8    5.256      64.451
2015    2       25    15  45    7.0279   575.2    5.243      64.472
2015    2       25    15  50    7.0234   575.6    5.230      64.494
2015    2       25    15  56    7.0188   576.0    5.217      64.514
2015    2       25    16   1    7.0136   576.4    5.204      64.534
2015    2       25    16   6    7.0091   576.8    5.191      64.553
2015    2       25    16  11    7.0046   577.2    5.179      64.571
2015    2       25    16  17    7.0000   577.6    5.166      64.589
2015    2       25    16  22    6.9955   578.0    5.154      64.606
2015    2       25    16  27    6.9916   578.4    5.142      64.623
2015    2       25    16  32    6.9871   578.8    5.129      64.639
2015    2       25    16  38    6.9825   579.2    5.117      64.655
2015    2       25    16  43    6.9773   579.5    5.105      64.670
2015    2       25    16  48    6.9734   579.9    5.093      64.685
2015    2       25    16  53    6.9682   580.3    5.081      64.700
2015    2       25    16  59    6.9637   580.7    5.070      64.714
2015    2       25    17   4    6.9598   581.1    5.058      64.727
2015    2       25    17   9    6.9552   581.5    5.046      64.740
2015    2       25    17  14    6.9500   581.9    5.034      64.752
2015    2       25    17  20    6.9454   582.3    5.022      64.763
2015    2       25    17  25    6.9408   582.7    5.011      64.772
2015    2       25    17  30    6.9360   583.1    4.999      64.781
2015    2       25    17  36    6.9312   583.5    4.987      64.788
2015    2       25    17  41    6.9269   584.0    4.975      64.793
2015    2       25    17  46    6.9214   584.4    4.963      64.797
2015    2       25    17  51    6.9164   584.8    4.951      64.798
2015    2       25    17  57    6.9119   585.2    4.939      64.799
2015    2       25    18   2    6.9068   585.6    4.927      64.797
2015    2       25    18   7    6.9016   585.9    4.915      64.794
2015    2       25    18  12    6.8964   586.3    4.903      64.790
2015    2       25    18  18    6.8906   586.7    4.891      64.784
2015    2       25    18  23    6.8854   587.1    4.879      64.779
2015    2       25    18  28    6.8801   587.5    4.867      64.773
2015    2       25    18  33    6.8754   587.9    4.855      64.768
2015    2       25    18  39    6.8701   588.3    4.843      64.764
2015    2       25    18  44    6.8647   588.7    4.831      64.760
2015    2       25    18  49    6.8594   589.1    4.819      64.756
2015    2       25    18  54    6.8533   589.6    4.807      64.752
2015    2       25    19   0    6.8484   590.0    4.795      64.748
2015    2       25    19   5    6.8429   590.4    4.783      64.745
2015    2       25    19  10    6.8366   590.8    4.770      64.742
2015    2       25    19  16    6.8309   591.3    4.758      64.740
2015    2       25    19  21    6.8251   591.7    4.745      64.737
2015    2       25    19  26    6.8192   592.1    4.733      64.734
2015    2       25    19  31    6.8133   592.6    4.720      64.729
2015    2       25    19  37    6.8077   593.0    4.707      64.724
2015    2       25    19  42    6.8015   593.5    4.693      64.717
2015    2       25    19  47    6.7945   593.9    4.679      64.707
2015    2       25    19  52    6.7880   594.3    4.665      64.693
2015    2       25    19  58    6.7820   594.8    4.650      64.677
2015    2       25    20   3    6.7752   595.2    4.636      64.657
2015    2       25    20   8    6.7678   595.6    4.621      64.633
2015    2       25    20  13    6.7614   596.0    4.606      64.608
2015    2       25    20  19    6.7538   596.4    4.590      64.581
2015    2       25    20  24    6.7466   596.8    4.574      64.548
2015    2       25    20  29    6.7399   597.2    4.559      64.510
2015    2       25    20  34    6.7321   597.5    4.543      64.468
2015    2       25    20  40    6.7247   597.9    4.527      64.422
2015    2       25    20  45    6.7172   598.2    4.512      64.373
2015    2       25    20  50    6.7098   598.6    4.497      64.322
2015    2       25    20  56    6.7024   598.9    4.482      64.271
2015    2       25    21   1    6.6950   599.2    4.467      64.219
2015    2       25    21   6    6.6876   599.5    4.452      64.167
2015    2       25    21  11    6.6806   599.8    4.438      64.115
2015    2       25    21  17    6.6731   600.1    4.425      64.062
2015    2       25    21  22    6.6659   600.4    4.411      64.008
2015    2       25    21  27    6.6589   600.7    4.398      63.957
2015    2       25    21  32    6.6519   601.0    4.386      63.908
2015    2       25    21  38    6.6450   601.2    4.373      63.861
2015    2       25    21  43    6.6382   601.5    4.361      63.817
2015    2       25    21  48    6.6317   601.8    4.350      63.775
2015    2       25    21  53    6.6249   602.1    4.338      63.736
2015    2       25    21  59    6.6184   602.3    4.327      63.697
2015    2       25    22   4    6.6120   602.6    4.316      63.660
2015    2       25    22   9    6.6056   602.9    4.305      63.623
2015    2       25    22  15    6.5995   603.1    4.295      63.587
2015    2       25    22  20    6.5931   603.4    4.284      63.551
2015    2       25    22  25    6.5870   603.6    4.274      63.515
2015    2       25    22  30    6.5809   603.9    4.264      63.479
2015    2       25    22  36    6.5749   604.1    4.255      63.443
2015    2       25    22  41    6.5689   604.3    4.245      63.407
2015    2       25    22  46    6.5629   604.5    4.236      63.371
2015    2       25    22  51    6.5571   604.8    4.227      63.335
2015    2       25    22  57    6.5511   605.0    4.218      63.299
2015    2       25    23   2    6.5453   605.2    4.209      63.263
2015    2       25    23   7    6.5395   605.4    4.201      63.226
2015    2       25    23  12    6.5337   605.6    4.192      63.189
2015    2       25    23  18    6.5279   605.8    4.184      63.153
2015    2       25    23  23    6.5222   606.0    4.176      63.116
2015    2       25    23  28    6.5165   606.2    4.168      63.078
2015    2       25    23  33    6.5108   606.4    4.160      63.041
2015    2       25    23  39    6.5052   606.6    4.152      63.003
2015    2       25    23  44    6.4996   606.7    4.144      62.965
2015    2       25    23  49    6.4941   606.9    4.137      62.928
2015    2       25    23  55    6.4885   607.1    4.129      62.890
2015    2       26     0   0    6.4830   607.3    4.122      62.853
2015    2       26     0   5    6.4775   607.4    4.115      62.816
2015    2       26     0  10    6.4721   607.6    4.108      62.779
2015    2       26     0  16    6.4667   607.8    4.101      62.744
2015    2       26     0  21    6.4612   608.0    4.094      62.709
2015    2       26     0  26    6.4559   608.2    4.087      62.674
2015    2       26     0  31    6.4504   608.3    4.080      62.639
2015    2       26     0  37    6.4450   608.5    4.073      62.603
2015    2       26     0  42    6.4397   608.7    4.066      62.567
2015    2       26     0  47    6.4342   608.9    4.059      62.530
2015    2       26     0  52    6.4286   609.1    4.053      62.492
2015    2       26     0  58    6.4233   609.2    4.046      62.454
2015    2       26     1   3    6.4178   609.4    4.039      62.416
2015    2       26     1   8    6.4122   609.6    4.033      62.376
2015    2       26     1  13    6.4069   609.7    4.027      62.336
2015    2       26     1  19    6.4014   609.8    4.020      62.297
2015    2       26     1  24    6.3962   610.0    4.014      62.257
2015    2       26     1  29    6.3908   610.1    4.008      62.218
2015    2       26     1  35    6.3856   610.3    4.002      62.180
2015    2       26     1  40    6.3803   610.4    3.996      62.143
2015    2       26     1  45    6.3752   610.5    3.991      62.108
2015    2       26     1  50    6.3700   610.7    3.985      62.074
2015    2       26     1  56    6.3648   610.8    3.980      62.041
2015    2       26     2   1    6.3598   610.9    3.975      62.009
2015    2       26     2   6    6.3549   611.1    3.969      61.978
2015    2       26     2  11    6.3503   611.2    3.964      61.948
2015    2       26     2  17    6.3452   611.4    3.959      61.918
2015    2       26     2  22    6.3405   611.5    3.955      61.889
2015    2       26     2  27    6.3358   611.7    3.950      61.861
2015    2       26     2  32    6.3312   611.8    3.945      61.832
2015    2       26     2  38    6.3266   612.0    3.940      61.803
2015    2       26     2  43    6.3221   612.1    3.936      61.773
2015    2       26     2  48    6.3180   612.2    3.931      61.744
2015    2       26     2  54    6.3132   612.3    3.927      61.715
2015    2       26     2  59    6.3089   612.5    3.922      61.685
2015    2       26     3   4    6.3045   612.6    3.918      61.656
2015    2       26     3   9    6.3002   612.7    3.914      61.628
2015    2       26     3  15    6.2960   612.8    3.909      61.600
2015    2       26     3  20    6.2922   612.9    3.905      61.573
2015    2       26     3  25    6.2877   613.0    3.901      61.547
2015    2       26     3  30    6.2837   613.1    3.898      61.522
2015    2       26     3  36    6.2796   613.2    3.894      61.496
2015    2       26     3  41    6.2761   613.3    3.890      61.474
2015    2       26     3  46    6.2717   613.4    3.887      61.454
2015    2       26     3  51    6.2679   613.4    3.884      61.435
2015    2       26     3  57    6.2644   613.5    3.881      61.419
2015    2       26     4   2    6.2603   613.6    3.878      61.404
2015    2       26     4   7    6.2565   613.7    3.875      61.390
2015    2       26     4  12    6.2528   613.8    3.872      61.378
2015    2       26     4  18    6.2491   613.9    3.869      61.366
2015    2       26     4  23    6.2458   614.0    3.866      61.355
2015    2       26     4  28    6.2418   614.1    3.863      61.343
2015    2       26     4  34    6.2382   614.2    3.860      61.332
2015    2       26     4  39    6.2350   614.3    3.856      61.321
2015    2       26     4  44    6.2314   614.5    3.853      61.310
2015    2       26     4  49    6.2278   614.6    3.850      61.298
2015    2       26     4  55    6.2243   614.7    3.847      61.287
2015    2       26     5   0    6.2203   614.8    3.843      61.275
2015    2       26     5   5    6.2168   614.9    3.840      61.262
2015    2       26     5  10    6.2132   615.1    3.837      61.248
2015    2       26     5  16    6.2101   615.2    3.833      61.234
2015    2       26     5  21    6.2062   615.3    3.829      61.219
2015    2       26     5  26    6.2031   615.4    3.826      61.203
2015    2       26     5  31    6.1992   615.5    3.822      61.187
2015    2       26     5  37    6.1961   615.6    3.819      61.170
2015    2       26     5  42    6.1926   615.8    3.815      61.153
2015    2       26     5  47    6.1887   615.9    3.811      61.136
2015    2       26     5  52    6.1852   616.0    3.808      61.118
2015    2       26     5  58    6.1822   616.1    3.804      61.100
2015    2       26     6   3    6.1787   616.2    3.801      61.082
2015    2       26     6   8    6.1749   616.4    3.797      61.064
2015    2       26     6  14    6.1715   616.5    3.793      61.045
2015    2       26     6  19    6.1682   616.6    3.790      61.026
2015    2       26     6  24    6.1648   616.7    3.786      61.008
2015    2       26     6  29    6.1615   616.8    3.783      60.988
2015    2       26     6  35    6.1585   616.9    3.780      60.969
2015    2       26     6  40    6.1553   617.0    3.776      60.950
2015    2       26     6  45    6.1520   617.2    3.773      60.930
2015    2       26     6  50    6.1484   617.3    3.769      60.910
2015    2       26     6  56    6.1455   617.4    3.766      60.889
2015    2       26     7   1    6.1419   617.5    3.762      60.869
2015    2       26     7   6    6.1387   617.6    3.759      60.848
2015    2       26     7  11    6.1359   617.7    3.756      60.826
2015    2       26     7  17    6.1324   617.8    3.752      60.805
2015    2       26     7  22    6.1297   617.9    3.749      60.783
2015    2       26     7  27    6.1266   618.0    3.746      60.762
2015    2       26     7  32    6.1235   618.1    3.743      60.740
2015    2       26     7  38    6.1201   618.2    3.739      60.718
2015    2       26     7  43    6.1171   618.3    3.736      60.696
2015    2       26     7  48    6.1144   618.4    3.733      60.674
2015    2       26     7  54    6.1114   618.5    3.730      60.652
2015    2       26     7  59    6.1085   618.6    3.727      60.630
2015    2       26     8   4    6.1056   618.7    3.724      60.609
2015    2       26     8   9    6.1023   618.7    3.721      60.588
2015    2       26     8  15    6.0995   618.8    3.718      60.568
2015    2       26     8  20    6.0970   618.9    3.715      60.547
2015    2       26     8  25    6.0939   619.0    3.712      60.528
2015    2       26     8  30    6.0912   619.1    3.710      60.509
2015    2       26     8  36    6.0888   619.1    3.707      60.491
2015    2       26     8  41    6.0861   619.2    3.704      60.474
2015    2       26     8  46    6.0832   619.3    3.702      60.457
2015    2       26     8  51    6.0806   619.3    3.700      60.441
2015    2       26     8  57    6.0783   619.4    3.697      60.426
2015    2       26     9   2    6.0758   619.5    3.695      60.412
2015    2       26     9   7    6.0734   619.5    3.693      60.399
2015    2       26     9  13    6.0706   619.6    3.691      60.387
2015    2       26     9  18    6.0686   619.7    3.688      60.375
2015    2       26     9  23    6.0662   619.7    3.686      60.365
2015    2       26     9  28    6.0639   619.8    3.684      60.355
2015    2       26     9  34    6.0614   619.9    3.682      60.345
2015    2       26     9  39    6.0591   619.9    3.680      60.336
2015    2       26     9  44    6.0569   620.0    3.679      60.328
2015    2       26     9  49    6.0550   620.1    3.677      60.319
2015    2       26     9  55    6.0529   620.1    3.675      60.310
2015    2       26    10   0    6.0507   620.2    3.673      60.302
2015    2       26    10   5    6.0484   620.3    3.671      60.294
2015    2       26    10  10    6.0462   620.3    3.669      60.285
2015    2       26    10  16    6.0444   620.4    3.667      60.276
2015    2       26    10  21    6.0421   620.5    3.665      60.267
2015    2       26    10  26    6.0400   620.5    3.663      60.258
2015    2       26    10  31    6.0382   620.6    3.661      60.248
2015    2       26    10  37    6.0361   620.6    3.659      60.238
2015    2       26    10  42    6.0338   620.7    3.657      60.228
2015    2       26    10  47    6.0319   620.8    3.655      60.218
2015    2       26    10  53    6.0296   620.8    3.653      60.207
2015    2       26    10  58    6.0275   620.9    3.651      60.197
2015    2       26    11   3    6.0257   621.0    3.648      60.186
2015    2       26    11   8    6.0236   621.0    3.646      60.175
2015    2       26    11  14    6.0213   621.1    3.644      60.164
2015    2       26    11  19    6.0194   621.1    3.642      60.153
2015    2       26    11  24    6.0172   621.2    3.640      60.142
2015    2       26    11  29    6.0153   621.3    3.638      60.131
2015    2       26    11  35    6.0133   621.3    3.636      60.120
2015    2       26    11  40    6.0113   621.4    3.634      60.110
2015    2       26    11  45    6.0090   621.4    3.632      60.099
2015    2       26    11  50    6.0072   621.5    3.630      60.089
2015    2       26    11  56    6.0052   621.5    3.629      60.079
2015    2       26    12   1    6.0030   621.6    3.627      60.069
2015    2       26    12   6    6.0012   621.6    3.625      60.060
2015    2       26    12  11    5.9991   621.7    3.623      60.051
2015    2       26    12  17    5.9971   621.8    3.622      60.043
2015    2       26    12  22    5.9952   621.8    3.620      60.034
2015    2       26    12  27    5.9934   621.9    3.618      60.026
2015    2       26    12  33    5.9915   621.9    3.617      60.019
2015    2       26    12  38    5.9896   622.0    3.615      60.011
2015    2       26    12  43    5.9878   622.0    3.614      60.005
2015    2       26    12  48    5.9859   622.1    3.612      59.998
2015    2       26    12  54    5.9840   622.1    3.611      59.991
2015    2       26    12  59    5.9820   622.2    3.609      59.985
2015    2       26    13   4    5.9804   622.3    3.608      59.978
2015    2       26    13   9    5.9787   622.3    3.607      59.972
2015    2       26    13  15    5.9769   622.4    3.606      59.967
2015    2       26    13  20    5.9751   622.4    3.604      59.961
2015    2       26    13  25    5.9734   622.5    3.603      59.955
2015    2       26    13  30    5.9717   622.5    3.602      59.949
2015    2       26    13  36    5.9700   622.6    3.601      59.943
2015    2       26    13  41    5.9684   622.6    3.600      59.938
2015    2       26    13  46    5.9668   622.7    3.598      59.932
2015    2       26    13  52    5.9652   622.8    3.597      59.926
2015    2       26    13  57    5.9634   622.8    3.596      59.920
2015    2       26    14   2    5.9618   622.9    3.595      59.914
2015    2       26    14   7    5.9604   622.9    3.594      59.908
2015    2       26    14  13    5.9587   623.0    3.593      59.902
2015    2       26    14  18    5.9572   623.0    3.592      59.895
2015    2       26    14  23    5.9557   623.1    3.591      59.889
2015    2       26    14  28    5.9545   623.1    3.590      59.883
2015    2       26    14  34    5.9528   623.2    3.589      59.876
2015    2       26    14  39    5.9514   623.3    3.588      59.870
2015    2       26    14  44    5.9500   623.3    3.587      59.863
2015    2       26    14  49    5.9488   623.4    3.586      59.856
2015    2       26    14  55    5.9474   623.4    3.584      59.850
2015    2       26    15   0    5.9459   623.5    3.583      59.843
2015    2       26    15   5    5.9448   623.5    3.582      59.836
2015    2       26    15  10    5.9432   623.6    3.581      59.830
2015    2       26    15  16    5.9420   623.6    3.580      59.823
2015    2       26    15  21    5.9409   623.7    3.579      59.816
2015    2       26    15  26    5.9394   623.7    3.578      59.809
2015    2       26    15  32    5.9384   623.8    3.577      59.802
2015    2       26    15  37    5.9370   623.8    3.576      59.795
2015    2       26    15  42    5.9357   623.9    3.574      59.788
2015    2       26    15  47    5.9348   623.9    3.573      59.781
2015    2       26    15  53    5.9336   623.9    3.572      59.774
2015    2       26    15  58    5.9322   624.0    3.571      59.767
2015    2       26    16   3    5.9311   624.0    3.570      59.760
2015    2       26    16   8    5.9300   624.1    3.569      59.752
2015    2       26    16  14    5.9289   624.1    3.568      59.745
2015    2       26    16  19    5.9279   624.2    3.566      59.738
2015    2       26    16  24    5.9268   624.2    3.565      59.730
2015    2       26    16  29    5.9257   624.2    3.564      59.723
2015    2       26    16  35    5.9247   624.3    3.563      59.716
2015    2       26    16  40    5.9237   624.3    3.562      59.708
2015    2       26    16  45    5.9229   624.4    3.561      59.701
2015    2       26    16  50    5.9217   624.4    3.560      59.693
2015    2       26    16  56    5.9207   624.4    3.559      59.686
2015    2       26    17   1    5.9198   624.5    3.557      59.678
2015    2       26    17   6    5.9188   624.5    3.556      59.671
2015    2       26    17  12    5.9180   624.6    3.555      59.663
2015    2       26    17  17    5.9171   624.6    3.554      59.655
2015    2       26    17  22    5.9161   624.6    3.553      59.647
2015    2       26    17  27    5.9150   624.7    3.552      59.639
2015    2       26    17  33    5.9141   624.7    3.551      59.631
2015    2       26    17  38    5.9133   624.7    3.549      59.623
2015    2       26    17  43    5.9123   624.8    3.548      59.615
2015    2       26    17  48    5.9113   624.8    3.547      59.607
2015    2       26    17  54    5.9105   624.8    3.546      59.599
2015    2       26    17  59    5.9094   624.9    3.545      59.591
2015    2       26    18   4    5.9085   624.9    3.544      59.583
2015    2       26    18   9    5.9077   624.9    3.542      59.575
2015    2       26    18  15    5.9067   625.0    3.541      59.568
2015    2       26    18  20    5.9058   625.0    3.540      59.560
2015    2       26    18  25    5.9049   625.0    3.539      59.553
2015    2       26    18  31    5.9041   625.0    3.538      59.546
2015    2       26    18  36    5.9033   625.1    3.537      59.539
2015    2       26    18  41    5.9023   625.1    3.536      59.533
2015    2       26    18  46    5.9014   625.1    3.535      59.527
2015    2       26    18  52    5.9006   625.1    3.534      59.521
2015    2       26    18  57    5.8997   625.1    3.533      59.517
2015    2       26    19   2    5.8989   625.2    3.533      59.512
2015    2       26    19   7    5.8982   625.2    3.532      59.508
2015    2       26    19  13    5.8973   625.2    3.531      59.505
2015    2       26    19  18    5.8966   625.2    3.531      59.503
2015    2       26    19  23    5.8958   625.2    3.530      59.502
2015    2       26    19  28    5.8951   625.2    3.530      59.501
2015    2       26    19  34    5.8945   625.3    3.530      59.501
2015    2       26    19  39    5.8937   625.3    3.530      59.502
2015    2       26    19  44    5.8931   625.3    3.530      59.504
2015    2       26    19  49    5.8924   625.3    3.530      59.507
2015    2       26    19  55    5.8917   625.3    3.530      59.511
2015    2       26    20   0    5.8913   625.3    3.530      59.515
2015    2       26    20   5    5.8907   625.4    3.530      59.521
2015    2       26    20  11    5.8902   625.4    3.531      59.528
2015    2       26    20  16    5.8897   625.4    3.531      59.535
2015    2       26    20  21    5.8891   625.4    3.532      59.544
2015    2       26    20  26    5.8886   625.4    3.532      59.553
2015    2       26    20  32    5.8882   625.4    3.533      59.563
2015    2       26    20  37    5.8878   625.5    3.533      59.574
2015    2       26    20  42    5.8875   625.5    3.534      59.584
2015    2       26    20  47    5.8871   625.5    3.535      59.595
2015    2       26    20  53    5.8868   625.5    3.535      59.605
2015    2       26    20  58    5.8865   625.6    3.536      59.616
2015    2       26    21   3    5.8862   625.6    3.536      59.626
2015    2       26    21   8    5.8858   625.6    3.537      59.636
2015    2       26    21  14    5.8856   625.6    3.537      59.646
2015    2       26    21  19    5.8852   625.7    3.538      59.654
2015    2       26    21  24    5.8850   625.7    3.538      59.662
2015    2       26    21  29    5.8847   625.7    3.539      59.670
2015    2       26    21  35    5.8844   625.8    3.539      59.677
2015    2       26    21  40    5.8840   625.8    3.539      59.683
2015    2       26    21  45    5.8838   625.8    3.539      59.689
2015    2       26    21  51    5.8835   625.9    3.539      59.695
2015    2       26    21  56    5.8831   625.9    3.540      59.700
2015    2       26    22   1    5.8830   625.9    3.540      59.704
2015    2       26    22   6    5.8827   626.0    3.540      59.708
2015    2       26    22  12    5.8824   626.0    3.540      59.712
2015    2       26    22  17    5.8821   626.0    3.540      59.715
2015    2       26    22  22    5.8818   626.1    3.539      59.717
2015    2       26    22  27    5.8815   626.1    3.539      59.719
2015    2       26    22  33    5.8812   626.1    3.539      59.720
2015    2       26    22  38    5.8810   626.2    3.539      59.721
2015    2       26    22  43    5.8807   626.2    3.539      59.721
2015    2       26    22  48    5.8803   626.2    3.538      59.721
2015    2       26    22  54    5.8801   626.3    3.538      59.720
2015    2       26    22  59    5.8798   626.3    3.537      59.719
2015    2       26    23   4    5.8794   626.3    3.537      59.717
2015    2       26    23  10    5.8792   626.4    3.537      59.715
2015    2       26    23  15    5.8790   626.4    3.536      59.713
2015    2       26    23  20    5.8786   626.4    3.536      59.711
2015    2       26    23  25    5.8784   626.5    3.535      59.708
2015    2       26    23  31    5.8782   626.5    3.535      59.705
2015    2       26    23  36    5.8779   626.5    3.534      59.702
2015    2       26    23  41    5.8777   626.6    3.534      59.699
2015    2       26    23  46    5.8774   626.6    3.533      59.696
2015    2       26    23  52    5.8772   626.6    3.533      59.693
2015    2       26    23  57    5.8769   626.6    3.532      59.690
2015    2       27     0   2    5.8767   626.7    3.532      59.687
2015    2       27     0   7    5.8765   626.7    3.531      59.684
2015    2       27     0  13    5.8761   626.7    3.531      59.680
2015    2       27     0  18    5.8759   626.8    3.530      59.677
2015    2       27     0  23    5.8757   626.8    3.529      59.673
2015    2       27     0  28    5.8753   626.8    3.529      59.670
2015    2       27     0  34    5.8752   626.9    3.528      59.666
2015    2       27     0  39    5.8748   626.9    3.527      59.662
2015    2       27     0  44    5.8745   626.9    3.526      59.658
2015    2       27     0  50    5.8743   626.9    3.526      59.654
2015    2       27     0  55    5.8740   627.0    3.525      59.650
2015    2       27     1   0    5.8737   627.0    3.524      59.646
2015    2       27     1   5    5.8734   627.0    3.523      59.642
2015    2       27     1  11    5.8732   627.0    3.522      59.638
2015    2       27     1  16    5.8730   627.0    3.521      59.634
2015    2       27     1  21    5.8727   627.1    3.521      59.631
2015    2       27     1  26    5.8724   627.1    3.520      59.628
2015    2       27     1  32    5.8722   627.1    3.519      59.625
2015    2       27     1  37    5.8719   627.1    3.518      59.623
2015    2       27     1  42    5.8716   627.1    3.518      59.621
2015    2       27     1  47    5.8714   627.1    3.517      59.620
2015    2       27     1  53    5.8712   627.1    3.517      59.620
2015    2       27     1  58    5.8709   627.1    3.516      59.621
2015    2       27     2   3    5.8707   627.1    3.516      59.622
2015    2       27     2   8    5.8705   627.1    3.516      59.625
2015    2       27     2  14    5.8703   627.1    3.515      59.628
2015    2       27     2  19    5.8702   627.2    3.515      59.633
2015    2       27     2  24    5.8700   627.2    3.515      59.639
2015    2       27     2  30    5.8698   627.2    3.516      59.646
2015    2       27     2  35    5.8698   627.2    3.516      59.655
2015    2       27     2  40    5.8696   627.2    3.516      59.665
2015    2       27     2  45    5.8696   627.2    3.517      59.676
2015    2       27     2  51    5.8695   627.2    3.518      59.688
2015    2       27     2  56    5.8695   627.2    3.518      59.702
2015    2       27     3   1    5.8696   627.2    3.519      59.717
2015    2       27     3   6    5.8696   627.2    3.520      59.734
2015    2       27     3  12    5.8697   627.2    3.522      59.752
2015    2       27     3  17    5.8698   627.2    3.523      59.771
2015    2       27     3  22    5.8699   627.2    3.524      59.791
2015    2       27     3  27    5.8700   627.2    3.526      59.812
2015    2       27     3  33    5.8703   627.2    3.527      59.833
2015    2       27     3  38    5.8705   627.2    3.528      59.855
2015    2       27     3  43    5.8707   627.3    3.530      59.877
2015    2       27     3  49    5.8709   627.3    3.531      59.899
2015    2       27     3  54    5.8711   627.3    3.532      59.921
2015    2       27     3  59    5.8713   627.3    3.533      59.942
2015    2       27     4   4    5.8715   627.3    3.534      59.963
2015    2       27     4  10    5.8717   627.4    3.535      59.982
2015    2       27     4  15    5.8720   627.4    3.536      60.001
2015    2       27     4  20    5.8722   627.4    3.537      60.019
2015    2       27     4  25    5.8724   627.4    3.538      60.035
2015    2       27     4  31    5.8727   627.4    3.539      60.051
2015    2       27     4  36    5.8728   627.5    3.539      60.065
2015    2       27     4  41    5.8730   627.5    3.540      60.079
2015    2       27     4  46    5.8732   627.5    3.540      60.091
2015    2       27     4  52    5.8734   627.5    3.540      60.102
2015    2       27     4  57    5.8736   627.6    3.541      60.112
2015    2       27     5   2    5.8737   627.6    3.541      60.122
2015    2       27     5   7    5.8738   627.6    3.541      60.130
2015    2       27     5  13    5.8740   627.6    3.541      60.138
2015    2       27     5  18    5.8742   627.6    3.541      60.145
2015    2       27     5  23    5.8743   627.7    3.542      60.152
2015    2       27     5  29    5.8745   627.7    3.542      60.157
2015    2       27     5  34    5.8746   627.7    3.542      60.163
2015    2       27     5  39    5.8748   627.7    3.541      60.168
2015    2       27     5  44    5.8749   627.8    3.541      60.172
2015    2       27     5  50    5.8751   627.8    3.541      60.176
2015    2       27     5  55    5.8751   627.8    3.541      60.180
2015    2       27     6   0    5.8753   627.8    3.541      60.184
2015    2       27     6   5    5.8755   627.9    3.541      60.187
2015    2       27     6  11    5.8755   627.9    3.541      60.190
2015    2       27     6  16    5.8757   627.9    3.541      60.194
2015    2       27     6  21    5.8758   627.9    3.541      60.197
2015    2       27     6  26    5.8760   628.0    3.540      60.201
2015    2       27     6  32    5.8760   628.0    3.540      60.205
2015    2       27     6  37    5.8762   628.0    3.540      60.209
2015    2       27     6  42    5.8763   628.0    3.540      60.213
2015    2       27     6  47    5.8764   628.1    3.540      60.217
2015    2       27     6  53    5.8765   628.1    3.540      60.222
2015    2       27     6  58    5.8766   628.1    3.539      60.227
2015    2       27     7   3    5.8767   628.2    3.539      60.231
2015    2       27     7   9    5.8768   628.2    3.539      60.237
2015    2       27     7  14    5.8769   628.2    3.539      60.242
2015    2       27     7  19    5.8769   628.2    3.538      60.248
2015    2       27     7  24    5.8771   628.3    3.538      60.253
2015    2       27     7  30    5.8771   628.3    3.538      60.258
2015    2       27     7  35    5.8772   628.3    3.537      60.263
2015    2       27     7  40    5.8772   628.3    3.537      60.268
2015    2       27     7  45    5.8773   628.4    3.537      60.273
2015    2       27     7  51    5.8773   628.4    3.536      60.278
2015    2       27     7  56    5.8774   628.4    3.536      60.282
2015    2       27     8   1    5.8775   628.4    3.535      60.286
2015    2       27     8   6    5.8775   628.5    3.535      60.291
2015    2       27     8  12    5.8776   628.5    3.534      60.294
2015    2       27     8  17    5.8776   628.5    3.533      60.298
2015    2       27     8  22    5.8777   628.5    3.533      60.302
2015    2       27     8  28    5.8777   628.6    3.532      60.306
2015    2       27     8  33    5.8778   628.6    3.532      60.310
2015    2       27     8  38    5.8778   628.6    3.531      60.314
2015    2       27     8  43    5.8778   628.6    3.531      60.319
2015    2       27     8  49    5.8779   628.6    3.530      60.324
2015    2       27     8  54    5.8780   628.6    3.530      60.329
2015    2       27     8  59    5.8781   628.6    3.529      60.335
2015    2       27     9   4    5.8782   628.7    3.529      60.341
2015    2       27     9  10    5.8783   628.7    3.528      60.348
2015    2       27     9  15    5.8784   628.7    3.528      60.356
2015    2       27     9  20    5.8785   628.7    3.528      60.365
2015    2       27     9  25    5.8786   628.7    3.528      60.374
2015    2       27     9  31    5.8788   628.7    3.528      60.384
2015    2       27     9  36    5.8790   628.7    3.528      60.396
2015    2       27     9  41    5.8791   628.7    3.528      60.408
2015    2       27     9  46    5.8793   628.7    3.528      60.421
2015    2       27     9  52    5.8795   628.7    3.528      60.435
2015    2       27     9  57    5.8797   628.7    3.528      60.450
2015    2       27    10   2    5.8800   628.7    3.529      60.466
2015    2       27    10   8    5.8803   628.7    3.529      60.483
2015    2       27    10  13    5.8806   628.7    3.530      60.502
2015    2       27    10  18    5.8809   628.7    3.531      60.521
2015    2       27    10  23    5.8812   628.7    3.531      60.541
2015    2       27    10  29    5.8816   628.7    3.532      60.562
2015    2       27    10  34    5.8820   628.8    3.533      60.584
2015    2       27    10  39    5.8824   628.8    3.534      60.606
2015    2       27    10  44    5.8828   628.8    3.535      60.629
2015    2       27    10  50    5.8832   628.8    3.535      60.652
2015    2       27    10  55    5.8836   628.8    3.536      60.675
2015    2       27    11   0    5.8841   628.8    3.537      60.698
2015    2       27    11   5    5.8845   628.8    3.538      60.721
2015    2       27    11  11    5.8849   628.8    3.539      60.743
2015    2       27    11  16    5.8854   628.8    3.540      60.766
2015    2       27    11  21    5.8858   628.8    3.540      60.787
2015    2       27    11  26    5.8863   628.9    3.541      60.808
2015    2       27    11  32    5.8867   628.9    3.542      60.828
2015    2       27    11  37    5.8871   628.9    3.542      60.848
2015    2       27    11  42    5.8876   628.9    3.543      60.867
2015    2       27    11  48    5.8880   628.9    3.543      60.885
2015    2       27    11  53    5.8884   628.9    3.544      60.903
2015    2       27    11  58    5.8889   628.9    3.544      60.920
2015    2       27    12   3    5.8893   628.9    3.545      60.937
2015    2       27    12   9    5.8898   628.9    3.545      60.952
2015    2       27    12  14    5.8902   629.0    3.546      60.968
2015    2       27    12  19    5.8906   629.0    3.546      60.982
2015    2       27    12  24    5.8911   629.0    3.546      60.996
2015    2       27    12  30    5.8915   629.0    3.547      61.010
2015    2       27    12  35    5.8920   629.0    3.547      61.023
2015    2       27    12  40    5.8924   629.0    3.547      61.036
2015    2       27    12  45    5.8928   629.0    3.547      61.049
2015    2       27    12  51    5.8933   629.0    3.548      61.062
2015    2       27    12  56    5.8937   629.0    3.548      61.074
2015    2       27    13   1    5.8942   629.1    3.548      61.086
2015    2       27    13   7    5.8946   629.1    3.549      61.099
2015    2       27    13  12    5.8951   629.1    3.549      61.111
2015    2       27    13  17    5.8955   629.1    3.549      61.124
2015    2       27    13  22    5.8960   629.1    3.550      61.138
2015    2       27    13  28    5.8964   629.1    3.550      61.152
2015    2       27    13  33    5.8969   629.1    3.550      61.166
2015    2       27    13  38    5.8972   629.2    3.550      61.181
2015    2       27    13  43    5.8977   629.2    3.551      61.197
2015    2       27    13  49    5.8981   629.2    3.551      61.212
2015    2       27    13  54    5.8985   629.2    3.551      61.227
2015    2       27    13  59    5.8989   629.3    3.551      61.243
2015    2       27    14   4    5.8992   629.3    3.551      61.259
2015    2       27    14  10    5.8996   629.3    3.552      61.275
2015    2       27    14  15    5.8999   629.3    3.552      61.291
2015    2       27    14  20    5.9003   629.3    3.552      61.307
2015    2       27    14  25    5.9007   629.4    3.552      61.322
2015    2       27    14  31    5.9010   629.4    3.552      61.337
2015    2       27    14  36    5.9014   629.4    3.552      61.352
2015    2       27    14  41    5.9017   629.4    3.552      61.367
2015    2       27    14  47    5.9020   629.5    3.552      61.382
2015    2       27    14  52    5.9024   629.5    3.552      61.396
2015    2       27    14  57    5.9027   629.5    3.552      61.410
2015    2       27    15   2    5.9031   629.5    3.551      61.424
2015    2       27    15   8    5.9034   629.6    3.551      61.437
2015    2       27    15  13    5.9038   629.6    3.551      61.450
2015    2       27    15  18    5.9041   629.6    3.551      61.463
2015    2       27    15  23    5.9045   629.6    3.551      61.475
2015    2       27    15  29    5.9049   629.7    3.551      61.487
2015    2       27    15  34    5.9052   629.7    3.550      61.499
2015    2       27    15  39    5.9056   629.7    3.550      61.511
2015    2       27    15  44    5.9060   629.7    3.550      61.522
2015    2       27    15  50    5.9064   629.7    3.550      61.533
2015    2       27    15  55    5.9068   629.8    3.549      61.545
2015    2       27    16   0    5.9072   629.8    3.549      61.556
2015    2       27    16   5    5.9076   629.8    3.549      61.568
2015    2       27    16  11    5.9081   629.8    3.549      61.579
2015    2       27    16  16    5.9085   629.8    3.548      61.591
2015    2       27    16  21    5.9090   629.9    3.548      61.603
2015    2       27    16  27    5.9094   629.9    3.548      61.615
2015    2       27    16  32    5.9098   629.9    3.548      61.628
2015    2       27    16  37    5.9104   629.9    3.548      61.641
2015    2       27    16  42    5.9108   630.0    3.548      61.654
2015    2       27    16  48    5.9113   630.0    3.547      61.668
2015    2       27    16  53    5.9118   630.0    3.547      61.682
2015    2       27    16  58    5.9124   630.0    3.547      61.697
2015    2       27    17   3    5.9128   630.0    3.547      61.712
2015    2       27    17   9    5.9134   630.1    3.547      61.728
2015    2       27    17  14    5.9139   630.1    3.547      61.744
2015    2       27    17  19    5.9144   630.1    3.547      61.760
2015    2       27    17  24    5.9150   630.1    3.548      61.777
2015    2       27    17  30    5.9155   630.1    3.548      61.795
2015    2       27    17  35    5.9161   630.2    3.548      61.813
2015    2       27    17  40    5.9166   630.2    3.548      61.831
2015    2       27    17  46    5.9172   630.2    3.548      61.849
2015    2       27    17  51    5.9177   630.2    3.549      61.868
2015    2       27    17  56    5.9183   630.2    3.549      61.887
2015    2       27    18   1    5.9188   630.2    3.549      61.907
2015    2       27    18   7    5.9194   630.3    3.550      61.926
2015    2       27    18  12    5.9200   630.3    3.550      61.946
2015    2       27    18  17    5.9205   630.3    3.550      61.966
2015    2       27    18  22    5.9211   630.3    3.551      61.986
2015    2       27    18  28    5.9217   630.3    3.551      62.005
2015    2       27    18  33    5.9223   630.4    3.552      62.025
2015    2       27    18  38    5.9229   630.4    3.552      62.045
2015    2       27    18  43    5.9234   630.4    3.552      62.065
2015    2       27    18  49    5.9240   630.4    3.553      62.084
2015    2       27    18  54    5.9246   630.4    3.553      62.104
2015    2       27    18  59    5.9252   630.4    3.554      62.123
2015    2       27    19   4    5.9258   630.5    3.554      62.142
2015    2       27    19  10    5.9264   630.5    3.554      62.160
2015    2       27    19  15    5.9270   630.5    3.555      62.179
2015    2       27    19  20    5.9276   630.5    3.555      62.197
2015    2       27    19  26    5.9282   630.5    3.556      62.215
2015    2       27    19  31    5.9288   630.5    3.556      62.232
2015    2       27    19  36    5.9294   630.5    3.556      62.249
2015    2       27    19  41    5.9300   630.6    3.557      62.266
2015    2       27    19  47    5.9306   630.6    3.557      62.283
2015    2       27    19  52    5.9312   630.6    3.557      62.299
2015    2       27    19  57    5.9318   630.6    3.558      62.316
2015    2       27    20   2    5.9324   630.6    3.558      62.331
2015    2       27    20   8    5.9330   630.6    3.558      62.347
2015    2       27    20  13    5.9336   630.6    3.558      62.363
2015    2       27    20  18    5.9341   630.7    3.559      62.378
2015    2       27    20  23    5.9347   630.7    3.559      62.393
2015    2       27    20  29    5.9353   630.7    3.559      62.408
2015    2       27    20  34    5.9359   630.7    3.560      62.424
2015    2       27    20  39    5.9365   630.7    3.560      62.439
2015    2       27    20  45    5.9371   630.8    3.560      62.455
2015    2       27    20  50    5.9376   630.8    3.560      62.471
2015    2       27    20  55    5.9382   630.8    3.560      62.487
2015    2       27    21   0    5.9388   630.8    3.561      62.504
2015    2       27    21   6    5.9393   630.8    3.561      62.520
2015    2       27    21  11    5.9399   630.9    3.561      62.537
2015    2       27    21  16    5.9404   630.9    3.561      62.554
2015    2       27    21  21    5.9409   630.9    3.561      62.571
2015    2       27    21  27    5.9415   630.9    3.561      62.588
2015    2       27    21  32    5.9420   631.0    3.561      62.605
2015    2       27    21  37    5.9425   631.0    3.561      62.621
2015    2       27    21  42    5.9430   631.0    3.561      62.638
2015    2       27    21  48    5.9435   631.0    3.561      62.654
2015    2       27    21  53    5.9440   631.1    3.561      62.670
2015    2       27    21  58    5.9445   631.1    3.561      62.686
2015    2       27    22   3    5.9451   631.1    3.561      62.701
2015    2       27    22   9    5.9456   631.2    3.561      62.716
2015    2       27    22  14    5.9461   631.2    3.560      62.731
2015    2       27    22  19    5.9466   631.2    3.560      62.746
2015    2       27    22  25    5.9472   631.2    3.560      62.761
2015    2       27    22  30    5.9477   631.3    3.560      62.776
2015    2       27    22  35    5.9482   631.3    3.560      62.791
2015    2       27    22  40    5.9488   631.3    3.560      62.806
2015    2       27    22  46    5.9493   631.3    3.560      62.820
2015    2       27    22  51    5.9499   631.4    3.560      62.835
2015    2       27    22  56    5.9505   631.4    3.560      62.850
2015    2       27    23   1    5.9511   631.4    3.560      62.865
2015    2       27    23   7    5.9516   631.5    3.560      62.880
2015    2       27    23  12    5.9522   631.5    3.560      62.895
2015    2       27    23  17    5.9528   631.5    3.560      62.910
2015    2       27    23  22    5.9534   631.5    3.560      62.925
2015    2       27    23  28    5.9540   631.6    3.559      62.941
2015    2       27    23  33    5.9547   631.6    3.560      62.956
2015    2       27    23  38    5.9553   631.6    3.560      62.971
2015    2       27    23  43    5.9559   631.7    3.560      62.987
2015    2       27    23  49    5.9565   631.7    3.560      63.003
2015    2       27    23  54    5.9571   631.7    3.560      63.018
2015    2       27    23  59    5.9577   631.8    3.560      63.034
2015    2       28     0   5    5.9583   631.8    3.560      63.050
2015    2       28     0  10    5.9589   631.8    3.560      63.066
2015    2       28     0  15    5.9596   631.9    3.560      63.082
2015    2       28     0  20    5.9601   631.9    3.560      63.097
2015    2       28     0  26    5.9607   631.9    3.560      63.113
2015    2       28     0  31    5.9613   632.0    3.560      63.129
2015    2       28     0  36    5.9619   632.0    3.560      63.145
2015    2       28     0  41    5.9625   632.0    3.560      63.160
2015    2       28     0  47    5.9630   632.1    3.560      63.176
2015    2       28     0  52    5.9636   632.1    3.560      63.191
2015    2       28     0  57    5.9642   632.1    3.560      63.207
2015    2       28     1   2    5.9647   632.2    3.560      63.222
2015    2       28     1   8    5.9653   632.2    3.560      63.238
2015    2       28     1  13    5.9658   632.2    3.560      63.253
2015    2       28     1  18    5.9664   632.3    3.560      63.268
2015    2       28     1  24    5.9669   632.3    3.561      63.283
2015    2       28     1  29    5.9675   632.3    3.561      63.298
2015    2       28     1  34    5.9680   632.4    3.561      63.314
2015    2       28     1  39    5.9685   632.4    3.561      63.329
2015    2       28     1  45    5.9691   632.4    3.561      63.344
2015    2       28     1  50    5.9696   632.5    3.561      63.359
2015    2       28     1  55    5.9702   632.5    3.561      63.374
2015    2       28     2   0    5.9707   632.5    3.561      63.390
2015    2       28     2   6    5.9712   632.6    3.561      63.405
2015    2       28     2  11    5.9717   632.6    3.562      63.421
2015    2       28     2  16    5.9723   632.6    3.562      63.436
2015    2       28     2  21    5.9728   632.7    3.562      63.452
2015    2       28     2  27    5.9733   632.7    3.562      63.468
2015    2       28     2  32    5.9739   632.8    3.562      63.484
2015    2       28     2  37    5.9744   632.8    3.562      63.500
2015    2       28     2  42    5.9749   632.8    3.563      63.516
2015    2       28     2  48    5.9754   632.9    3.563      63.532
2015    2       28     2  53    5.9760   632.9    3.563      63.549
2015    2       28     2  58    5.9765   632.9    3.563      63.565
2015    2       28     3   4    5.9770   633.0    3.563      63.582
2015    2       28     3   9    5.9775   633.0    3.563      63.599
2015    2       28     3  14    5.9781   633.1    3.563      63.616
2015    2       28     3  19    5.9786   633.1    3.564      63.633
2015    2       28     3  25    5.9791   633.1    3.564      63.650
2015    2       28     3  30    5.9796   633.2    3.564      63.667
2015    2       28     3  35    5.9801   633.2    3.564      63.684
2015    2       28     3  40    5.9806   633.3    3.564      63.702
2015    2       28     3  46    5.9811   633.3    3.564      63.719
2015    2       28     3  51    5.9816   633.3    3.564      63.736
2015    2       28     3  56    5.9821   633.4    3.564      63.753
2015    2       28     4   1    5.9826   633.4    3.564      63.770
2015    2       28     4   7    5.9830   633.5    3.564      63.788
2015    2       28     4  12    5.9835   633.5    3.564      63.805
2015    2       28     4  17    5.9840   633.6    3.563      63.822
2015    2       28     4  22    5.9844   633.6    3.563      63.838
2015    2       28     4  28    5.9849   633.6    3.563      63.855
2015    2       28     4  33    5.9854   633.7    3.563      63.871
2015    2       28     4  38    5.9858   633.7    3.563      63.887
2015    2       28     4  44    5.9863   633.8    3.563      63.903
2015    2       28     4  49    5.9867   633.8    3.562      63.918
2015    2       28     4  54    5.9871   633.9    3.562      63.934
2015    2       28     4  59    5.9875   633.9    3.562      63.948
2015    2       28     5   5    5.9879   633.9    3.562      63.963
2015    2       28     5  10    5.9884   634.0    3.561      63.977
2015    2       28     5  15    5.9888   634.0    3.561      63.990
2015    2       28     5  20    5.9892   634.1    3.561      64.003
2015    2       28     5  26    5.9896   634.1    3.560      64.016
2015    2       28     5  31    5.9900   634.2    3.560      64.029
2015    2       28     5  36    5.9904   634.2    3.560      64.041
2015    2       28     5  41    5.9908   634.3    3.559      64.053
2015    2       28     5  47    5.9912   634.3    3.559      64.065
2015    2       28     5  52    5.9916   634.3    3.559      64.076
2015    2       28     5  57    5.9920   634.4    3.558      64.088
2015    2       28     6   3    5.9923   634.4    3.558      64.099
2015    2       28     6   8    5.9927   634.5    3.557      64.110
2015    2       28     6  13    5.9931   634.5    3.557      64.121
2015    2       28     6  18    5.9935   634.6    3.557      64.132
2015    2       28     6  24    5.9939   634.6    3.556      64.142
2015    2       28     6  29    5.9942   634.7    3.556      64.153
2015    2       28     6  34    5.9946   634.7    3.555      64.164
2015    2       28     6  39    5.9950   634.8    3.555      64.174
2015    2       28     6  45    5.9953   634.8    3.555      64.184
2015    2       28     6  50    5.9957   634.9    3.554      64.195
2015    2       28     6  55    5.9960   634.9    3.554      64.205
2015    2       28     7   0    5.9963   635.0    3.553      64.215
2015    2       28     7   6    5.9967   635.0    3.553      64.226
2015    2       28     7  11    5.9970   635.1    3.552      64.236
2015    2       28     7  16    5.9974   635.1    3.552      64.246
2015    2       28     7  21    5.9977   635.2    3.551      64.256
2015    2       28     7  27    5.9980   635.2    3.551      64.266
2015    2       28     7  32    5.9982   635.3    3.550      64.276
2015    2       28     7  37    5.9986   635.3    3.550      64.285
2015    2       28     7  43    5.9988   635.4    3.549      64.295
2015    2       28     7  48    5.9991   635.4    3.549      64.304
2015    2       28     7  53    5.9994   635.5    3.548      64.314
2015    2       28     7  58    5.9996   635.5    3.548      64.323
2015    2       28     8   4    5.9999   635.6    3.547      64.332
2015    2       28     8   9    6.0001   635.6    3.546      64.341
2015    2       28     8  14    6.0003   635.7    3.546      64.350
2015    2       28     8  19    6.0005   635.7    3.545      64.359
2015    2       28     8  25    6.0007   635.8    3.545      64.368
2015    2       28     8  30    6.0010   635.9    3.544      64.377
2015    2       28     8  35    6.0012   635.9    3.543      64.386
2015    2       28     8  40    6.0013   636.0    3.543      64.395
2015    2       28     8  46    6.0015   636.0    3.542      64.404
2015    2       28     8  51    6.0016   636.1    3.542      64.413
2015    2       28     8  56    6.0018   636.1    3.541      64.422
2015    2       28     9   2    6.0020   636.2    3.541      64.431
2015    2       28     9   7    6.0021   636.2    3.540      64.441
2015    2       28     9  12    6.0023   636.3    3.540      64.451
2015    2       28     9  17    6.0025   636.4    3.539      64.461
2015    2       28     9  23    6.0026   636.4    3.539      64.472
2015    2       28     9  28    6.0027   636.5    3.539      64.483
2015    2       28     9  33    6.0028   636.5    3.538      64.494
2015    2       28     9  38    6.0030   636.6    3.538      64.506
2015    2       28     9  44    6.0031   636.6    3.538      64.519
2015    2       28     9  49    6.0032   636.7    3.537      64.532
2015    2       28     9  54    6.0034   636.8    3.537      64.546
2015    2       28     9  59    6.0035   636.8    3.537      64.560
2015    2       28    10   5    6.0037   636.9    3.537      64.576
2015    2       28    10  10    6.0038   636.9    3.537      64.593
2015    2       28    10  15    6.0039   637.0    3.536      64.612
2015    2       28    10  20    6.0041   637.1    3.536      64.631
2015    2       28    10  26    6.0042   637.1    3.536      64.652
2015    2       28    10  31    6.0043   637.2    3.536      64.673
2015    2       28    10  36    6.0044   637.3    3.536      64.695
2015    2       28    10  42    6.0045   637.3    3.535      64.718
2015    2       28    10  47    6.0046   637.4    3.535      64.740
2015    2       28    10  52    6.0047   637.5    3.535      64.763
2015    2       28    10  57    6.0048   637.6    3.534      64.786
2015    2       28    11   3    6.0048   637.6    3.534      64.809
2015    2       28    11   8    6.0048   637.7    3.533      64.831
2015    2       28    11  13    6.0049   637.8    3.533      64.852
2015    2       28    11  18    6.0049   637.9    3.532      64.873
2015    2       28    11  24    6.0048   637.9    3.532      64.893
2015    2       28    11  29    6.0049   638.0    3.531      64.912
2015    2       28    11  34    6.0048   638.1    3.530      64.930
2015    2       28    11  39    6.0047   638.2    3.529      64.948
2015    2       28    11  45    6.0046   638.2    3.528      64.965
2015    2       28    11  50    6.0046   638.3    3.527      64.981
2015    2       28    11  55    6.0045   638.4    3.526      64.997
2015    2       28    12   0    6.0044   638.5    3.525      65.011
2015    2       28    12   6    6.0042   638.5    3.524      65.025
2015    2       28    12  11    6.0041   638.6    3.523      65.038
2015    2       28    12  16    6.0038   638.7    3.522      65.050
2015    2       28    12  22    6.0037   638.8    3.521      65.061
2015    2       28    12  27    6.0034   638.9    3.520      65.071
2015    2       28    12  32    6.0032   638.9    3.518      65.081
2015    2       28    12  37    6.0030   639.0    3.517      65.090
2015    2       28    12  43    6.0027   639.1    3.516      65.097
2015    2       28    12  48    6.0025   639.2    3.514      65.105
2015    2       28    12  53    6.0022   639.2    3.513      65.111
2015    2       28    12  58    6.0018   639.3    3.512      65.117
2015    2       28    13   4    6.0015   639.4    3.510      65.122
2015    2       28    13   9    6.0012   639.5    3.509      65.127
2015    2       28    13  14    6.0008   639.5    3.507      65.131
2015    2       28    13  19    6.0004   639.6    3.506      65.135
2015    2       28    13  25    6.0000   639.7    3.504      65.138
2015    2       28    13  30    5.9997   639.8    3.503      65.141
2015    2       28    13  35    5.9993   639.8    3.501      65.144
2015    2       28    13  41    5.9989   639.9    3.499      65.146
2015    2       28    13  46    5.9984   640.0    3.498      65.148
2015    2       28    13  51    5.9979   640.0    3.496      65.149
2015    2       28    13  56    5.9974   640.1    3.495      65.150
2015    2       28    14   2    5.9970   640.2    3.493      65.151
2015    2       28    14   7    5.9965   640.3    3.491      65.151
2015    2       28    14  12    5.9960   640.3    3.490      65.151
2015    2       28    14  17    5.9954   640.4    3.488      65.151
2015    2       28    14  23    5.9950   640.5    3.486      65.150
2015    2       28    14  28    5.9944   640.5    3.484      65.149
2015    2       28    14  33    5.9937   640.6    3.483      65.148
2015    2       28    14  38    5.9933   640.7    3.481      65.147
2015    2       28    14  44    5.9926   640.7    3.479      65.145
2015    2       28    14  49    5.9921   640.8    3.478      65.143
2015    2       28    14  54    5.9915   640.9    3.476      65.141
2015    2       28    14  59    5.9907   640.9    3.474      65.138
2015    2       28    15   5    5.9902   641.0    3.472      65.136
2015    2       28    15  10    5.9895   641.1    3.471      65.134
2015    2       28    15  15    5.9889   641.1    3.469      65.131
2015    2       28    15  21    5.9882   641.2    3.467      65.129
2015    2       28    15  26    5.9876   641.2    3.466      65.126
2015    2       28    15  31    5.9868   641.3    3.464      65.124
2015    2       28    15  36    5.9863   641.4    3.463      65.122
2015    2       28    15  42    5.9855   641.4    3.461      65.120
2015    2       28    15  47    5.9848   641.5    3.459      65.118
2015    2       28    15  52    5.9840   641.6    3.458      65.116
2015    2       28    15  57    5.9832   641.6    3.456      65.114
2015    2       28    16   3    5.9826   641.7    3.455      65.113
2015    2       28    16   8    5.9818   641.7    3.453      65.111
2015    2       28    16  13    5.9809   641.8    3.452      65.111
2015    2       28    16  18    5.9801   641.9    3.450      65.110
2015    2       28    16  24    5.9793   641.9    3.449      65.109
2015    2       28    16  29    5.9784   642.0    3.448      65.109
2015    2       28    16  34    5.9776   642.1    3.446      65.109
2015    2       28    16  39    5.9768   642.1    3.445      65.109
2015    2       28    16  45    5.9758   642.2    3.443      65.109
2015    2       28    16  50    5.9749   642.3    3.442      65.110
2015    2       28    16  55    5.9740   642.3    3.440      65.111
2015    2       28    17   1    5.9730   642.4    3.439      65.112
2015    2       28    17   6    5.9722   642.4    3.438      65.113
2015    2       28    17  11    5.9711   642.5    3.436      65.114
2015    2       28    17  16    5.9703   642.6    3.435      65.115
2015    2       28    17  22    5.9693   642.6    3.433      65.117
2015    2       28    17  27    5.9682   642.7    3.432      65.120
2015    2       28    17  32    5.9672   642.7    3.431      65.123
2015    2       28    17  37    5.9662   642.8    3.429      65.127
2015    2       28    17  43    5.9653   642.9    3.428      65.132
2015    2       28    17  48    5.9642   642.9    3.426      65.138
2015    2       28    17  53    5.9632   643.0    3.425      65.145
2015    2       28    17  58    5.9619   643.1    3.423      65.152
2015    2       28    18   4    5.9610   643.1    3.422      65.159
2015    2       28    18   9    5.9597   643.2    3.420      65.166
2015    2       28    18  14    5.9587   643.3    3.418      65.173
2015    2       28    18  20    5.9576   643.3    3.417      65.180
2015    2       28    18  25    5.9564   643.4    3.415      65.187
2015    2       28    18  30    5.9552   643.5    3.413      65.194
2015    2       28    18  35    5.9538   643.5    3.411      65.199
2015    2       28    18  41    5.9526   643.6    3.410      65.204
2015    2       28    18  46    5.9513   643.6    3.408      65.208
2015    2       28    18  51    5.9500   643.7    3.406      65.212
2015    2       28    18  56    5.9487   643.8    3.404      65.215
2015    2       28    19   2    5.9474   643.8    3.402      65.217
2015    2       28    19   7    5.9461   643.9    3.400      65.218
2015    2       28    19  12    5.9447   643.9    3.398      65.219
2015    2       28    19  17    5.9435   644.0    3.396      65.219
2015    2       28    19  23    5.9420   644.1    3.394      65.218
2015    2       28    19  28    5.9406   644.1    3.392      65.217
2015    2       28    19  33    5.9393   644.2    3.389      65.215
2015    2       28    19  38    5.9378   644.2    3.387      65.213
2015    2       28    19  44    5.9363   644.3    3.385      65.210
2015    2       28    19  49    5.9349   644.4    3.383      65.206
2015    2       28    19  54    5.9335   644.4    3.381      65.201
2015    2       28    20   0    5.9321   644.5    3.379      65.196
2015    2       28    20   5    5.9305   644.5    3.377      65.190
2015    2       28    20  10    5.9290   644.6    3.374      65.184
2015    2       28    20  15    5.9276   644.6    3.372      65.178
2015    2       28    20  21    5.9260   644.7    3.370      65.171
2015    2       28    20  26    5.9246   644.7    3.368      65.163
2015    2       28    20  31    5.9229   644.8    3.366      65.155
2015    2       28    20  36    5.9214   644.8    3.363      65.147
2015    2       28    20  42    5.9200   644.9    3.361      65.138
2015    2       28    20  47    5.9185   644.9    3.359      65.129
2015    2       28    20  52    5.9168   645.0    3.356      65.119
2015    2       28    20  57    5.9153   645.0    3.354      65.109
2015    2       28    21   3    5.9138   645.1    3.352      65.098
2015    2       28    21   8    5.9122   645.1    3.350      65.087
2015    2       28    21  13    5.9105   645.1    3.347      65.076
2015    2       28    21  18    5.9088   645.2    3.345      65.064
2015    2       28    21  24    5.9073   645.2    3.343      65.052
2015    2       28    21  29    5.9057   645.3    3.340      65.040
2015    2       28    21  34    5.9039   645.3    3.338      65.026
2015    2       28    21  40    5.9022   645.4    3.335      65.013
2015    2       28    21  45    5.9005   645.4    3.333      64.999
2015    2       28    21  50    5.8988   645.4    3.331      64.984
2015    2       28    21  55    5.8971   645.5    3.328      64.969
2015    2       28    22   1    5.8954   645.5    3.326      64.954
2015    2       28    22   6    5.8937   645.5    3.323      64.939
2015    2       28    22  11    5.8920   645.6    3.321      64.922
2015    2       28    22  16    5.8903   645.6    3.319      64.906
2015    2       28    22  22    5.8885   645.6    3.316      64.889
2015    2       28    22  27    5.8869   645.7    3.314      64.873
2015    2       28    22  32    5.8850   645.7    3.311      64.856
2015    2       28    22  37    5.8833   645.7    3.309      64.838
2015    2       28    22  43    5.8814   645.8    3.307      64.821
2015    2       28    22  48    5.8797   645.8    3.304      64.803
2015    2       28    22  53    5.8780   645.8    3.302      64.785
2015    2       28    22  59    5.8761   645.8    3.300      64.767
2015    2       28    23   4    5.8744   645.9    3.298      64.749
2015    2       28    23   9    5.8725   645.9    3.295      64.731
2015    2       28    23  14    5.8706   645.9    3.293      64.713
2015    2       28    23  20    5.8688   645.9    3.291      64.695
2015    2       28    23  25    5.8670   646.0    3.289      64.677
2015    2       28    23  30    5.8650   646.0    3.287      64.658
2015    2       28    23  35    5.8632   646.0    3.285      64.640
2015    2       28    23  41    5.8612   646.0    3.282      64.622
2015    2       28    23  46    5.8592   646.0    3.280      64.604
2015    2       28    23  51    5.8574   646.1    3.278      64.586
2015    2       28    23  56    5.8554   646.1    3.276      64.568
2015    3        1     0   2    5.8535   646.1    3.274      64.549
2015    3        1     0   7    5.8515   646.1    3.272      64.531
2015    3        1     0  12    5.8495   646.1    3.270      64.512
2015    3        1     0  17    5.8473   646.1    3.268      64.494
2015    3        1     0  23    5.8454   646.2    3.265      64.475
2015    3        1     0  28    5.8433   646.2    3.263      64.456
2015    3        1     0  33    5.8413   646.2    3.261      64.436
2015    3        1     0  39    5.8393   646.2    3.259      64.417
2015    3        1     0  44    5.8371   646.2    3.257      64.398
2015    3        1     0  49    5.8350   646.2    3.255      64.378
2015    3        1     0  54    5.8329   646.2    3.253      64.359
2015    3        1     1   0    5.8308   646.2    3.251      64.339
2015    3        1     1   5    5.8287   646.2    3.249      64.320
2015    3        1     1  10    5.8266   646.2    3.247      64.300
2015    3        1     1  15    5.8245   646.2    3.245      64.281
2015    3        1     1  21    5.8223   646.3    3.243      64.261
2015    3        1     1  26    5.8202   646.3    3.241      64.242
2015    3        1     1  31    5.8179   646.3    3.239      64.223
2015    3        1     1  36    5.8157   646.3    3.238      64.204
2015    3        1     1  42    5.8135   646.3    3.236      64.185
2015    3        1     1  47    5.8113   646.3    3.234      64.166
2015    3        1     1  52    5.8091   646.3    3.232      64.146
2015    3        1     1  58    5.8069   646.2    3.230      64.127
2015    3        1     2   3    5.8047   646.2    3.228      64.108
2015    3        1     2   8    5.8024   646.2    3.226      64.088
2015    3        1     2  13    5.8002   646.2    3.225      64.068
2015    3        1     2  19    5.7980   646.2    3.223      64.048
2015    3        1     2  24    5.7956   646.2    3.221      64.027
2015    3        1     2  29    5.7933   646.2    3.219      64.006
2015    3        1     2  34    5.7911   646.2    3.217      63.985
2015    3        1     2  40    5.7887   646.1    3.215      63.964
2015    3        1     2  45    5.7864   646.1    3.214      63.942
2015    3        1     2  50    5.7841   646.1    3.212      63.920
2015    3        1     2  55    5.7819   646.1    3.210      63.898
2015    3        1     3   1    5.7796   646.1    3.208      63.875
2015    3        1     3   6    5.7773   646.0    3.206      63.852
2015    3        1     3  11    5.7750   646.0    3.205      63.829
2015    3        1     3  16    5.7727   646.0    3.203      63.806
2015    3        1     3  22    5.7703   645.9    3.201      63.782
2015    3        1     3  27    5.7680   645.9    3.199      63.758
2015    3        1     3  32    5.7658   645.9    3.198      63.734
2015    3        1     3  38    5.7635   645.9    3.196      63.710
2015    3        1     3  43    5.7612   645.8    3.194      63.686
2015    3        1     3  48    5.7589   645.8    3.192      63.662
2015    3        1     3  53    5.7568   645.8    3.191      63.638
2015    3        1     3  59    5.7544   645.7    3.189      63.615
2015    3        1     4   4    5.7522   645.7    3.187      63.591
2015    3        1     4   9    5.7500   645.7    3.186      63.567
2015    3        1     4  14    5.7477   645.6    3.184      63.544
2015    3        1     4  20    5.7455   645.6    3.182      63.520
2015    3        1     4  25    5.7432   645.6    3.180      63.496
2015    3        1     4  30    5.7410   645.5    3.179      63.472
2015    3        1     4  35    5.7387   645.5    3.177      63.447
2015    3        1     4  41    5.7365   645.5    3.175      63.422
2015    3        1     4  46    5.7343   645.4    3.173      63.398
2015    3        1     4  51    5.7320   645.4    3.171      63.372
2015    3        1     4  56    5.7297   645.4    3.169      63.347
2015    3        1     5   2    5.7275   645.3    3.167      63.321
2015    3        1     5   7    5.7252   645.3    3.165      63.294
2015    3        1     5  12    5.7228   645.3    3.163      63.268
2015    3        1     5  18    5.7206   645.3    3.161      63.241
2015    3        1     5  23    5.7183   645.2    3.159      63.214
2015    3        1     5  28    5.7159   645.2    3.157      63.186
2015    3        1     5  33    5.7137   645.2    3.155      63.158
2015    3        1     5  39    5.7113   645.1    3.153      63.130
2015    3        1     5  44    5.7090   645.1    3.151      63.102
2015    3        1     5  49    5.7067   645.1    3.149      63.074
2015    3        1     5  54    5.7044   645.0    3.147      63.045
2015    3        1     6   0    5.7020   645.0    3.145      63.016
2015    3        1     6   5    5.6997   644.9    3.143      62.987
2015    3        1     6  10    5.6973   644.9    3.141      62.958
2015    3        1     6  15    5.6950   644.9    3.139      62.929
2015    3        1     6  21    5.6926   644.8    3.137      62.900
2015    3        1     6  26    5.6903   644.8    3.135      62.871
2015    3        1     6  31    5.6879   644.8    3.133      62.841
2015    3        1     6  37    5.6855   644.7    3.131      62.812
2015    3        1     6  42    5.6832   644.7    3.129      62.783
2015    3        1     6  47    5.6808   644.6    3.127      62.753
2015    3        1     6  52    5.6785   644.6    3.126      62.724
2015    3        1     6  58    5.6760   644.6    3.124      62.695
2015    3        1     7   3    5.6737   644.5    3.122      62.666
2015    3        1     7   8    5.6713   644.5    3.120      62.637
2015    3        1     7  13    5.6689   644.4    3.118      62.608
2015    3        1     7  19    5.6665   644.4    3.117      62.580
2015    3        1     7  24    5.6641   644.3    3.115      62.551
2015    3        1     7  29    5.6617   644.3    3.113      62.523
2015    3        1     7  34    5.6593   644.3    3.112      62.495
2015    3        1     7  40    5.6568   644.2    3.110      62.468
2015    3        1     7  45    5.6544   644.2    3.109      62.440
2015    3        1     7  50    5.6520   644.1    3.107      62.413
2015    3        1     7  55    5.6496   644.1    3.106      62.387
2015    3        1     8   1    5.6471   644.0    3.105      62.361
2015    3        1     8   6    5.6447   644.0    3.103      62.335
2015    3        1     8  11    5.6422   643.9    3.102      62.309
2015    3        1     8  17    5.6397   643.9    3.101      62.283
2015    3        1     8  22    5.6373   643.8    3.100      62.258
2015    3        1     8  27    5.6348   643.8    3.099      62.234
2015    3        1     8  32    5.6323   643.7    3.098      62.209
2015    3        1     8  38    5.6299   643.6    3.097      62.185
2015    3        1     8  43    5.6274   643.6    3.096      62.160
2015    3        1     8  48    5.6249   643.5    3.095      62.136
2015    3        1     8  53    5.6224   643.5    3.094      62.112
2015    3        1     8  59    5.6199   643.4    3.093      62.089
2015    3        1     9   4    5.6174   643.4    3.093      62.065
2015    3        1     9   9    5.6148   643.3    3.092      62.041
2015    3        1     9  14    5.6123   643.2    3.091      62.018
2015    3        1     9  20    5.6098   643.2    3.090      61.994
2015    3        1     9  25    5.6072   643.1    3.090      61.970
2015    3        1     9  30    5.6046   643.1    3.089      61.945
2015    3        1     9  36    5.6021   643.0    3.088      61.920
2015    3        1     9  41    5.5995   642.9    3.088      61.895
2015    3        1     9  46    5.5969   642.9    3.087      61.869
2015    3        1     9  51    5.5943   642.8    3.086      61.842
2015    3        1     9  57    5.5917   642.7    3.085      61.815
2015    3        1    10   2    5.5891   642.6    3.085      61.787
2015    3        1    10   7    5.5865   642.6    3.084      61.758
2015    3        1    10  12    5.5839   642.5    3.083      61.729
2015    3        1    10  18    5.5812   642.4    3.082      61.699
2015    3        1    10  23    5.5786   642.3    3.082      61.669
2015    3        1    10  28    5.5760   642.3    3.081      61.638
2015    3        1    10  33    5.5734   642.2    3.080      61.606
2015    3        1    10  39    5.5708   642.1    3.079      61.574
2015    3        1    10  44    5.5682   642.0    3.078      61.542
2015    3        1    10  49    5.5656   641.9    3.078      61.509
2015    3        1    10  54    5.5630   641.8    3.077      61.476
2015    3        1    11   0    5.5604   641.7    3.076      61.444
2015    3        1    11   5    5.5578   641.7    3.075      61.411
2015    3        1    11  10    5.5552   641.6    3.074      61.378
2015    3        1    11  16    5.5526   641.5    3.073      61.346
2015    3        1    11  21    5.5501   641.4    3.073      61.313
2015    3        1    11  26    5.5475   641.3    3.072      61.280
2015    3        1    11  31    5.5450   641.2    3.071      61.247
2015    3        1    11  37    5.5424   641.1    3.070      61.213
2015    3        1    11  42    5.5399   641.0    3.069      61.179
2015    3        1    11  47    5.5373   641.0    3.068      61.145
2015    3        1    11  52    5.5348   640.9    3.067      61.111
2015    3        1    11  58    5.5323   640.8    3.066      61.075
2015    3        1    12   3    5.5297   640.7    3.064      61.040
2015    3        1    12   8    5.5272   640.6    3.063      61.004
2015    3        1    12  13    5.5246   640.5    3.062      60.968
2015    3        1    12  19    5.5221   640.4    3.061      60.931
2015    3        1    12  24    5.5196   640.3    3.060      60.893
2015    3        1    12  29    5.5170   640.2    3.058      60.855
2015    3        1    12  34    5.5145   640.1    3.057      60.817
2015    3        1    12  40    5.5119   640.1    3.056      60.779
2015    3        1    12  45    5.5094   640.0    3.054      60.740
2015    3        1    12  50    5.5069   639.9    3.053      60.701
2015    3        1    12  56    5.5043   639.8    3.052      60.662
2015    3        1    13   1    5.5018   639.7    3.050      60.623
2015    3        1    13   6    5.4992   639.6    3.049      60.584
2015    3        1    13  11    5.4967   639.5    3.047      60.544
2015    3        1    13  17    5.4942   639.4    3.046      60.505
2015    3        1    13  22    5.4916   639.3    3.045      60.466
2015    3        1    13  27    5.4891   639.2    3.043      60.427
2015    3        1    13  32    5.4866   639.1    3.042      60.388
2015    3        1    13  38    5.4840   639.0    3.041      60.349
2015    3        1    13  43    5.4815   638.9    3.039      60.311
2015    3        1    13  48    5.4790   638.8    3.038      60.273
2015    3        1    13  53    5.4765   638.7    3.036      60.234
2015    3        1    13  59    5.4740   638.6    3.035      60.197
2015    3        1    14   4    5.4714   638.5    3.034      60.159
2015    3        1    14   9    5.4689   638.4    3.033      60.122
2015    3        1    14  15    5.4664   638.3    3.031      60.086
2015    3        1    14  20    5.4639   638.2    3.030      60.049
2015    3        1    14  25    5.4614   638.2    3.029      60.013
2015    3        1    14  30    5.4588   638.1    3.028      59.978
2015    3        1    14  36    5.4563   638.0    3.026      59.943
2015    3        1    14  41    5.4538   637.9    3.025      59.909
2015    3        1    14  46    5.4513   637.8    3.024      59.875
2015    3        1    14  51    5.4487   637.7    3.023      59.841
2015    3        1    14  57    5.4462   637.6    3.022      59.809
2015    3        1    15   2    5.4436   637.5    3.021      59.776
2015    3        1    15   7    5.4411   637.4    3.020      59.745
2015    3        1    15  12    5.4385   637.3    3.019      59.713
2015    3        1    15  18    5.4360   637.2    3.018      59.683
2015    3        1    15  23    5.4334   637.1    3.017      59.653
2015    3        1    15  28    5.4308   637.0    3.017      59.623
2015    3        1    15  33    5.4282   636.9    3.016      59.595
2015    3        1    15  39    5.4257   636.8    3.015      59.566
2015    3        1    15  44    5.4230   636.7    3.015      59.538
2015    3        1    15  49    5.4205   636.6    3.014      59.511
2015    3        1    15  55    5.4178   636.5    3.013      59.484
2015    3        1    16   0    5.4153   636.4    3.013      59.457
2015    3        1    16   5    5.4126   636.3    3.012      59.431
2015    3        1    16  10    5.4100   636.2    3.012      59.405
2015    3        1    16  16    5.4073   636.1    3.011      59.379
2015    3        1    16  21    5.4046   636.0    3.011      59.353
2015    3        1    16  26    5.4020   635.9    3.010      59.328
2015    3        1    16  31    5.3993   635.8    3.010      59.303
2015    3        1    16  37    5.3966   635.7    3.010      59.278
2015    3        1    16  42    5.3938   635.6    3.009      59.252
2015    3        1    16  47    5.3911   635.5    3.009      59.227
2015    3        1    16  52    5.3884   635.4    3.009      59.201
2015    3        1    16  58    5.3857   635.3    3.009      59.175
2015    3        1    17   3    5.3829   635.2    3.008      59.148
2015    3        1    17   8    5.3801   635.1    3.008      59.121
2015    3        1    17  13    5.3774   635.0    3.008      59.093
2015    3        1    17  19    5.3746   634.9    3.007      59.065
2015    3        1    17  24    5.3718   634.8    3.007      59.037
2015    3        1    17  29    5.3690   634.7    3.007      59.007
2015    3        1    17  35    5.3662   634.6    3.006      58.978
2015    3        1    17  40    5.3634   634.5    3.006      58.947
2015    3        1    17  45    5.3606   634.3    3.006      58.916
2015    3        1    17  50    5.3578   634.2    3.006      58.885
2015    3        1    17  56    5.3551   634.1    3.005      58.853
2015    3        1    18   1    5.3522   634.0    3.005      58.820
2015    3        1    18   6    5.3495   633.9    3.005      58.787
2015    3        1    18  11    5.3467   633.8    3.004      58.754
2015    3        1    18  17    5.3438   633.6    3.004      58.720
2015    3        1    18  22    5.3411   633.5    3.004      58.686
2015    3        1    18  27    5.3383   633.4    3.003      58.651
2015    3        1    18  32    5.3355   633.3    3.003      58.616
2015    3        1    18  38    5.3327   633.1    3.003      58.581
2015    3        1    18  43    5.3300   633.0    3.003      58.545
2015    3        1    18  48    5.3272   632.9    3.002      58.509
2015    3        1    18  54    5.3244   632.8    3.002      58.472
2015    3        1    18  59    5.3216   632.6    3.002      58.435
2015    3        1    19   4    5.3189   632.5    3.002      58.397
2015    3        1    19   9    5.3162   632.4    3.002      58.360
2015    3        1    19  15    5.3134   632.2    3.001      58.322
2015    3        1    19  20    5.3107   632.1    3.001      58.283
2015    3        1    19  25    5.3080   632.0    3.001      58.245
2015    3        1    19  30    5.3052   631.8    3.001      58.206
2015    3        1    19  36    5.3025   631.7    3.001      58.167
2015    3        1    19  41    5.2999   631.6    3.001      58.127
2015    3        1    19  46    5.2972   631.4    3.001      58.088
2015    3        1    19  51    5.2945   631.3    3.001      58.049
2015    3        1    19  57    5.2918   631.2    3.001      58.009
2015    3        1    20   2    5.2892   631.0    3.001      57.969
2015    3        1    20   7    5.2865   630.9    3.001      57.929
2015    3        1    20  12    5.2839   630.8    3.000      57.889
2015    3        1    20  18    5.2813   630.6    3.000      57.849
2015    3        1    20  23    5.2786   630.5    3.000      57.808
2015    3        1    20  28    5.2760   630.3    3.000      57.767
2015    3        1    20  34    5.2734   630.2    3.000      57.725
2015    3        1    20  39    5.2708   630.1    2.999      57.684
2015    3        1    20  44    5.2682   629.9    2.999      57.642
2015    3        1    20  49    5.2656   629.8    2.999      57.599
2015    3        1    20  55    5.2630   629.6    2.998      57.556
2015    3        1    21   0    5.2604   629.5    2.998      57.512
2015    3        1    21   5    5.2578   629.3    2.998      57.468
2015    3        1    21  10    5.2552   629.2    2.997      57.424
2015    3        1    21  16    5.2527   629.0    2.996      57.379
2015    3        1    21  21    5.2501   628.9    2.996      57.334
2015    3        1    21  26    5.2475   628.8    2.995      57.288
2015    3        1    21  31    5.2449   628.6    2.995      57.242
2015    3        1    21  37    5.2423   628.5    2.994      57.196
2015    3        1    21  42    5.2397   628.3    2.993      57.150
2015    3        1    21  47    5.2372   628.2    2.992      57.103
2015    3        1    21  53    5.2347   628.0    2.992      57.056
2015    3        1    21  58    5.2321   627.9    2.991      57.008
2015    3        1    22   3    5.2295   627.7    2.990      56.961
2015    3        1    22   8    5.2270   627.6    2.989      56.913
2015    3        1    22  14    5.2244   627.4    2.988      56.865
2015    3        1    22  19    5.2219   627.3    2.988      56.817
2015    3        1    22  24    5.2193   627.1    2.987      56.769
2015    3        1    22  29    5.2168   627.0    2.986      56.721
2015    3        1    22  35    5.2142   626.8    2.985      56.672
2015    3        1    22  40    5.2117   626.7    2.984      56.624
2015    3        1    22  45    5.2092   626.5    2.983      56.576
2015    3        1    22  50    5.2066   626.4    2.982      56.528
2015    3        1    22  56    5.2040   626.2    2.981      56.479
2015    3        1    23   1    5.2016   626.0    2.980      56.431
2015    3        1    23   6    5.1990   625.9    2.980      56.383
2015    3        1    23  11    5.1964   625.7    2.979      56.335
2015    3        1    23  17    5.1940   625.6    2.978      56.287
2015    3        1    23  22    5.1914   625.4    2.977      56.239
2015    3        1    23  27    5.1888   625.3    2.976      56.191
2015    3        1    23  33    5.1863   625.1    2.975      56.143
2015    3        1    23  38    5.1838   625.0    2.974      56.096
2015    3        1    23  43    5.1812   624.8    2.974      56.048
2015    3        1    23  48    5.1787   624.6    2.973      56.000
2015    3        1    23  54    5.1761   624.5    2.972      55.953
2015    3        1    23  59    5.1735   624.3    2.971      55.905
2015    3        2     0   4    5.1709   624.2    2.970      55.858
2015    3        2     0   9    5.1684   624.0    2.970      55.811
2015    3        2     0  15    5.1658   623.8    2.969      55.763
2015    3        2     0  20    5.1631   623.7    2.968      55.716
2015    3        2     0  25    5.1605   623.5    2.968      55.669
2015    3        2     0  30    5.1579   623.4    2.967      55.622
2015    3        2     0  36    5.1553   623.2    2.966      55.575
2015    3        2     0  41    5.1526   623.0    2.966      55.528
2015    3        2     0  46    5.1500   622.9    2.965      55.481
2015    3        2     0  51    5.1473   622.7    2.964      55.434
2015    3        2     0  57    5.1447   622.6    2.964      55.386
2015    3        2     1   2    5.1420   622.4    2.963      55.339
2015    3        2     1   7    5.1394   622.2    2.963      55.292
2015    3        2     1  13    5.1367   622.1    2.962      55.245
2015    3        2     1  18    5.1340   621.9    2.961      55.197
2015    3        2     1  23    5.1313   621.7    2.961      55.150
2015    3        2     1  28    5.1286   621.6    2.960      55.103
2015    3        2     1  34    5.1259   621.4    2.960      55.055
2015    3        2     1  39    5.1232   621.2    2.960      55.008
2015    3        2     1  44    5.1205   621.1    2.959      54.960
2015    3        2     1  49    5.1178   620.9    2.959      54.913
2015    3        2     1  55    5.1151   620.7    2.958      54.865
2015    3        2     2   0    5.1124   620.5    2.958      54.818
2015    3        2     2   5    5.1097   620.4    2.958      54.770
2015    3        2     2  10    5.1070   620.2    2.958      54.723
2015    3        2     2  16    5.1043   620.0    2.957      54.675
2015    3        2     2  21    5.1015   619.8    2.957      54.628
2015    3        2     2  26    5.0988   619.7    2.957      54.581
2015    3        2     2  32    5.0961   619.5    2.957      54.534
2015    3        2     2  37    5.0934   619.3    2.957      54.487
2015    3        2     2  42    5.0907   619.1    2.957      54.440
2015    3        2     2  47    5.0880   618.9    2.957      54.393
2015    3        2     2  53    5.0853   618.8    2.957      54.347
2015    3        2     2  58    5.0826   618.6    2.958      54.301
2015    3        2     3   3    5.0799   618.4    2.958      54.255
2015    3        2     3   8    5.0772   618.2    2.958      54.210
2015    3        2     3  14    5.0746   618.0    2.959      54.164
2015    3        2     3  19    5.0719   617.8    2.959      54.120
2015    3        2     3  24    5.0692   617.7    2.959      54.075
2015    3        2     3  29    5.0666   617.5    2.960      54.031
2015    3        2     3  35    5.0639   617.3    2.961      53.987
2015    3        2     3  40    5.0613   617.1    2.961      53.943
2015    3        2     3  45    5.0587   616.9    2.962      53.899
2015    3        2     3  50    5.0560   616.7    2.962      53.855
2015    3        2     3  56    5.0534   616.5    2.963      53.810
2015    3        2     4   1    5.0508   616.3    2.964      53.766
2015    3        2     4   6    5.0482   616.1    2.964      53.721
2015    3        2     4  12    5.0456   615.9    2.965      53.677
2015    3        2     4  17    5.0430   615.8    2.966      53.631
2015    3        2     4  22    5.0404   615.6    2.966      53.586
2015    3        2     4  27    5.0378   615.4    2.967      53.540
2015    3        2     4  33    5.0353   615.2    2.967      53.493
2015    3        2     4  38    5.0327   615.0    2.968      53.446
2015    3        2     4  43    5.0301   614.8    2.968      53.399
2015    3        2     4  48    5.0276   614.6    2.969      53.351
2015    3        2     4  54    5.0250   614.4    2.969      53.302
2015    3        2     4  59    5.0225   614.2    2.970      53.252
2015    3        2     5   4    5.0199   614.0    2.970      53.203
2015    3        2     5   9    5.0174   613.8    2.971      53.152
2015    3        2     5  15    5.0149   613.6    2.971      53.101
2015    3        2     5  20    5.0123   613.4    2.971      53.049
2015    3        2     5  25    5.0098   613.2    2.972      52.996
2015    3        2     5  31    5.0073   612.9    2.972      52.943
2015    3        2     5  36    5.0047   612.7    2.972      52.889
2015    3        2     5  41    5.0022   612.5    2.972      52.834
2015    3        2     5  46    4.9997   612.3    2.973      52.779
2015    3        2     5  52    4.9973   612.1    2.973      52.724
2015    3        2     5  57    4.9948   611.9    2.973      52.667
2015    3        2     6   2    4.9923   611.7    2.973      52.610
2015    3        2     6   7    4.9898   611.5    2.973      52.553
2015    3        2     6  13    4.9873   611.3    2.973      52.495
2015    3        2     6  18    4.9849   611.1    2.973      52.436
2015    3        2     6  23    4.9824   610.9    2.973      52.377
2015    3        2     6  28    4.9800   610.7    2.973      52.318
2015    3        2     6  34    4.9775   610.5    2.972      52.258
2015    3        2     6  39    4.9751   610.2    2.972      52.197
2015    3        2     6  44    4.9726   610.0    2.972      52.137
2015    3        2     6  49    4.9702   609.8    2.972      52.075
2015    3        2     6  55    4.9677   609.6    2.972      52.014
2015    3        2     7   0    4.9652   609.4    2.971      51.952
2015    3        2     7   5    4.9628   609.2    2.971      51.889
2015    3        2     7  11    4.9604   609.0    2.971      51.827
2015    3        2     7  16    4.9579   608.8    2.971      51.764
2015    3        2     7  21    4.9554   608.6    2.970      51.700
2015    3        2     7  26    4.9531   608.3    2.970      51.637
2015    3        2     7  32    4.9505   608.1    2.970      51.573
2015    3        2     7  37    4.9481   607.9    2.969      51.508
2015    3        2     7  42    4.9456   607.7    2.969      51.444
2015    3        2     7  47    4.9432   607.5    2.968      51.379
2015    3        2     7  53    4.9407   607.3    2.968      51.315
2015    3        2     7  58    4.9383   607.1    2.968      51.249
2015    3        2     8   3    4.9359   606.9    2.967      51.184
2015    3        2     8   8    4.9334   606.6    2.967      51.118
2015    3        2     8  14    4.9310   606.4    2.966      51.053
2015    3        2     8  19    4.9285   606.2    2.966      50.986
2015    3        2     8  24    4.9260   606.0    2.965      50.920
2015    3        2     8  30    4.9236   605.8    2.965      50.854
2015    3        2     8  35    4.9211   605.6    2.964      50.787
2015    3        2     8  40    4.9187   605.3    2.964      50.721
2015    3        2     8  45    4.9162   605.1    2.963      50.654
2015    3        2     8  51    4.9138   604.9    2.963      50.587
2015    3        2     8  56    4.9113   604.7    2.963      50.520
2015    3        2     9   1    4.9089   604.5    2.962      50.453
2015    3        2     9   6    4.9064   604.3    2.962      50.385
2015    3        2     9  12    4.9040   604.0    2.961      50.318
2015    3        2     9  17    4.9016   603.8    2.961      50.251
2015    3        2     9  22    4.8991   603.6    2.960      50.184
2015    3        2     9  27    4.8967   603.4    2.960      50.117
2015    3        2     9  33    4.8943   603.1    2.959      50.050
2015    3        2     9  38    4.8919   602.9    2.959      49.983
2015    3        2     9  43    4.8894   602.7    2.958      49.916
2015    3        2     9  48    4.8870   602.5    2.958      49.850
2015    3        2     9  54    4.8845   602.2    2.958      49.784
2015    3        2     9  59    4.8822   602.0    2.957      49.718
2015    3        2    10   4    4.8797   601.8    2.957      49.652
2015    3        2    10  10    4.8774   601.6    2.957      49.587
2015    3        2    10  15    4.8749   601.3    2.957      49.521
2015    3        2    10  20    4.8726   601.1    2.956      49.457
2015    3        2    10  25    4.8702   600.9    2.956      49.392
2015    3        2    10  31    4.8678   600.6    2.956      49.328
2015    3        2    10  36    4.8655   600.4    2.956      49.265
2015    3        2    10  41    4.8630   600.2    2.956      49.202
2015    3        2    10  46    4.8607   599.9    2.956      49.139
2015    3        2    10  52    4.8584   599.7    2.956      49.077
2015    3        2    10  57    4.8560   599.4    2.956      49.015
2015    3        2    11   2    4.8537   599.2    2.956      48.953
2015    3        2    11   7    4.8514   599.0    2.956      48.892
2015    3        2    11  13    4.8491   598.7    2.957      48.832
2015    3        2    11  18    4.8467   598.5    2.957      48.772
2015    3        2    11  23    4.8444   598.2    2.957      48.712
2015    3        2    11  28    4.8421   598.0    2.958      48.654
2015    3        2    11  34    4.8399   597.7    2.958      48.595
2015    3        2    11  39    4.8375   597.5    2.959      48.537
2015    3        2    11  44    4.8353   597.2    2.959      48.479
2015    3        2    11  50    4.8330   597.0    2.960      48.422
2015    3        2    11  55    4.8308   596.7    2.961      48.365
2015    3        2    12   0    4.8285   596.5    2.962      48.308
2015    3        2    12   5    4.8263   596.2    2.962      48.252
2015    3        2    12  11    4.8241   596.0    2.963      48.195
2015    3        2    12  16    4.8219   595.7    2.964      48.139
2015    3        2    12  21    4.8196   595.5    2.965      48.083
2015    3        2    12  26    4.8174   595.2    2.966      48.027
2015    3        2    12  32    4.8152   594.9    2.967      47.971
2015    3        2    12  37    4.8131   594.7    2.968      47.915
2015    3        2    12  42    4.8109   594.4    2.969      47.859
2015    3        2    12  47    4.8087   594.2    2.970      47.803
2015    3        2    12  53    4.8065   593.9    2.971      47.747
2015    3        2    12  58    4.8044   593.6    2.972      47.691
2015    3        2    13   3    4.8022   593.4    2.974      47.634
2015    3        2    13   9    4.8001   593.1    2.975      47.578
2015    3        2    13  14    4.7980   592.8    2.976      47.521
2015    3        2    13  19    4.7958   592.6    2.977      47.464
2015    3        2    13  24    4.7937   592.3    2.978      47.407
2015    3        2    13  30    4.7916   592.0    2.979      47.349
2015    3        2    13  35    4.7895   591.8    2.981      47.292
2015    3        2    13  40    4.7874   591.5    2.982      47.234
2015    3        2    13  45    4.7853   591.2    2.983      47.176
2015    3        2    13  51    4.7832   591.0    2.984      47.118
2015    3        2    13  56    4.7812   590.7    2.985      47.059
2015    3        2    14   1    4.7790   590.4    2.986      47.000
2015    3        2    14   6    4.7770   590.2    2.987      46.941
2015    3        2    14  12    4.7748   589.9    2.988      46.881
2015    3        2    14  17    4.7728   589.6    2.990      46.821
2015    3        2    14  22    4.7707   589.4    2.991      46.760
2015    3        2    14  27    4.7686   589.1    2.991      46.699
2015    3        2    14  33    4.7665   588.8    2.992      46.638
2015    3        2    14  38    4.7645   588.6    2.993      46.576
2015    3        2    14  43    4.7623   588.3    2.994      46.514
2015    3        2    14  49    4.7603   588.0    2.995      46.451
2015    3        2    14  54    4.7582   587.7    2.996      46.389
2015    3        2    14  59    4.7562   587.5    2.997      46.326
2015    3        2    15   4    4.7541   587.2    2.997      46.262
2015    3        2    15  10    4.7520   586.9    2.998      46.199
2015    3        2    15  15    4.7500   586.6    2.999      46.135
2015    3        2    15  20    4.7480   586.4    3.000      46.072
2015    3        2    15  25    4.7459   586.1    3.000      46.008
2015    3        2    15  31    4.7439   585.8    3.001      45.943
2015    3        2    15  36    4.7419   585.5    3.002      45.879
2015    3        2    15  41    4.7398   585.2    3.002      45.815
2015    3        2    15  46    4.7378   585.0    3.003      45.750
2015    3        2    15  52    4.7358   584.7    3.003      45.685
2015    3        2    15  57    4.7339   584.4    3.004      45.620
2015    3        2    16   2    4.7319   584.1    3.004      45.555
2015    3        2    16   8    4.7299   583.9    3.005      45.490
2015    3        2    16  13    4.7279   583.6    3.006      45.425
2015    3        2    16  18    4.7260   583.3    3.006      45.360
2015    3        2    16  23    4.7240   583.0    3.007      45.295
2015    3        2    16  29    4.7221   582.7    3.007      45.230
2015    3        2    16  34    4.7201   582.4    3.008      45.165
2015    3        2    16  39    4.7182   582.1    3.008      45.100
2015    3        2    16  44    4.7163   581.9    3.009      45.035
2015    3        2    16  50    4.7143   581.6    3.009      44.970
2015    3        2    16  55    4.7125   581.3    3.010      44.906
2015    3        2    17   0    4.7106   581.0    3.011      44.841
2015    3        2    17   5    4.7087   580.7    3.011      44.777
2015    3        2    17  11    4.7068   580.4    3.012      44.713
2015    3        2    17  16    4.7050   580.1    3.013      44.649
2015    3        2    17  21    4.7032   579.8    3.013      44.586
2015    3        2    17  26    4.7013   579.5    3.014      44.523
2015    3        2    17  32    4.6994   579.3    3.015      44.459
2015    3        2    17  37    4.6977   579.0    3.015      44.397
2015    3        2    17  42    4.6958   578.7    3.016      44.334
2015    3        2    17  48    4.6941   578.4    3.017      44.272
2015    3        2    17  53    4.6922   578.1    3.018      44.210
2015    3        2    17  58    4.6904   577.8    3.019      44.148
2015    3        2    18   3    4.6887   577.5    3.019      44.086
2015    3        2    18   9    4.6870   577.2    3.020      44.025
2015    3        2    18  14    4.6851   576.9    3.021      43.964
2015    3        2    18  19    4.6834   576.6    3.022      43.903
2015    3        2    18  24    4.6816   576.3    3.023      43.843
2015    3        2    18  30    4.6799   576.0    3.024      43.782
2015    3        2    18  35    4.6781   575.7    3.025      43.722
2015    3        2    18  40    4.6764   575.4    3.026      43.663
2015    3        2    18  45    4.6747   575.1    3.028      43.603
2015    3        2    18  51    4.6730   574.8    3.029      43.544
2015    3        2    18  56    4.6712   574.5    3.030      43.484
2015    3        2    19   1    4.6696   574.2    3.031      43.425
2015    3        2    19   7    4.6678   573.9    3.032      43.366
2015    3        2    19  12    4.6662   573.6    3.034      43.307
2015    3        2    19  17    4.6645   573.2    3.035      43.248
2015    3        2    19  22    4.6628   572.9    3.036      43.189
2015    3        2    19  28    4.6611   572.6    3.037      43.130
2015    3        2    19  33    4.6594   572.3    3.039      43.071
2015    3        2    19  38    4.6578   572.0    3.040      43.012
2015    3        2    19  43    4.6561   571.7    3.042      42.954
2015    3        2    19  49    4.6544   571.4    3.043      42.895
2015    3        2    19  54    4.6528   571.0    3.045      42.837
2015    3        2    19  59    4.6511   570.7    3.046      42.778
2015    3        2    20   4    4.6495   570.4    3.048      42.720
2015    3        2    20  10    4.6479   570.1    3.049      42.662
2015    3        2    20  15    4.6463   569.8    3.051      42.604
2015    3        2    20  20    4.6447   569.4    3.052      42.546
2015    3        2    20  25    4.6431   569.1    3.054      42.488
2015    3        2    20  31    4.6415   568.8    3.056      42.431
2015    3        2    20  36    4.6400   568.5    3.058      42.373
2015    3        2    20  41    4.6385   568.1    3.059      42.316
2015    3        2    20  47    4.6370   567.8    3.061      42.258
2015    3        2    20  52    4.6354   567.5    3.063      42.201
2015    3        2    20  57    4.6340   567.2    3.065      42.144
2015    3        2    21   2    4.6324   566.8    3.067      42.087
2015    3        2    21   8    4.6310   566.5    3.069      42.030
2015    3        2    21  13    4.6295   566.2    3.071      41.974
2015    3        2    21  18    4.6281   565.8    3.073      41.917
2015    3        2    21  23    4.6267   565.5    3.075      41.860
2015    3        2    21  29    4.6253   565.2    3.077      41.803
2015    3        2    21  34    4.6240   564.8    3.079      41.746
2015    3        2    21  39    4.6226   564.5    3.081      41.690
2015    3        2    21  44    4.6212   564.2    3.083      41.633
2015    3        2    21  50    4.6199   563.8    3.085      41.577
2015    3        2    21  55    4.6186   563.5    3.087      41.520
2015    3        2    22   0    4.6173   563.2    3.089      41.464
2015    3        2    22   5    4.6160   562.8    3.091      41.408
2015    3        2    22  11    4.6147   562.5    3.093      41.352
2015    3        2    22  16    4.6135   562.1    3.096      41.296
2015    3        2    22  21    4.6123   561.8    3.098      41.240
2015    3        2    22  27    4.6110   561.4    3.100      41.185
2015    3        2    22  32    4.6099   561.1    3.102      41.130
2015    3        2    22  37    4.6087   560.7    3.105      41.075
2015    3        2    22  42    4.6076   560.4    3.107      41.020
2015    3        2    22  48    4.6064   560.1    3.109      40.966
2015    3        2    22  53    4.6053   559.7    3.112      40.912
2015    3        2    22  58    4.6042   559.4    3.114      40.858
2015    3        2    23   3    4.6031   559.0    3.117      40.804
2015    3        2    23   9    4.6021   558.7    3.119      40.751
2015    3        2    23  14    4.6010   558.3    3.122      40.698
2015    3        2    23  19    4.5999   558.0    3.124      40.646
2015    3        2    23  24    4.5989   557.6    3.127      40.593
2015    3        2    23  30    4.5979   557.3    3.129      40.541
2015    3        2    23  35    4.5969   556.9    3.132      40.490
2015    3        2    23  40    4.5959   556.6    3.134      40.438
2015    3        2    23  46    4.5949   556.2    3.137      40.387
2015    3        2    23  51    4.5939   555.9    3.139      40.337
2015    3        2    23  56    4.5930   555.5    3.142      40.286
2015    3        3     0   1    4.5920   555.2    3.145      40.236
