year    month   day   hour  minute  B_enl V_enl   n_enl       T_enl
[year] [month] [day] [hour][minute] [nT]  [km/s]  [cm-3]      [kK]
2015    2       28     0   4    5.1815   657.4    2.834      61.572
2015    2       28     0  10    5.1795   657.3    2.834      61.539
2015    2       28     0  15    5.1774   657.2    2.833      61.507
2015    2       28     0  20    5.1754   657.1    2.832      61.474
2015    2       28     0  25    5.1733   657.0    2.832      61.442
2015    2       28     0  30    5.1713   656.9    2.831      61.409
2015    2       28     0  36    5.1692   656.8    2.830      61.377
2015    2       28     0  41    5.1671   656.7    2.830      61.345
2015    2       28     0  46    5.1651   656.6    2.829      61.313
2015    2       28     0  51    5.1631   656.5    2.828      61.282
2015    2       28     0  57    5.1610   656.4    2.828      61.250
2015    2       28     1   2    5.1590   656.3    2.827      61.219
2015    2       28     1   7    5.1570   656.1    2.827      61.187
2015    2       28     1  12    5.1550   656.0    2.826      61.156
2015    2       28     1  17    5.1529   655.9    2.825      61.125
2015    2       28     1  23    5.1509   655.8    2.825      61.094
2015    2       28     1  28    5.1489   655.7    2.824      61.063
2015    2       28     1  33    5.1468   655.6    2.824      61.032
2015    2       28     1  38    5.1448   655.5    2.823      61.002
2015    2       28     1  43    5.1428   655.4    2.823      60.971
2015    2       28     1  49    5.1408   655.3    2.822      60.941
2015    2       28     1  54    5.1388   655.1    2.822      60.911
2015    2       28     1  59    5.1368   655.0    2.821      60.881
2015    2       28     2   4    5.1348   654.9    2.821      60.851
2015    2       28     2   9    5.1328   654.8    2.820      60.822
2015    2       28     2  15    5.1308   654.7    2.820      60.792
2015    2       28     2  20    5.1288   654.6    2.820      60.763
2015    2       28     2  25    5.1268   654.5    2.819      60.733
2015    2       28     2  30    5.1248   654.3    2.819      60.704
2015    2       28     2  36    5.1228   654.2    2.818      60.675
2015    2       28     2  41    5.1208   654.1    2.818      60.647
2015    2       28     2  46    5.1188   654.0    2.818      60.618
2015    2       28     2  51    5.1168   653.9    2.818      60.590
2015    2       28     2  56    5.1148   653.8    2.817      60.561
2015    2       28     3   2    5.1128   653.7    2.817      60.533
2015    2       28     3   7    5.1107   653.5    2.817      60.505
2015    2       28     3  12    5.1087   653.4    2.817      60.477
2015    2       28     3  17    5.1067   653.3    2.817      60.448
2015    2       28     3  22    5.1047   653.2    2.817      60.420
2015    2       28     3  28    5.1026   653.1    2.816      60.392
2015    2       28     3  33    5.1005   653.0    2.816      60.364
2015    2       28     3  38    5.0985   652.9    2.816      60.336
2015    2       28     3  43    5.0964   652.7    2.816      60.308
2015    2       28     3  48    5.0943   652.6    2.816      60.280
2015    2       28     3  54    5.0922   652.5    2.816      60.252
2015    2       28     3  59    5.0901   652.4    2.816      60.224
2015    2       28     4   4    5.0880   652.3    2.816      60.195
2015    2       28     4   9    5.0859   652.2    2.816      60.167
2015    2       28     4  14    5.0838   652.0    2.816      60.138
2015    2       28     4  20    5.0816   651.9    2.816      60.109
2015    2       28     4  25    5.0795   651.8    2.816      60.080
2015    2       28     4  30    5.0773   651.7    2.816      60.051
2015    2       28     4  35    5.0751   651.6    2.816      60.021
2015    2       28     4  40    5.0729   651.4    2.816      59.991
2015    2       28     4  46    5.0708   651.3    2.816      59.961
2015    2       28     4  51    5.0686   651.2    2.815      59.931
2015    2       28     4  56    5.0663   651.1    2.815      59.900
2015    2       28     5   1    5.0641   650.9    2.815      59.868
2015    2       28     5   6    5.0619   650.8    2.815      59.837
2015    2       28     5  12    5.0597   650.7    2.815      59.805
2015    2       28     5  17    5.0575   650.6    2.815      59.773
2015    2       28     5  22    5.0553   650.4    2.815      59.741
2015    2       28     5  27    5.0531   650.3    2.815      59.708
2015    2       28     5  32    5.0508   650.2    2.815      59.675
2015    2       28     5  38    5.0486   650.0    2.815      59.642
2015    2       28     5  43    5.0464   649.9    2.815      59.608
2015    2       28     5  48    5.0442   649.8    2.815      59.574
2015    2       28     5  53    5.0419   649.6    2.814      59.540
2015    2       28     5  58    5.0397   649.5    2.814      59.506
2015    2       28     6   4    5.0375   649.4    2.814      59.472
2015    2       28     6   9    5.0353   649.2    2.814      59.438
2015    2       28     6  14    5.0331   649.1    2.814      59.403
2015    2       28     6  19    5.0309   649.0    2.814      59.368
2015    2       28     6  24    5.0287   648.8    2.814      59.333
2015    2       28     6  30    5.0265   648.7    2.814      59.298
2015    2       28     6  35    5.0243   648.5    2.814      59.263
2015    2       28     6  40    5.0222   648.4    2.814      59.228
2015    2       28     6  45    5.0200   648.3    2.814      59.193
2015    2       28     6  50    5.0178   648.1    2.814      59.157
2015    2       28     6  56    5.0157   648.0    2.814      59.122
2015    2       28     7   1    5.0135   647.8    2.814      59.086
2015    2       28     7   6    5.0114   647.7    2.814      59.050
2015    2       28     7  11    5.0093   647.5    2.814      59.014
2015    2       28     7  16    5.0072   647.4    2.814      58.978
2015    2       28     7  22    5.0050   647.3    2.814      58.942
2015    2       28     7  27    5.0029   647.1    2.814      58.906
2015    2       28     7  32    5.0008   647.0    2.814      58.870
2015    2       28     7  37    4.9988   646.8    2.814      58.834
2015    2       28     7  42    4.9967   646.7    2.814      58.798
2015    2       28     7  48    4.9946   646.5    2.814      58.762
2015    2       28     7  53    4.9925   646.4    2.813      58.726
2015    2       28     7  58    4.9904   646.2    2.813      58.690
2015    2       28     8   3    4.9883   646.1    2.813      58.654
2015    2       28     8   8    4.9863   645.9    2.813      58.617
2015    2       28     8  14    4.9842   645.8    2.813      58.581
2015    2       28     8  19    4.9821   645.6    2.813      58.544
2015    2       28     8  24    4.9801   645.5    2.812      58.507
2015    2       28     8  29    4.9780   645.3    2.812      58.470
2015    2       28     8  34    4.9760   645.2    2.812      58.432
2015    2       28     8  40    4.9739   645.0    2.812      58.395
2015    2       28     8  45    4.9718   644.9    2.811      58.357
2015    2       28     8  50    4.9698   644.7    2.811      58.319
2015    2       28     8  55    4.9678   644.6    2.811      58.280
2015    2       28     9   1    4.9657   644.4    2.810      58.242
2015    2       28     9   6    4.9637   644.3    2.810      58.203
2015    2       28     9  11    4.9616   644.1    2.810      58.164
2015    2       28     9  16    4.9595   644.0    2.809      58.124
2015    2       28     9  21    4.9575   643.8    2.809      58.085
2015    2       28     9  27    4.9554   643.7    2.808      58.045
2015    2       28     9  32    4.9533   643.5    2.808      58.005
2015    2       28     9  37    4.9512   643.4    2.807      57.964
2015    2       28     9  42    4.9491   643.2    2.807      57.923
2015    2       28     9  47    4.9470   643.0    2.806      57.883
2015    2       28     9  53    4.9450   642.9    2.806      57.841
2015    2       28     9  58    4.9429   642.7    2.805      57.800
2015    2       28    10   3    4.9408   642.6    2.805      57.758
2015    2       28    10   8    4.9387   642.4    2.804      57.717
2015    2       28    10  14    4.9365   642.3    2.804      57.675
2015    2       28    10  19    4.9345   642.1    2.803      57.632
2015    2       28    10  24    4.9323   641.9    2.803      57.590
2015    2       28    10  29    4.9302   641.8    2.802      57.547
2015    2       28    10  34    4.9280   641.6    2.802      57.505
2015    2       28    10  40    4.9259   641.5    2.801      57.462
2015    2       28    10  45    4.9237   641.3    2.801      57.419
2015    2       28    10  50    4.9216   641.1    2.800      57.376
2015    2       28    10  55    4.9194   641.0    2.799      57.333
2015    2       28    11   0    4.9172   640.8    2.799      57.289
2015    2       28    11   6    4.9150   640.7    2.798      57.246
2015    2       28    11  11    4.9128   640.5    2.798      57.202
2015    2       28    11  16    4.9106   640.3    2.797      57.158
2015    2       28    11  21    4.9084   640.2    2.797      57.115
2015    2       28    11  26    4.9062   640.0    2.796      57.071
2015    2       28    11  32    4.9039   639.9    2.796      57.027
2015    2       28    11  37    4.9017   639.7    2.795      56.982
2015    2       28    11  42    4.8994   639.5    2.795      56.938
2015    2       28    11  47    4.8971   639.4    2.794      56.893
2015    2       28    11  52    4.8949   639.2    2.794      56.849
2015    2       28    11  58    4.8926   639.0    2.794      56.804
2015    2       28    12   3    4.8903   638.9    2.793      56.759
2015    2       28    12   8    4.8880   638.7    2.793      56.713
2015    2       28    12  13    4.8857   638.5    2.792      56.668
2015    2       28    12  18    4.8834   638.4    2.792      56.623
2015    2       28    12  24    4.8811   638.2    2.791      56.577
2015    2       28    12  29    4.8788   638.0    2.791      56.531
2015    2       28    12  34    4.8765   637.8    2.791      56.486
2015    2       28    12  39    4.8742   637.7    2.790      56.440
2015    2       28    12  44    4.8719   637.5    2.790      56.394
2015    2       28    12  50    4.8696   637.3    2.790      56.348
2015    2       28    12  55    4.8673   637.1    2.790      56.303
2015    2       28    13   0    4.8650   637.0    2.789      56.257
2015    2       28    13   5    4.8627   636.8    2.789      56.212
2015    2       28    13  10    4.8604   636.6    2.789      56.167
2015    2       28    13  16    4.8581   636.4    2.789      56.122
2015    2       28    13  21    4.8558   636.2    2.789      56.078
2015    2       28    13  26    4.8535   636.0    2.789      56.034
2015    2       28    13  31    4.8512   635.8    2.789      55.990
2015    2       28    13  36    4.8490   635.7    2.789      55.947
2015    2       28    13  41    4.8467   635.5    2.790      55.904
2015    2       28    13  47    4.8444   635.3    2.790      55.861
2015    2       28    13  52    4.8422   635.1    2.790      55.819
2015    2       28    13  57    4.8400   634.9    2.790      55.778
2015    2       28    14   2    4.8378   634.7    2.791      55.737
2015    2       28    14   7    4.8356   634.5    2.791      55.697
2015    2       28    14  13    4.8333   634.3    2.792      55.656
2015    2       28    14  18    4.8312   634.1    2.792      55.616
2015    2       28    14  23    4.8290   633.9    2.793      55.577
2015    2       28    14  28    4.8269   633.7    2.793      55.538
2015    2       28    14  33    4.8247   633.5    2.794      55.499
2015    2       28    14  39    4.8225   633.3    2.795      55.460
2015    2       28    14  44    4.8204   633.1    2.795      55.422
2015    2       28    14  49    4.8183   632.9    2.796      55.384
2015    2       28    14  54    4.8161   632.7    2.797      55.346
2015    2       28    14  59    4.8140   632.5    2.798      55.308
2015    2       28    15   5    4.8119   632.3    2.799      55.270
2015    2       28    15  10    4.8098   632.1    2.799      55.232
2015    2       28    15  15    4.8077   631.9    2.800      55.194
2015    2       28    15  20    4.8056   631.7    2.801      55.155
2015    2       28    15  25    4.8035   631.5    2.802      55.116
2015    2       28    15  31    4.8013   631.3    2.802      55.077
2015    2       28    15  36    4.7992   631.1    2.803      55.036
2015    2       28    15  41    4.7971   630.9    2.803      54.996
2015    2       28    15  46    4.7950   630.7    2.804      54.954
2015    2       28    15  51    4.7928   630.5    2.805      54.912
2015    2       28    15  57    4.7907   630.3    2.805      54.869
2015    2       28    16   2    4.7885   630.1    2.806      54.826
2015    2       28    16   7    4.7864   629.9    2.806      54.782
2015    2       28    16  12    4.7843   629.6    2.806      54.737
2015    2       28    16  17    4.7821   629.4    2.807      54.692
2015    2       28    16  23    4.7799   629.2    2.807      54.646
2015    2       28    16  28    4.7778   629.0    2.807      54.599
2015    2       28    16  33    4.7756   628.8    2.807      54.552
2015    2       28    16  38    4.7734   628.6    2.808      54.505
2015    2       28    16  43    4.7712   628.4    2.808      54.457
2015    2       28    16  49    4.7690   628.2    2.808      54.408
2015    2       28    16  54    4.7668   628.0    2.808      54.359
2015    2       28    16  59    4.7646   627.8    2.808      54.310
2015    2       28    17   4    4.7624   627.6    2.808      54.260
2015    2       28    17   9    4.7602   627.3    2.808      54.210
2015    2       28    17  15    4.7580   627.1    2.808      54.160
2015    2       28    17  20    4.7558   626.9    2.808      54.109
2015    2       28    17  25    4.7536   626.7    2.808      54.058
2015    2       28    17  30    4.7514   626.5    2.808      54.006
2015    2       28    17  35    4.7491   626.3    2.808      53.954
2015    2       28    17  41    4.7469   626.1    2.808      53.902
2015    2       28    17  46    4.7447   625.9    2.808      53.849
2015    2       28    17  51    4.7424   625.7    2.807      53.796
2015    2       28    17  56    4.7402   625.4    2.807      53.743
2015    2       28    18   1    4.7379   625.2    2.807      53.690
2015    2       28    18   6    4.7357   625.0    2.807      53.636
2015    2       28    18  12    4.7334   624.8    2.807      53.582
2015    2       28    18  17    4.7312   624.6    2.806      53.528
2015    2       28    18  22    4.7289   624.4    2.806      53.474
2015    2       28    18  27    4.7267   624.2    2.806      53.419
2015    2       28    18  32    4.7244   624.0    2.806      53.365
2015    2       28    18  38    4.7221   623.7    2.805      53.310
2015    2       28    18  43    4.7199   623.5    2.805      53.255
2015    2       28    18  48    4.7176   623.3    2.805      53.200
2015    2       28    18  53    4.7153   623.1    2.805      53.145
2015    2       28    18  58    4.7131   622.9    2.804      53.090
2015    2       28    19   4    4.7108   622.7    2.804      53.034
2015    2       28    19   9    4.7086   622.4    2.804      52.979
2015    2       28    19  14    4.7063   622.2    2.804      52.924
2015    2       28    19  19    4.7041   622.0    2.803      52.869
2015    2       28    19  24    4.7019   621.8    2.803      52.813
2015    2       28    19  30    4.6996   621.6    2.803      52.758
2015    2       28    19  35    4.6974   621.3    2.803      52.703
2015    2       28    19  40    4.6952   621.1    2.803      52.648
2015    2       28    19  45    4.6930   620.9    2.803      52.593
2015    2       28    19  50    4.6908   620.7    2.803      52.539
2015    2       28    19  56    4.6886   620.5    2.803      52.484
2015    2       28    20   1    4.6864   620.2    2.803      52.430
2015    2       28    20   6    4.6842   620.0    2.803      52.375
2015    2       28    20  11    4.6820   619.8    2.803      52.321
2015    2       28    20  16    4.6798   619.6    2.803      52.267
2015    2       28    20  22    4.6776   619.3    2.803      52.213
2015    2       28    20  27    4.6755   619.1    2.803      52.159
2015    2       28    20  32    4.6733   618.9    2.803      52.105
2015    2       28    20  37    4.6711   618.7    2.803      52.052
2015    2       28    20  42    4.6690   618.4    2.804      51.998
2015    2       28    20  48    4.6668   618.2    2.804      51.944
2015    2       28    20  53    4.6647   618.0    2.804      51.891
2015    2       28    20  58    4.6625   617.7    2.804      51.837
2015    2       28    21   3    4.6604   617.5    2.804      51.784
2015    2       28    21   8    4.6582   617.3    2.805      51.730
2015    2       28    21  14    4.6561   617.0    2.805      51.677
2015    2       28    21  19    4.6540   616.8    2.805      51.623
2015    2       28    21  24    4.6518   616.5    2.805      51.570
2015    2       28    21  29    4.6497   616.3    2.805      51.517
2015    2       28    21  34    4.6475   616.1    2.806      51.464
2015    2       28    21  39    4.6454   615.8    2.806      51.411
2015    2       28    21  45    4.6433   615.6    2.806      51.359
2015    2       28    21  50    4.6413   615.3    2.807      51.306
2015    2       28    21  55    4.6392   615.1    2.807      51.254
2015    2       28    22   0    4.6371   614.8    2.807      51.201
2015    2       28    22   5    4.6350   614.6    2.808      51.149
2015    2       28    22  11    4.6330   614.3    2.808      51.097
2015    2       28    22  16    4.6309   614.1    2.809      51.045
2015    2       28    22  21    4.6289   613.8    2.809      50.993
2015    2       28    22  26    4.6269   613.6    2.810      50.941
2015    2       28    22  31    4.6248   613.3    2.810      50.889
2015    2       28    22  37    4.6228   613.1    2.811      50.838
2015    2       28    22  42    4.6208   612.8    2.811      50.786
2015    2       28    22  47    4.6188   612.6    2.812      50.734
2015    2       28    22  52    4.6169   612.3    2.812      50.681
2015    2       28    22  57    4.6149   612.1    2.813      50.629
2015    2       28    23   3    4.6129   611.8    2.814      50.576
2015    2       28    23   8    4.6109   611.5    2.814      50.523
2015    2       28    23  13    4.6089   611.3    2.815      50.469
2015    2       28    23  18    4.6070   611.0    2.815      50.416
2015    2       28    23  23    4.6050   610.8    2.816      50.361
2015    2       28    23  29    4.6030   610.5    2.816      50.307
2015    2       28    23  34    4.6010   610.2    2.817      50.252
2015    2       28    23  39    4.5991   610.0    2.817      50.197
2015    2       28    23  44    4.5971   609.7    2.818      50.141
2015    2       28    23  48    4.5957   609.5    2.818      50.107
2015    2       28    23  52    4.5943   609.3    2.819      50.073
2015    2       28    23  55    4.5929   609.1    2.819      50.039
2015    2       28    23  59    4.5915   609.0    2.819      50.006
2015    3        1     0   2    4.5902   608.8    2.820      49.975
2015    3        1     0   6    4.5889   608.6    2.820      49.944
2015    3        1     0   9    4.5876   608.4    2.820      49.914
2015    3        1     0  12    4.5863   608.2    2.821      49.884
2015    3        1     0  16    4.5850   608.1    2.821      49.854
2015    3        1     0  19    4.5837   607.9    2.821      49.824
2015    3        1     0  23    4.5824   607.7    2.822      49.794
2015    3        1     0  26    4.5811   607.5    2.822      49.764
2015    3        1     0  29    4.5799   607.4    2.822      49.734
2015    3        1     0  33    4.5786   607.2    2.823      49.705
2015    3        1     0  36    4.5773   607.0    2.823      49.675
2015    3        1     0  39    4.5760   606.8    2.823      49.646
2015    3        1     0  43    4.5747   606.7    2.824      49.617
2015    3        1     0  46    4.5735   606.5    2.824      49.587
2015    3        1     0  49    4.5722   606.3    2.824      49.558
2015    3        1     0  52    4.5709   606.2    2.825      49.529
2015    3        1     0  56    4.5697   606.0    2.825      49.500
2015    3        1     0  59    4.5684   605.8    2.826      49.471
2015    3        1     1   2    4.5671   605.6    2.826      49.443
2015    3        1     1   6    4.5659   605.5    2.826      49.414
2015    3        1     1   9    4.5646   605.3    2.827      49.385
2015    3        1     1  12    4.5633   605.1    2.827      49.357
2015    3        1     1  15    4.5621   604.9    2.827      49.328
2015    3        1     1  19    4.5608   604.8    2.828      49.300
2015    3        1     1  22    4.5596   604.6    2.828      49.271
2015    3        1     1  25    4.5583   604.4    2.828      49.243
2015    3        1     1  29    4.5571   604.2    2.829      49.215
2015    3        1     1  32    4.5558   604.1    2.829      49.186
2015    3        1     1  35    4.5546   603.9    2.830      49.158
2015    3        1     1  38    4.5533   603.7    2.830      49.130
2015    3        1     1  42    4.5521   603.5    2.830      49.102
2015    3        1     1  45    4.5508   603.4    2.831      49.074
2015    3        1     1  48    4.5496   603.2    2.831      49.045
2015    3        1     1  51    4.5484   603.0    2.832      49.017
2015    3        1     1  55    4.5471   602.8    2.832      48.989
2015    3        1     1  58    4.5459   602.7    2.832      48.961
2015    3        1     2   1    4.5447   602.5    2.833      48.933
2015    3        1     2   4    4.5434   602.3    2.833      48.905
2015    3        1     2   8    4.5422   602.1    2.834      48.877
2015    3        1     2  11    4.5410   602.0    2.834      48.849
2015    3        1     2  14    4.5397   601.8    2.835      48.822
2015    3        1     2  17    4.5385   601.6    2.835      48.794
2015    3        1     2  21    4.5373   601.4    2.836      48.766
2015    3        1     2  24    4.5361   601.2    2.836      48.737
2015    3        1     2  27    4.5348   601.1    2.837      48.709
2015    3        1     2  31    4.5336   600.9    2.837      48.681
2015    3        1     2  34    4.5324   600.7    2.838      48.654
2015    3        1     2  37    4.5312   600.5    2.838      48.626
2015    3        1     2  41    4.5300   600.3    2.839      48.598
2015    3        1     2  44    4.5288   600.1    2.839      48.570
2015    3        1     2  47    4.5276   600.0    2.840      48.541
2015    3        1     2  51    4.5263   599.8    2.841      48.512
2015    3        1     2  54    4.5251   599.6    2.841      48.484
2015    3        1     2  57    4.5239   599.4    2.842      48.455
2015    3        1     3   1    4.5227   599.2    2.843      48.427
2015    3        1     3   4    4.5215   599.0    2.843      48.398
2015    3        1     3   8    4.5203   598.8    2.844      48.370
2015    3        1     3  11    4.5191   598.7    2.845      48.342
2015    3        1     3  14    4.5179   598.5    2.845      48.314
2015    3        1     3  18    4.5167   598.3    2.846      48.286
2015    3        1     3  21    4.5155   598.1    2.847      48.258
2015    3        1     3  24    4.5143   597.9    2.848      48.230
2015    3        1     3  28    4.5132   597.7    2.848      48.202
2015    3        1     3  31    4.5120   597.5    2.849      48.174
2015    3        1     3  35    4.5108   597.4    2.850      48.146
2015    3        1     3  38    4.5096   597.2    2.851      48.117
2015    3        1     3  41    4.5084   597.0    2.852      48.089
2015    3        1     3  45    4.5072   596.8    2.852      48.060
2015    3        1     3  48    4.5060   596.6    2.853      48.031
2015    3        1     3  52    4.5049   596.4    2.854      48.002
2015    3        1     3  55    4.5036   596.2    2.855      47.972
2015    3        1     3  59    4.5024   596.0    2.856      47.943
2015    3        1     4   2    4.5012   595.8    2.857      47.913
2015    3        1     4   6    4.5000   595.6    2.858      47.883
2015    3        1     4  10    4.4988   595.4    2.859      47.853
2015    3        1     4  13    4.4976   595.2    2.859      47.823
2015    3        1     4  17    4.4965   595.0    2.860      47.793
2015    3        1     4  20    4.4953   594.8    2.861      47.762
2015    3        1     4  24    4.4941   594.6    2.862      47.732
2015    3        1     4  27    4.4929   594.4    2.863      47.702
2015    3        1     4  31    4.4917   594.2    2.864      47.671
2015    3        1     4  35    4.4905   594.0    2.865      47.640
2015    3        1     4  38    4.4893   593.8    2.866      47.609
2015    3        1     4  42    4.4881   593.6    2.867      47.578
2015    3        1     4  46    4.4870   593.4    2.868      47.547
2015    3        1     4  49    4.4858   593.1    2.868      47.516
2015    3        1     4  53    4.4846   592.9    2.869      47.485
2015    3        1     4  56    4.4834   592.7    2.870      47.453
2015    3        1     5   0    4.4823   592.5    2.871      47.421
2015    3        1     5   4    4.4811   592.3    2.872      47.389
2015    3        1     5   7    4.4799   592.1    2.873      47.357
2015    3        1     5  11    4.4787   591.9    2.874      47.325
2015    3        1     5  15    4.4776   591.7    2.875      47.292
2015    3        1     5  18    4.4764   591.4    2.875      47.260
2015    3        1     5  22    4.4752   591.2    2.876      47.227
2015    3        1     5  26    4.4741   591.0    2.877      47.194
2015    3        1     5  30    4.4729   590.8    2.878      47.161
2015    3        1     5  33    4.4718   590.6    2.879      47.128
2015    3        1     5  37    4.4706   590.4    2.879      47.095
2015    3        1     5  41    4.4694   590.1    2.880      47.061
2015    3        1     5  44    4.4683   589.9    2.881      47.027
2015    3        1     5  48    4.4671   589.7    2.882      46.993
2015    3        1     5  52    4.4660   589.5    2.882      46.959
2015    3        1     5  56    4.4648   589.3    2.883      46.924
2015    3        1     5  59    4.4636   589.0    2.884      46.890
2015    3        1     6   3    4.4625   588.8    2.885      46.855
2015    3        1     6   7    4.4613   588.6    2.885      46.819
2015    3        1     6  11    4.4601   588.4    2.886      46.784
2015    3        1     6  15    4.4590   588.1    2.887      46.748
2015    3        1     6  18    4.4578   587.9    2.888      46.712
2015    3        1     6  22    4.4566   587.7    2.888      46.675
2015    3        1     6  26    4.4555   587.4    2.889      46.638
2015    3        1     6  30    4.4543   587.2    2.890      46.601
2015    3        1     6  34    4.4531   587.0    2.890      46.564
2015    3        1     6  38    4.4520   586.7    2.891      46.526
2015    3        1     6  42    4.4508   586.5    2.892      46.487
2015    3        1     6  46    4.4496   586.3    2.893      46.449
2015    3        1     6  50    4.4484   586.0    2.893      46.410
2015    3        1     6  54    4.4472   585.8    2.894      46.371
2015    3        1     6  58    4.4459   585.5    2.895      46.331
2015    3        1     7   2    4.4448   585.3    2.896      46.291
2015    3        1     7   6    4.4435   585.0    2.896      46.251
2015    3        1     7  10    4.4423   584.8    2.897      46.210
2015    3        1     7  14    4.4411   584.5    2.898      46.169
2015    3        1     7  18    4.4398   584.3    2.899      46.127
2015    3        1     7  22    4.4386   584.0    2.900      46.086
2015    3        1     7  26    4.4374   583.8    2.900      46.044
2015    3        1     7  30    4.4361   583.5    2.901      46.002
2015    3        1     7  35    4.4349   583.3    2.902      45.960
2015    3        1     7  39    4.4336   583.0    2.903      45.917
2015    3        1     7  43    4.4324   582.7    2.904      45.874
2015    3        1     7  47    4.4311   582.5    2.905      45.831
2015    3        1     7  51    4.4299   582.2    2.906      45.788
2015    3        1     7  56    4.4286   581.9    2.907      45.745
2015    3        1     8   0    4.4273   581.6    2.908      45.702
2015    3        1     8   4    4.4261   581.4    2.909      45.658
2015    3        1     8   9    4.4248   581.1    2.910      45.615
2015    3        1     8  13    4.4236   580.8    2.911      45.572
2015    3        1     8  17    4.4223   580.5    2.912      45.528
2015    3        1     8  22    4.4211   580.3    2.913      45.485
2015    3        1     8  26    4.4198   580.0    2.915      45.441
2015    3        1     8  30    4.4186   579.7    2.916      45.398
2015    3        1     8  35    4.4174   579.4    2.917      45.354
2015    3        1     8  39    4.4161   579.1    2.918      45.311
2015    3        1     8  44    4.4149   578.8    2.920      45.268
2015    3        1     8  48    4.4137   578.5    2.921      45.225
2015    3        1     8  52    4.4125   578.2    2.923      45.181
2015    3        1     8  57    4.4113   577.9    2.924      45.138
2015    3        1     9   1    4.4101   577.6    2.926      45.096
2015    3        1     9   6    4.4089   577.4    2.927      45.053
2015    3        1     9  10    4.4077   577.1    2.929      45.010
2015    3        1     9  15    4.4065   576.8    2.931      44.967
2015    3        1     9  19    4.4054   576.5    2.933      44.925
2015    3        1     9  24    4.4042   576.1    2.934      44.883
2015    3        1     9  28    4.4031   575.8    2.936      44.840
2015    3        1     9  33    4.4019   575.5    2.938      44.798
2015    3        1     9  38    4.4008   575.2    2.940      44.756
2015    3        1     9  42    4.3997   574.9    2.942      44.714
2015    3        1     9  47    4.3986   574.6    2.944      44.671
2015    3        1     9  51    4.3975   574.3    2.946      44.629
2015    3        1     9  56    4.3964   574.0    2.948      44.587
2015    3        1    10   1    4.3953   573.7    2.950      44.545
2015    3        1    10   5    4.3943   573.4    2.952      44.503
2015    3        1    10  10    4.3932   573.1    2.954      44.461
2015    3        1    10  15    4.3922   572.7    2.957      44.419
2015    3        1    10  19    4.3911   572.4    2.959      44.377
2015    3        1    10  24    4.3901   572.1    2.961      44.335
2015    3        1    10  29    4.3891   571.8    2.963      44.293
2015    3        1    10  33    4.3881   571.5    2.965      44.251
2015    3        1    10  38    4.3871   571.2    2.968      44.209
2015    3        1    10  43    4.3862   570.8    2.970      44.168
2015    3        1    10  47    4.3852   570.5    2.972      44.126
2015    3        1    10  52    4.3843   570.2    2.974      44.084
2015    3        1    10  57    4.3834   569.9    2.977      44.042
2015    3        1    11   1    4.3824   569.6    2.979      43.999
2015    3        1    11   6    4.3815   569.2    2.981      43.957
2015    3        1    11  11    4.3806   568.9    2.984      43.915
2015    3        1    11  15    4.3797   568.6    2.986      43.872
2015    3        1    11  20    4.3788   568.3    2.988      43.830
2015    3        1    11  25    4.3779   567.9    2.991      43.787
2015    3        1    11  30    4.3770   567.6    2.993      43.744
2015    3        1    11  34    4.3762   567.3    2.995      43.701
2015    3        1    11  39    4.3753   567.0    2.998      43.658
2015    3        1    11  44    4.3745   566.6    3.000      43.615
2015    3        1    11  49    4.3736   566.3    3.003      43.572
2015    3        1    11  54    4.3728   566.0    3.005      43.528
2015    3        1    11  58    4.3720   565.7    3.007      43.485
2015    3        1    12   3    4.3712   565.3    3.010      43.441
2015    3        1    12   8    4.3704   565.0    3.012      43.398
2015    3        1    12  13    4.3696   564.7    3.015      43.355
2015    3        1    12  18    4.3688   564.3    3.017      43.311
2015    3        1    12  23    4.3681   564.0    3.020      43.268
2015    3        1    12  28    4.3673   563.7    3.022      43.224
2015    3        1    12  32    4.3665   563.3    3.025      43.180
2015    3        1    12  37    4.3658   563.0    3.027      43.137
2015    3        1    12  42    4.3650   562.7    3.030      43.093
2015    3        1    12  47    4.3642   562.3    3.033      43.049
2015    3        1    12  52    4.3635   562.0    3.035      43.005
2015    3        1    12  57    4.3628   561.7    3.038      42.961
2015    3        1    13   2    4.3620   561.3    3.040      42.917
2015    3        1    13   7    4.3613   561.0    3.043      42.873
2015    3        1    13  12    4.3606   560.7    3.046      42.829
2015    3        1    13  17    4.3599   560.3    3.048      42.785
2015    3        1    13  22    4.3592   560.0    3.051      42.741
2015    3        1    13  27    4.3585   559.6    3.053      42.697
2015    3        1    13  32    4.3578   559.3    3.056      42.652
2015    3        1    13  37    4.3571   559.0    3.059      42.608
2015    3        1    13  42    4.3565   558.6    3.061      42.563
2015    3        1    13  46    4.3558   558.3    3.064      42.519
2015    3        1    13  51    4.3552   557.9    3.067      42.474
2015    3        1    13  56    4.3546   557.6    3.069      42.430
2015    3        1    14   1    4.3540   557.3    3.072      42.385
2015    3        1    14   6    4.3533   556.9    3.075      42.340
2015    3        1    14  11    4.3528   556.6    3.077      42.294
2015    3        1    14  16    4.3522   556.2    3.080      42.249
2015    3        1    14  21    4.3516   555.9    3.083      42.203
2015    3        1    14  26    4.3510   555.5    3.086      42.157
2015    3        1    14  31    4.3506   555.2    3.088      42.111
2015    3        1    14  36    4.3499   554.8    3.091      42.064
2015    3        1    14  41    4.3495   554.5    3.094      42.018
2015    3        1    14  47    4.3488   554.1    3.097      41.971
2015    3        1    14  52    4.3483   553.8    3.100      41.923
2015    3        1    14  57    4.3478   553.4    3.102      41.876
2015    3        1    15   2    4.3473   553.1    3.105      41.828
2015    3        1    15   7    4.3469   552.7    3.108      41.780
2015    3        1    15  12    4.3465   552.4    3.111      41.732
2015    3        1    15  17    4.3459   552.0    3.114      41.684
2015    3        1    15  22    4.3455   551.6    3.117      41.635
2015    3        1    15  27    4.3451   551.3    3.119      41.587
2015    3        1    15  32    4.3447   550.9    3.122      41.538
2015    3        1    15  38    4.3443   550.6    3.125      41.489
2015    3        1    15  43    4.3439   550.2    3.128      41.440
2015    3        1    15  48    4.3436   549.8    3.131      41.391
2015    3        1    15  53    4.3434   549.5    3.134      41.343
2015    3        1    15  58    4.3430   549.1    3.137      41.294
2015    3        1    16   3    4.3427   548.7    3.141      41.246
2015    3        1    16   9    4.3424   548.4    3.144      41.197
2015    3        1    16  14    4.3422   548.0    3.147      41.150
2015    3        1    16  19    4.3421   547.6    3.150      41.102
2015    3        1    16  24    4.3418   547.3    3.154      41.055
2015    3        1    16  29    4.3417   546.9    3.157      41.008
2015    3        1    16  34    4.3416   546.5    3.160      40.961
2015    3        1    16  39    4.3415   546.2    3.164      40.914
2015    3        1    16  45    4.3414   545.8    3.167      40.868
2015    3        1    16  50    4.3414   545.4    3.171      40.822
2015    3        1    16  55    4.3414   545.1    3.174      40.776
2015    3        1    17   0    4.3414   544.7    3.178      40.731
2015    3        1    17   5    4.3414   544.4    3.182      40.685
2015    3        1    17  11    4.3415   544.0    3.186      40.641
2015    3        1    17  16    4.3416   543.6    3.189      40.596
2015    3        1    17  21    4.3417   543.3    3.193      40.551
2015    3        1    17  26    4.3418   542.9    3.197      40.507
2015    3        1    17  31    4.3420   542.5    3.201      40.463
2015    3        1    17  37    4.3422   542.2    3.205      40.419
2015    3        1    17  42    4.3424   541.8    3.209      40.375
2015    3        1    17  47    4.3426   541.4    3.213      40.332
2015    3        1    17  52    4.3429   541.1    3.217      40.289
2015    3        1    17  57    4.3433   540.7    3.221      40.246
2015    3        1    18   2    4.3435   540.3    3.225      40.203
2015    3        1    18   8    4.3438   540.0    3.229      40.161
2015    3        1    18  13    4.3441   539.6    3.234      40.119
2015    3        1    18  18    4.3444   539.3    3.238      40.077
2015    3        1    18  23    4.3448   538.9    3.242      40.035
2015    3        1    18  28    4.3452   538.5    3.246      39.993
2015    3        1    18  34    4.3456   538.2    3.251      39.951
2015    3        1    18  39    4.3461   537.8    3.255      39.910
2015    3        1    18  44    4.3466   537.5    3.259      39.869
2015    3        1    18  49    4.3471   537.1    3.263      39.827
2015    3        1    18  54    4.3475   536.7    3.268      39.786
2015    3        1    19   0    4.3481   536.4    3.272      39.745
2015    3        1    19   5    4.3485   536.0    3.277      39.704
2015    3        1    19  10    4.3491   535.7    3.281      39.663
2015    3        1    19  15    4.3495   535.3    3.285      39.622
2015    3        1    19  20    4.3501   534.9    3.290      39.581
2015    3        1    19  26    4.3506   534.6    3.294      39.541
2015    3        1    19  31    4.3512   534.2    3.299      39.500
2015    3        1    19  36    4.3518   533.9    3.303      39.459
2015    3        1    19  41    4.3525   533.5    3.308      39.418
2015    3        1    19  46    4.3531   533.2    3.312      39.377
2015    3        1    19  52    4.3539   532.8    3.316      39.336
2015    3        1    19  57    4.3544   532.5    3.321      39.295
2015    3        1    20   2    4.3550   532.1    3.325      39.254
2015    3        1    20   7    4.3559   531.7    3.330      39.213
2015    3        1    20  12    4.3566   531.4    3.334      39.172
2015    3        1    20  17    4.3573   531.0    3.339      39.131
2015    3        1    20  23    4.3578   530.7    3.343      39.090
2015    3        1    20  28    4.3587   530.3    3.348      39.048
2015    3        1    20  33    4.3594   530.0    3.353      39.007
2015    3        1    20  38    4.3601   529.6    3.357      38.966
2015    3        1    20  43    4.3609   529.3    3.362      38.924
2015    3        1    20  49    4.3619   528.9    3.366      38.883
2015    3        1    20  54    4.3626   528.6    3.371      38.842
2015    3        1    20  59    4.3634   528.2    3.375      38.800
2015    3        1    21   4    4.3643   527.9    3.380      38.759
2015    3        1    21   9    4.3654   527.5    3.385      38.718
2015    3        1    21  15    4.3662   527.2    3.389      38.676
2015    3        1    21  20    4.3673   526.8    3.394      38.636
2015    3        1    21  25    4.3681   526.5    3.399      38.594
2015    3        1    21  30    4.3691   526.1    3.404      38.554
2015    3        1    21  35    4.3701   525.8    3.408      38.513
2015    3        1    21  41    4.3711   525.4    3.413      38.472
2015    3        1    21  46    4.3722   525.1    3.418      38.431
2015    3        1    21  51    4.3735   524.7    3.423      38.391
2015    3        1    21  56    4.3744   524.4    3.427      38.350
2015    3        1    22   1    4.3758   524.0    3.432      38.310
2015    3        1    22   7    4.3768   523.7    3.437      38.270
2015    3        1    22  12    4.3780   523.3    3.442      38.230
2015    3        1    22  17    4.3792   523.0    3.447      38.190
2015    3        1    22  22    4.3804   522.6    3.452      38.150
2015    3        1    22  27    4.3817   522.3    3.457      38.110
2015    3        1    22  33    4.3830   522.0    3.462      38.070
2015    3        1    22  38    4.3845   521.6    3.467      38.030
2015    3        1    22  43    4.3857   521.3    3.472      37.990
2015    3        1    22  48    4.3872   520.9    3.477      37.951
2015    3        1    22  53    4.3886   520.6    3.481      37.911
2015    3        1    22  59    4.3900   520.3    3.486      37.871
2015    3        1    23   4    4.3913   519.9    3.491      37.831
2015    3        1    23   9    4.3927   519.6    3.496      37.792
2015    3        1    23  14    4.3942   519.2    3.501      37.752
2015    3        1    23  19    4.3957   518.9    3.506      37.712
2015    3        1    23  24    4.3972   518.6    3.511      37.673
2015    3        1    23  30    4.3987   518.2    3.516      37.633
2015    3        1    23  35    4.4003   517.9    3.521      37.594
2015    3        1    23  40    4.4019   517.6    3.526      37.554
2015    3        1    23  45    4.4035   517.2    3.531      37.515
2015    3        1    23  50    4.4051   516.9    3.536      37.476
2015    3        1    23  56    4.4067   516.5    3.541      37.437
2015    3        2     0   1    4.4084   516.2    3.546      37.397
2015    3        2     0   6    4.4100   515.9    3.551      37.358
2015    3        2     0  11    4.4117   515.5    3.556      37.319
2015    3        2     0  16    4.4134   515.2    3.561      37.281
2015    3        2     0  22    4.4152   514.9    3.566      37.242
2015    3        2     0  27    4.4169   514.5    3.571      37.203
2015    3        2     0  32    4.4187   514.2    3.577      37.165
2015    3        2     0  37    4.4205   513.9    3.582      37.127
2015    3        2     0  42    4.4225   513.5    3.587      37.089
2015    3        2     0  48    4.4241   513.2    3.592      37.051
2015    3        2     0  53    4.4260   512.9    3.597      37.013
2015    3        2     0  58    4.4279   512.6    3.603      36.976
2015    3        2     1   3    4.4298   512.2    3.608      36.939
2015    3        2     1   8    4.4317   511.9    3.613      36.902
2015    3        2     1  14    4.4336   511.6    3.619      36.865
2015    3        2     1  19    4.4356   511.2    3.624      36.829
2015    3        2     1  24    4.4376   510.9    3.630      36.793
2015    3        2     1  29    4.4396   510.6    3.635      36.757
2015    3        2     1  34    4.4416   510.3    3.641      36.721
2015    3        2     1  40    4.4436   509.9    3.646      36.686
2015    3        2     1  45    4.4457   509.6    3.652      36.651
2015    3        2     1  50    4.4478   509.3    3.658      36.617
2015    3        2     1  55    4.4499   509.0    3.664      36.583
2015    3        2     2   0    4.4520   508.7    3.670      36.549
2015    3        2     2   6    4.4541   508.3    3.676      36.515
2015    3        2     2  11    4.4563   508.0    3.682      36.481
2015    3        2     2  16    4.4585   507.7    3.688      36.448
2015    3        2     2  21    4.4608   507.4    3.694      36.416
2015    3        2     2  26    4.4628   507.1    3.700      36.383
2015    3        2     2  31    4.4650   506.8    3.706      36.351
2015    3        2     2  37    4.4673   506.4    3.713      36.319
2015    3        2     2  42    4.4695   506.1    3.719      36.287
2015    3        2     2  47    4.4718   505.8    3.725      36.256
2015    3        2     2  52    4.4742   505.5    3.732      36.225
2015    3        2     2  57    4.4763   505.2    3.738      36.194
2015    3        2     3   3    4.4786   504.9    3.745      36.163
2015    3        2     3   8    4.4809   504.6    3.752      36.133
2015    3        2     3  13    4.4834   504.3    3.758      36.102
2015    3        2     3  18    4.4856   504.0    3.765      36.072
2015    3        2     3  23    4.4880   503.6    3.772      36.042
2015    3        2     3  29    4.4904   503.3    3.779      36.012
2015    3        2     3  34    4.4927   503.0    3.786      35.983
2015    3        2     3  39    4.4951   502.7    3.792      35.953
2015    3        2     3  44    4.4977   502.4    3.799      35.924
2015    3        2     3  49    4.5000   502.1    3.806      35.895
2015    3        2     3  55    4.5024   501.8    3.813      35.866
2015    3        2     4   0    4.5049   501.5    3.821      35.838
2015    3        2     4   5    4.5074   501.2    3.828      35.809
2015    3        2     4  10    4.5099   500.9    3.835      35.781
2015    3        2     4  15    4.5124   500.6    3.842      35.753
2015    3        2     4  21    4.5150   500.3    3.849      35.725
2015    3        2     4  26    4.5177   500.0    3.857      35.697
2015    3        2     4  31    4.5201   499.7    3.864      35.670
2015    3        2     4  36    4.5227   499.4    3.871      35.642
2015    3        2     4  41    4.5254   499.1    3.879      35.615
2015    3        2     4  47    4.5280   498.8    3.886      35.589
2015    3        2     4  52    4.5307   498.5    3.894      35.562
2015    3        2     4  57    4.5334   498.2    3.901      35.536
2015    3        2     5   2    4.5362   497.9    3.909      35.510
2015    3        2     5   7    4.5389   497.6    3.916      35.484
2015    3        2     5  13    4.5417   497.3    3.924      35.459
2015    3        2     5  18    4.5446   497.0    3.932      35.433
2015    3        2     5  23    4.5474   496.7    3.939      35.408
2015    3        2     5  28    4.5503   496.4    3.947      35.384
2015    3        2     5  33    4.5532   496.1    3.955      35.359
2015    3        2     5  39    4.5561   495.8    3.962      35.335
2015    3        2     5  44    4.5591   495.5    3.970      35.311
2015    3        2     5  49    4.5621   495.3    3.978      35.287
2015    3        2     5  54    4.5651   495.0    3.986      35.263
2015    3        2     5  59    4.5682   494.7    3.994      35.240
2015    3        2     6   5    4.5714   494.4    4.002      35.217
2015    3        2     6  10    4.5745   494.1    4.009      35.194
2015    3        2     6  15    4.5775   493.8    4.017      35.172
2015    3        2     6  20    4.5807   493.6    4.025      35.150
2015    3        2     6  25    4.5839   493.3    4.033      35.127
2015    3        2     6  30    4.5871   493.0    4.041      35.106
2015    3        2     6  36    4.5905   492.7    4.049      35.084
2015    3        2     6  41    4.5936   492.4    4.057      35.063
2015    3        2     6  46    4.5969   492.2    4.065      35.042
2015    3        2     6  51    4.6002   491.9    4.072      35.021
2015    3        2     6  56    4.6036   491.6    4.080      35.001
2015    3        2     7   2    4.6070   491.4    4.088      34.981
2015    3        2     7   7    4.6104   491.1    4.096      34.961
2015    3        2     7  12    4.6139   490.8    4.104      34.941
2015    3        2     7  17    4.6175   490.6    4.112      34.922
2015    3        2     7  22    4.6208   490.3    4.120      34.903
2015    3        2     7  28    4.6244   490.0    4.128      34.883
2015    3        2     7  33    4.6279   489.8    4.135      34.865
2015    3        2     7  38    4.6315   489.5    4.143      34.846
2015    3        2     7  43    4.6351   489.3    4.151      34.828
2015    3        2     7  48    4.6387   489.0    4.159      34.810
2015    3        2     7  54    4.6426   488.7    4.167      34.792
2015    3        2     7  59    4.6461   488.5    4.175      34.774
2015    3        2     8   4    4.6497   488.2    4.183      34.757
2015    3        2     8   9    4.6535   488.0    4.191      34.739
2015    3        2     8  14    4.6572   487.7    4.198      34.722
2015    3        2     8  20    4.6609   487.5    4.206      34.705
2015    3        2     8  25    4.6647   487.2    4.214      34.688
2015    3        2     8  30    4.6685   487.0    4.222      34.671
2015    3        2     8  35    4.6723   486.8    4.230      34.654
2015    3        2     8  40    4.6761   486.5    4.238      34.638
2015    3        2     8  46    4.6802   486.3    4.246      34.621
2015    3        2     8  51    4.6838   486.0    4.254      34.605
2015    3        2     8  56    4.6877   485.8    4.262      34.589
2015    3        2     9   1    4.6916   485.6    4.270      34.573
2015    3        2     9   6    4.6955   485.3    4.277      34.558
2015    3        2     9  11    4.6994   485.1    4.285      34.542
2015    3        2     9  17    4.7033   484.9    4.293      34.527
2015    3        2     9  22    4.7073   484.6    4.301      34.511
2015    3        2     9  27    4.7114   484.4    4.310      34.496
2015    3        2     9  32    4.7154   484.2    4.318      34.482
2015    3        2     9  37    4.7192   483.9    4.326      34.467
2015    3        2     9  43    4.7232   483.7    4.334      34.453
2015    3        2     9  48    4.7272   483.5    4.342      34.438
2015    3        2     9  53    4.7314   483.3    4.350      34.425
2015    3        2     9  58    4.7352   483.0    4.358      34.411
2015    3        2    10   3    4.7393   482.8    4.367      34.398
2015    3        2    10   9    4.7434   482.6    4.375      34.385
2015    3        2    10  14    4.7476   482.4    4.383      34.372
2015    3        2    10  19    4.7515   482.2    4.392      34.359
2015    3        2    10  24    4.7556   481.9    4.400      34.347
2015    3        2    10  29    4.7599   481.7    4.409      34.335
2015    3        2    10  35    4.7638   481.5    4.417      34.324
2015    3        2    10  40    4.7680   481.3    4.426      34.313
2015    3        2    10  45    4.7721   481.1    4.435      34.302
2015    3        2    10  50    4.7763   480.9    4.443      34.292
2015    3        2    10  55    4.7805   480.7    4.452      34.282
2015    3        2    11   1    4.7847   480.4    4.461      34.272
2015    3        2    11   6    4.7889   480.2    4.470      34.263
2015    3        2    11  11    4.7933   480.0    4.479      34.255
2015    3        2    11  16    4.7974   479.8    4.488      34.246
2015    3        2    11  21    4.8016   479.6    4.497      34.239
2015    3        2    11  27    4.8059   479.4    4.506      34.231
2015    3        2    11  32    4.8104   479.2    4.516      34.224
2015    3        2    11  37    4.8146   479.0    4.525      34.218
2015    3        2    11  42    4.8189   478.8    4.534      34.212
2015    3        2    11  47    4.8233   478.6    4.544      34.206
2015    3        2    11  53    4.8278   478.4    4.554      34.202
2015    3        2    11  58    4.8321   478.2    4.563      34.197
2015    3        2    12   3    4.8366   478.0    4.573      34.193
2015    3        2    12   8    4.8410   477.8    4.583      34.189
2015    3        2    12  13    4.8455   477.6    4.593      34.186
2015    3        2    12  19    4.8501   477.4    4.603      34.184
2015    3        2    12  24    4.8546   477.3    4.612      34.181
2015    3        2    12  29    4.8591   477.1    4.622      34.180
2015    3        2    12  34    4.8637   476.9    4.633      34.178
2015    3        2    12  39    4.8684   476.7    4.643      34.177
2015    3        2    12  45    4.8730   476.5    4.653      34.177
2015    3        2    12  50    4.8776   476.3    4.663      34.177
2015    3        2    12  55    4.8823   476.2    4.673      34.177
2015    3        2    13   0    4.8870   476.0    4.683      34.178
2015    3        2    13   5    4.8917   475.8    4.693      34.178
2015    3        2    13  11    4.8965   475.6    4.704      34.180
2015    3        2    13  16    4.9012   475.5    4.714      34.182
2015    3        2    13  21    4.9060   475.3    4.724      34.184
2015    3        2    13  26    4.9108   475.1    4.734      34.186
2015    3        2    13  31    4.9158   475.0    4.744      34.189
2015    3        2    13  37    4.9205   474.8    4.754      34.192
2015    3        2    13  42    4.9254   474.6    4.764      34.196
2015    3        2    13  47    4.9304   474.5    4.774      34.199
2015    3        2    13  52    4.9352   474.3    4.784      34.203
2015    3        2    13  57    4.9401   474.1    4.794      34.208
2015    3        2    14   3    4.9451   474.0    4.804      34.212
2015    3        2    14   8    4.9500   473.8    4.814      34.217
2015    3        2    14  13    4.9550   473.6    4.824      34.222
2015    3        2    14  18    4.9600   473.5    4.834      34.227
2015    3        2    14  23    4.9652   473.3    4.843      34.233
2015    3        2    14  29    4.9701   473.2    4.853      34.238
2015    3        2    14  34    4.9752   473.0    4.863      34.244
2015    3        2    14  39    4.9803   472.9    4.872      34.250
2015    3        2    14  44    4.9854   472.7    4.882      34.255
2015    3        2    14  49    4.9905   472.6    4.892      34.261
2015    3        2    14  55    4.9957   472.4    4.901      34.267
2015    3        2    15   0    5.0008   472.3    4.911      34.274
2015    3        2    15   5    5.0060   472.1    4.920      34.280
2015    3        2    15  10    5.0112   472.0    4.930      34.286
2015    3        2    15  15    5.0164   471.8    4.939      34.292
2015    3        2    15  21    5.0217   471.7    4.949      34.298
2015    3        2    15  26    5.0269   471.5    4.958      34.305
2015    3        2    15  31    5.0323   471.4    4.968      34.311
2015    3        2    15  36    5.0374   471.3    4.977      34.318
2015    3        2    15  41    5.0427   471.1    4.986      34.325
2015    3        2    15  47    5.0480   471.0    4.996      34.331
2015    3        2    15  52    5.0534   470.9    5.005      34.338
2015    3        2    15  57    5.0587   470.7    5.015      34.345
2015    3        2    16   2    5.0640   470.6    5.024      34.353
2015    3        2    16   7    5.0694   470.5    5.034      34.360
2015    3        2    16  13    5.0748   470.3    5.043      34.368
2015    3        2    16  18    5.0802   470.2    5.052      34.377
2015    3        2    16  23    5.0855   470.1    5.062      34.385
2015    3        2    16  28    5.0909   470.0    5.071      34.394
2015    3        2    16  33    5.0963   469.8    5.080      34.404
2015    3        2    16  39    5.1017   469.7    5.090      34.413
2015    3        2    16  44    5.1071   469.6    5.099      34.423
2015    3        2    16  49    5.1125   469.5    5.108      34.434
2015    3        2    16  54    5.1179   469.4    5.117      34.444
2015    3        2    16  59    5.1233   469.2    5.126      34.455
2015    3        2    17   5    5.1287   469.1    5.135      34.467
2015    3        2    17  10    5.1341   469.0    5.144      34.478
2015    3        2    17  15    5.1394   468.9    5.153      34.489
2015    3        2    17  20    5.1448   468.8    5.161      34.501
2015    3        2    17  25    5.1502   468.7    5.170      34.513
2015    3        2    17  31    5.1556   468.6    5.179      34.525
2015    3        2    17  36    5.1609   468.5    5.187      34.536
2015    3        2    17  41    5.1663   468.4    5.196      34.548
2015    3        2    17  46    5.1716   468.3    5.204      34.559
2015    3        2    17  51    5.1770   468.2    5.213      34.571
2015    3        2    17  57    5.1823   468.1    5.221      34.583
2015    3        2    18   2    5.1877   467.9    5.230      34.594
2015    3        2    18   7    5.1932   467.8    5.238      34.606
2015    3        2    18  12    5.1984   467.7    5.247      34.617
2015    3        2    18  17    5.2038   467.6    5.255      34.629
2015    3        2    18  23    5.2091   467.5    5.263      34.640
2015    3        2    18  28    5.2145   467.4    5.272      34.651
2015    3        2    18  33    5.2200   467.3    5.280      34.663
2015    3        2    18  38    5.2252   467.3    5.288      34.674
2015    3        2    18  43    5.2306   467.2    5.297      34.686
2015    3        2    18  49    5.2361   467.1    5.305      34.697
2015    3        2    18  54    5.2414   467.0    5.313      34.709
2015    3        2    18  59    5.2468   466.9    5.321      34.720
2015    3        2    19   4    5.2522   466.8    5.330      34.732
2015    3        2    19   9    5.2576   466.7    5.338      34.744
2015    3        2    19  15    5.2630   466.6    5.346      34.756
2015    3        2    19  20    5.2684   466.5    5.355      34.768
2015    3        2    19  25    5.2739   466.4    5.363      34.780
2015    3        2    19  30    5.2792   466.3    5.371      34.792
2015    3        2    19  35    5.2847   466.3    5.379      34.804
2015    3        2    19  41    5.2901   466.2    5.388      34.817
2015    3        2    19  46    5.2955   466.1    5.396      34.830
2015    3        2    19  51    5.3010   466.0    5.404      34.842
2015    3        2    19  56    5.3065   465.9    5.412      34.855
2015    3        2    20   1    5.3119   465.8    5.421      34.869
2015    3        2    20   7    5.3174   465.8    5.429      34.882
2015    3        2    20  12    5.3228   465.7    5.437      34.896
2015    3        2    20  17    5.3283   465.6    5.445      34.910
2015    3        2    20  22    5.3338   465.5    5.453      34.924
2015    3        2    20  27    5.3393   465.4    5.462      34.938
2015    3        2    20  33    5.3448   465.4    5.470      34.953
2015    3        2    20  38    5.3503   465.3    5.478      34.968
2015    3        2    20  43    5.3558   465.2    5.486      34.983
2015    3        2    20  48    5.3613   465.1    5.494      34.999
2015    3        2    20  53    5.3669   465.1    5.502      35.014
2015    3        2    20  59    5.3724   465.0    5.510      35.030
2015    3        2    21   4    5.3780   464.9    5.518      35.047
2015    3        2    21   9    5.3835   464.9    5.526      35.063
2015    3        2    21  14    5.3891   464.8    5.534      35.080
2015    3        2    21  19    5.3947   464.7    5.541      35.097
2015    3        2    21  25    5.4003   464.6    5.549      35.115
2015    3        2    21  30    5.4059   464.6    5.557      35.132
2015    3        2    21  35    5.4115   464.5    5.565      35.150
2015    3        2    21  40    5.4172   464.4    5.573      35.169
2015    3        2    21  45    5.4228   464.4    5.581      35.187
2015    3        2    21  51    5.4285   464.3    5.589      35.206
2015    3        2    21  56    5.4342   464.2    5.597      35.225
2015    3        2    22   1    5.4399   464.2    5.606      35.244
2015    3        2    22   6    5.4456   464.1    5.614      35.263
2015    3        2    22  11    5.4514   464.0    5.622      35.283
2015    3        2    22  17    5.4572   464.0    5.630      35.303
2015    3        2    22  22    5.4629   463.9    5.639      35.324
2015    3        2    22  27    5.4687   463.9    5.647      35.345
2015    3        2    22  32    5.4746   463.8    5.656      35.366
2015    3        2    22  37    5.4805   463.7    5.664      35.387
2015    3        2    22  43    5.4863   463.7    5.673      35.409
2015    3        2    22  48    5.4923   463.6    5.682      35.432
2015    3        2    22  53    5.4982   463.6    5.691      35.455
2015    3        2    22  58    5.5041   463.5    5.699      35.479
2015    3        2    23   3    5.5102   463.5    5.708      35.504
2015    3        2    23   9    5.5161   463.4    5.717      35.530
2015    3        2    23  14    5.5221   463.4    5.726      35.557
2015    3        2    23  19    5.5280   463.3    5.735      35.584
2015    3        2    23  24    5.5340   463.3    5.744      35.612
2015    3        2    23  29    5.5400   463.2    5.752      35.641
2015    3        2    23  35    5.5460   463.2    5.761      35.670
2015    3        2    23  40    5.5520   463.2    5.770      35.700
2015    3        2    23  45    5.5579   463.1    5.778      35.731
2015    3        2    23  50    5.5638   463.1    5.787      35.762
2015    3        2    23  55    5.5698   463.1    5.795      35.793
2015    3        3     0   1    5.5756   463.0    5.803      35.825
2015    3        3     0   6    5.5815   463.0    5.811      35.856
2015    3        3     0  11    5.5874   462.9    5.819      35.888
2015    3        3     0  16    5.5932   462.9    5.826      35.919
2015    3        3     0  21    5.5991   462.9    5.834      35.950
2015    3        3     0  27    5.6049   462.9    5.841      35.981
2015    3        3     0  32    5.6107   462.8    5.848      36.012
2015    3        3     0  37    5.6164   462.8    5.856      36.042
2015    3        3     0  42    5.6222   462.8    5.863      36.071
2015    3        3     0  47    5.6279   462.7    5.869      36.100
2015    3        3     0  53    5.6336   462.7    5.876      36.129
2015    3        3     0  58    5.6394   462.7    5.883      36.157
2015    3        3     1   3    5.6451   462.6    5.889      36.185
2015    3        3     1   8    5.6507   462.6    5.896      36.212
2015    3        3     1  13    5.6564   462.6    5.902      36.239
2015    3        3     1  18    5.6621   462.6    5.908      36.265
2015    3        3     1  24    5.6677   462.5    5.915      36.291
2015    3        3     1  29    5.6734   462.5    5.921      36.316
2015    3        3     1  34    5.6790   462.5    5.927      36.341
2015    3        3     1  39    5.6846   462.5    5.933      36.365
2015    3        3     1  44    5.6902   462.4    5.938      36.389
2015    3        3     1  50    5.6958   462.4    5.944      36.413
2015    3        3     1  55    5.7013   462.4    5.950      36.437
2015    3        3     2   0    5.7069   462.4    5.955      36.460
2015    3        3     2   5    5.7125   462.4    5.961      36.483
2015    3        3     2  11    5.7181   462.3    5.966      36.505
2015    3        3     2  16    5.7236   462.3    5.972      36.528
2015    3        3     2  21    5.7292   462.3    5.977      36.550
2015    3        3     2  26    5.7347   462.3    5.983      36.572
2015    3        3     2  31    5.7402   462.2    5.988      36.593
2015    3        3     2  37    5.7457   462.2    5.993      36.615
2015    3        3     2  42    5.7513   462.2    5.998      36.636
2015    3        3     2  47    5.7568   462.2    6.003      36.658
2015    3        3     2  52    5.7623   462.2    6.009      36.679
2015    3        3     2  57    5.7678   462.1    6.014      36.700
2015    3        3     3   3    5.7733   462.1    6.019      36.721
2015    3        3     3   8    5.7788   462.1    6.024      36.742
2015    3        3     3  13    5.7844   462.1    6.029      36.763
2015    3        3     3  18    5.7899   462.1    6.034      36.784
2015    3        3     3  23    5.7954   462.1    6.039      36.805
2015    3        3     3  29    5.8009   462.0    6.043      36.826
2015    3        3     3  34    5.8064   462.0    6.048      36.847
2015    3        3     3  39    5.8119   462.0    6.053      36.868
2015    3        3     3  44    5.8175   462.0    6.058      36.890
2015    3        3     3  49    5.8230   462.0    6.063      36.912
2015    3        3     3  55    5.8286   462.0    6.068      36.934
2015    3        3     4   0    5.8341   462.0    6.073      36.956
2015    3        3     4   5    5.8397   461.9    6.078      36.978
2015    3        3     4  10    5.8453   461.9    6.083      37.001
2015    3        3     4  15    5.8509   461.9    6.088      37.024
2015    3        3     4  21    5.8565   461.9    6.093      37.047
2015    3        3     4  26    5.8621   461.9    6.099      37.071
2015    3        3     4  31    5.8678   461.9    6.104      37.095
2015    3        3     4  36    5.8735   461.9    6.109      37.120
2015    3        3     4  41    5.8791   461.9    6.115      37.145
2015    3        3     4  47    5.8849   461.9    6.120      37.170
2015    3        3     4  52    5.8905   461.8    6.126      37.196
2015    3        3     4  57    5.8964   461.8    6.132      37.223
2015    3        3     5   2    5.9021   461.8    6.137      37.250
2015    3        3     5   7    5.9080   461.8    6.143      37.277
2015    3        3     5  13    5.9138   461.8    6.150      37.305
2015    3        3     5  18    5.9196   461.8    6.156      37.334
2015    3        3     5  23    5.9255   461.8    6.163      37.363
2015    3        3     5  28    5.9315   461.8    6.169      37.393
2015    3        3     5  33    5.9375   461.8    6.176      37.424
2015    3        3     5  39    5.9436   461.8    6.183      37.455
2015    3        3     5  44    5.9496   461.8    6.191      37.487
2015    3        3     5  49    5.9557   461.8    6.198      37.520
2015    3        3     5  54    5.9619   461.8    6.206      37.555
2015    3        3     5  59    5.9680   461.8    6.214      37.592
2015    3        3     6   5    5.9742   461.8    6.222      37.630
2015    3        3     6  10    5.9804   461.8    6.230      37.669
2015    3        3     6  15    5.9866   461.8    6.238      37.710
2015    3        3     6  20    5.9928   461.9    6.246      37.753
2015    3        3     6  25    5.9990   461.9    6.254      37.796
2015    3        3     6  31    6.0052   461.9    6.262      37.841
2015    3        3     6  36    6.0113   461.9    6.270      37.887
2015    3        3     6  41    6.0174   462.0    6.278      37.934
2015    3        3     6  46    6.0235   462.0    6.285      37.982
2015    3        3     6  51    6.0295   462.0    6.293      38.031
2015    3        3     6  57    6.0356   462.0    6.300      38.081
2015    3        3     7   2    6.0415   462.1    6.307      38.131
2015    3        3     7   7    6.0475   462.1    6.314      38.181
2015    3        3     7  12    6.0534   462.1    6.321      38.230
2015    3        3     7  17    6.0593   462.2    6.327      38.279
2015    3        3     7  23    6.0651   462.2    6.333      38.328
2015    3        3     7  28    6.0708   462.3    6.339      38.376
2015    3        3     7  33    6.0766   462.3    6.345      38.423
2015    3        3     7  38    6.0823   462.3    6.350      38.470
2015    3        3     7  43    6.0879   462.4    6.356      38.516
2015    3        3     7  48    6.0935   462.4    6.361      38.561
2015    3        3     7  54    6.0992   462.4    6.366      38.605
2015    3        3     7  59    6.1047   462.5    6.370      38.649
2015    3        3     8   4    6.1103   462.5    6.375      38.691
2015    3        3     8   9    6.1158   462.5    6.379      38.733
2015    3        3     8  14    6.1213   462.6    6.384      38.774
2015    3        3     8  20    6.1268   462.6    6.388      38.815
2015    3        3     8  25    6.1323   462.7    6.392      38.855
2015    3        3     8  30    6.1377   462.7    6.396      38.894
2015    3        3     8  35    6.1431   462.7    6.400      38.933
2015    3        3     8  40    6.1486   462.8    6.403      38.971
2015    3        3     8  46    6.1540   462.8    6.407      39.008
2015    3        3     8  51    6.1594   462.8    6.411      39.045
2015    3        3     8  56    6.1648   462.9    6.414      39.082
2015    3        3     9   1    6.1702   462.9    6.417      39.118
2015    3        3     9   6    6.1756   463.0    6.421      39.154
2015    3        3     9  12    6.1810   463.0    6.424      39.189
2015    3        3     9  17    6.1864   463.0    6.427      39.224
2015    3        3     9  22    6.1918   463.1    6.430      39.258
2015    3        3     9  27    6.1972   463.1    6.433      39.292
2015    3        3     9  32    6.2026   463.1    6.436      39.326
2015    3        3     9  38    6.2080   463.2    6.439      39.359
2015    3        3     9  43    6.2134   463.2    6.442      39.392
2015    3        3     9  48    6.2188   463.3    6.445      39.425
2015    3        3     9  53    6.2242   463.3    6.447      39.457
2015    3        3     9  59    6.2297   463.3    6.450      39.489
2015    3        3    10   4    6.2351   463.4    6.453      39.521
2015    3        3    10   9    6.2405   463.4    6.456      39.553
2015    3        3    10  14    6.2460   463.4    6.458      39.584
2015    3        3    10  19    6.2515   463.5    6.461      39.615
2015    3        3    10  25    6.2570   463.5    6.463      39.646
2015    3        3    10  30    6.2625   463.6    6.466      39.677
2015    3        3    10  35    6.2680   463.6    6.469      39.708
2015    3        3    10  40    6.2735   463.6    6.471      39.739
2015    3        3    10  45    6.2791   463.7    6.474      39.770
2015    3        3    10  51    6.2847   463.7    6.476      39.801
2015    3        3    10  56    6.2903   463.8    6.479      39.832
2015    3        3    11   1    6.2959   463.8    6.482      39.863
2015    3        3    11   6    6.3015   463.8    6.484      39.894
2015    3        3    11  11    6.3072   463.9    6.487      39.926
2015    3        3    11  17    6.3129   463.9    6.490      39.957
2015    3        3    11  22    6.3186   464.0    6.493      39.989
2015    3        3    11  27    6.3243   464.0    6.496      40.021
2015    3        3    11  32    6.3301   464.0    6.499      40.053
2015    3        3    11  37    6.3359   464.1    6.502      40.086
2015    3        3    11  43    6.3417   464.1    6.505      40.119
2015    3        3    11  48    6.3476   464.2    6.508      40.153
2015    3        3    11  53    6.3535   464.2    6.511      40.187
2015    3        3    11  58    6.3594   464.3    6.515      40.221
2015    3        3    12   3    6.3654   464.3    6.519      40.256
2015    3        3    12   9    6.3714   464.4    6.522      40.292
2015    3        3    12  14    6.3775   464.4    6.526      40.328
2015    3        3    12  19    6.3836   464.4    6.531      40.366
2015    3        3    12  24    6.3898   464.5    6.535      40.404
2015    3        3    12  29    6.3960   464.5    6.539      40.442
2015    3        3    12  35    6.4023   464.6    6.544      40.482
2015    3        3    12  40    6.4086   464.6    6.549      40.523
2015    3        3    12  45    6.4151   464.7    6.554      40.565
2015    3        3    12  50    6.4216   464.8    6.559      40.609
2015    3        3    12  55    6.4281   464.8    6.565      40.656
2015    3        3    13   1    6.4347   464.9    6.570      40.704
2015    3        3    13   6    6.4414   465.0    6.575      40.755
2015    3        3    13  11    6.4481   465.0    6.581      40.808
2015    3        3    13  16    6.4548   465.1    6.586      40.863
2015    3        3    13  21    6.4615   465.2    6.591      40.920
2015    3        3    13  27    6.4682   465.3    6.596      40.978
2015    3        3    13  32    6.4749   465.4    6.601      41.038
2015    3        3    13  37    6.4817   465.4    6.605      41.099
2015    3        3    13  42    6.4884   465.5    6.610      41.161
2015    3        3    13  47    6.4951   465.6    6.614      41.225
2015    3        3    13  53    6.5017   465.7    6.618      41.288
2015    3        3    13  58    6.5083   465.8    6.622      41.352
2015    3        3    14   3    6.5149   465.9    6.625      41.416
2015    3        3    14   8    6.5215   466.0    6.629      41.480
2015    3        3    14  13    6.5280   466.1    6.632      41.544
2015    3        3    14  18    6.5346   466.2    6.635      41.606
2015    3        3    14  24    6.5410   466.2    6.638      41.668
2015    3        3    14  29    6.5475   466.3    6.640      41.729
2015    3        3    14  34    6.5539   466.4    6.643      41.789
2015    3        3    14  39    6.5603   466.5    6.645      41.849
2015    3        3    14  44    6.5667   466.6    6.647      41.908
2015    3        3    14  50    6.5732   466.7    6.650      41.966
2015    3        3    14  55    6.5795   466.8    6.652      42.024
2015    3        3    15   0    6.5859   466.9    6.654      42.081
2015    3        3    15   5    6.5922   467.0    6.655      42.137
2015    3        3    15  10    6.5986   467.1    6.657      42.192
2015    3        3    15  16    6.6049   467.1    6.659      42.247
2015    3        3    15  21    6.6112   467.2    6.661      42.302
2015    3        3    15  26    6.6175   467.3    6.662      42.356
2015    3        3    15  31    6.6239   467.4    6.664      42.409
2015    3        3    15  36    6.6301   467.5    6.665      42.462
2015    3        3    15  42    6.6364   467.6    6.667      42.515
2015    3        3    15  47    6.6427   467.7    6.668      42.567
2015    3        3    15  52    6.6490   467.8    6.670      42.619
2015    3        3    15  57    6.6553   467.9    6.671      42.670
2015    3        3    16   2    6.6616   468.0    6.673      42.722
2015    3        3    16   8    6.6678   468.1    6.674      42.773
2015    3        3    16  13    6.6741   468.1    6.676      42.823
2015    3        3    16  18    6.6803   468.2    6.677      42.874
2015    3        3    16  23    6.6865   468.3    6.679      42.924
2015    3        3    16  28    6.6928   468.4    6.681      42.974
2015    3        3    16  34    6.6991   468.5    6.682      43.024
2015    3        3    16  39    6.7053   468.6    6.684      43.075
2015    3        3    16  44    6.7116   468.7    6.686      43.125
2015    3        3    16  49    6.7178   468.8    6.689      43.175
2015    3        3    16  54    6.7240   468.9    6.691      43.225
2015    3        3    17   0    6.7302   469.0    6.694      43.276
2015    3        3    17   5    6.7364   469.1    6.696      43.327
2015    3        3    17  10    6.7426   469.2    6.699      43.379
2015    3        3    17  15    6.7487   469.3    6.703      43.432
2015    3        3    17  20    6.7548   469.4    6.706      43.485
2015    3        3    17  26    6.7608   469.5    6.709      43.541
2015    3        3    17  31    6.7667   469.6    6.713      43.597
2015    3        3    17  36    6.7726   469.7    6.717      43.656
2015    3        3    17  41    6.7784   469.8    6.720      43.717
2015    3        3    17  46    6.7842   469.9    6.724      43.779
2015    3        3    17  52    6.7897   470.1    6.727      43.842
2015    3        3    17  57    6.7953   470.2    6.731      43.906
2015    3        3    18   2    6.8007   470.3    6.734      43.971
2015    3        3    18   7    6.8060   470.4    6.737      44.038
2015    3        3    18  12    6.8111   470.6    6.740      44.104
2015    3        3    18  18    6.8162   470.7    6.743      44.172
2015    3        3    18  23    6.8211   470.8    6.745      44.239
2015    3        3    18  28    6.8259   471.0    6.748      44.307
2015    3        3    18  33    6.8306   471.1    6.750      44.374
2015    3        3    18  38    6.8350   471.2    6.751      44.442
2015    3        3    18  44    6.8395   471.4    6.753      44.508
2015    3        3    18  49    6.8438   471.5    6.754      44.574
2015    3        3    18  54    6.8480   471.6    6.755      44.639
2015    3        3    18  59    6.8521   471.8    6.756      44.704
2015    3        3    19   4    6.8561   471.9    6.757      44.768
2015    3        3    19  10    6.8600   472.0    6.757      44.832
2015    3        3    19  15    6.8638   472.2    6.758      44.896
2015    3        3    19  20    6.8675   472.3    6.758      44.959
2015    3        3    19  25    6.8711   472.4    6.758      45.022
2015    3        3    19  30    6.8748   472.5    6.758      45.085
2015    3        3    19  36    6.8783   472.7    6.758      45.147
2015    3        3    19  41    6.8818   472.8    6.758      45.210
2015    3        3    19  46    6.8852   472.9    6.758      45.272
2015    3        3    19  51    6.8886   473.0    6.758      45.334
2015    3        3    19  56    6.8919   473.2    6.757      45.397
2015    3        3    20   2    6.8952   473.3    6.757      45.459
2015    3        3    20   7    6.8985   473.4    6.757      45.522
2015    3        3    20  12    6.9017   473.5    6.757      45.585
2015    3        3    20  17    6.9049   473.6    6.756      45.649
2015    3        3    20  22    6.9080   473.8    6.756      45.713
2015    3        3    20  28    6.9112   473.9    6.756      45.777
2015    3        3    20  33    6.9143   474.0    6.756      45.843
2015    3        3    20  38    6.9172   474.1    6.755      45.908
2015    3        3    20  43    6.9204   474.3    6.755      45.975
2015    3        3    20  48    6.9234   474.4    6.755      46.042
2015    3        3    20  54    6.9263   474.5    6.754      46.110
2015    3        3    20  59    6.9293   474.6    6.754      46.178
2015    3        3    21   4    6.9320   474.7    6.753      46.248
2015    3        3    21   9    6.9351   474.9    6.753      46.318
2015    3        3    21  14    6.9380   475.0    6.752      46.389
2015    3        3    21  20    6.9407   475.1    6.751      46.460
2015    3        3    21  25    6.9437   475.2    6.750      46.532
2015    3        3    21  30    6.9465   475.4    6.749      46.603
2015    3        3    21  35    6.9491   475.5    6.748      46.676
2015    3        3    21  40    6.9521   475.6    6.746      46.748
2015    3        3    21  46    6.9549   475.7    6.745      46.820
2015    3        3    21  51    6.9577   475.9    6.744      46.892
2015    3        3    21  56    6.9604   476.0    6.742      46.964
2015    3        3    22   1    6.9632   476.1    6.740      47.036
2015    3        3    22   6    6.9659   476.2    6.738      47.107
2015    3        3    22  12    6.9687   476.3    6.736      47.178
2015    3        3    22  17    6.9714   476.5    6.734      47.248
2015    3        3    22  22    6.9742   476.6    6.732      47.318
2015    3        3    22  27    6.9770   476.7    6.730      47.387
2015    3        3    22  32    6.9797   476.8    6.728      47.456
2015    3        3    22  38    6.9825   476.9    6.726      47.524
2015    3        3    22  43    6.9853   477.1    6.724      47.592
2015    3        3    22  48    6.9881   477.2    6.722      47.659
2015    3        3    22  53    6.9909   477.3    6.719      47.726
2015    3        3    22  58    6.9937   477.4    6.717      47.793
2015    3        3    23   4    6.9966   477.5    6.715      47.859
2015    3        3    23   9    6.9995   477.6    6.713      47.925
2015    3        3    23  14    7.0025   477.7    6.711      47.991
2015    3        3    23  19    7.0053   477.8    6.709      48.057
2015    3        3    23  24    7.0085   477.9    6.707      48.122
2015    3        3    23  30    7.0116   478.0    6.705      48.188
2015    3        3    23  35    7.0147   478.1    6.703      48.254
2015    3        3    23  40    7.0180   478.3    6.701      48.319
2015    3        3    23  45    7.0212   478.4    6.700      48.385
2015    3        3    23  50    7.0246   478.5    6.698      48.451
2015    3        3    23  56    7.0280   478.6    6.697      48.517
2015    3        4     0   1    7.0316   478.7    6.696      48.584
2015    3        4     0   6    7.0352   478.8    6.695      48.651
2015    3        4     0  11    7.0389   478.9    6.694      48.719
2015    3        4     0  16    7.0427   479.0    6.694      48.787
2015    3        4     0  22    7.0466   479.1    6.693      48.857
2015    3        4     0  27    7.0506   479.2    6.693      48.927
2015    3        4     0  32    7.0547   479.3    6.693      48.998
2015    3        4     0  37    7.0590   479.4    6.694      49.071
2015    3        4     0  42    7.0633   479.5    6.694      49.144
2015    3        4     0  48    7.0677   479.6    6.695      49.218
2015    3        4     0  53    7.0723   479.8    6.696      49.292
2015    3        4     0  58    7.0769   479.9    6.697      49.367
2015    3        4     1   3    7.0815   480.0    6.697      49.443
2015    3        4     1   8    7.0862   480.1    6.698      49.518
2015    3        4     1  14    7.0910   480.3    6.699      49.593
2015    3        4     1  19    7.0957   480.4    6.700      49.668
2015    3        4     1  24    7.1006   480.5    6.701      49.743
2015    3        4     1  29    7.1054   480.7    6.701      49.816
2015    3        4     1  34    7.1102   480.8    6.702      49.889
2015    3        4     1  40    7.1150   481.0    6.702      49.961
2015    3        4     1  45    7.1198   481.1    6.702      50.031
2015    3        4     1  50    7.1246   481.3    6.701      50.099
2015    3        4     1  55    7.1293   481.4    6.701      50.166
2015    3        4     2   0    7.1340   481.6    6.700      50.231
2015    3        4     2   6    7.1387   481.7    6.699      50.294
2015    3        4     2  11    7.1433   481.9    6.697      50.356
2015    3        4     2  16    7.1480   482.0    6.696      50.415
2015    3        4     2  21    7.1526   482.2    6.694      50.473
2015    3        4     2  26    7.1571   482.3    6.691      50.529
2015    3        4     2  32    7.1616   482.5    6.689      50.582
2015    3        4     2  37    7.1661   482.6    6.686      50.635
2015    3        4     2  42    7.1706   482.8    6.683      50.685
2015    3        4     2  47    7.1750   483.0    6.680      50.734
2015    3        4     2  52    7.1795   483.1    6.677      50.781
2015    3        4     2  58    7.1839   483.3    6.674      50.827
2015    3        4     3   3    7.1883   483.4    6.670      50.871
2015    3        4     3   8    7.1927   483.6    6.667      50.914
2015    3        4     3  13    7.1971   483.8    6.663      50.956
2015    3        4     3  18    7.2016   483.9    6.659      50.997
2015    3        4     3  24    7.2059   484.1    6.655      51.037
2015    3        4     3  29    7.2103   484.2    6.651      51.076
2015    3        4     3  34    7.2147   484.4    6.646      51.113
2015    3        4     3  39    7.2192   484.6    6.642      51.150
2015    3        4     3  44    7.2236   484.7    6.638      51.186
2015    3        4     3  50    7.2280   484.9    6.633      51.222
2015    3        4     3  55    7.2325   485.1    6.629      51.256
2015    3        4     4   0    7.2369   485.2    6.624      51.290
2015    3        4     4   5    7.2414   485.4    6.620      51.323
2015    3        4     4  10    7.2459   485.6    6.615      51.356
2015    3        4     4  16    7.2503   485.7    6.611      51.388
2015    3        4     4  21    7.2548   485.9    6.606      51.420
2015    3        4     4  26    7.2594   486.1    6.602      51.451
2015    3        4     4  31    7.2639   486.2    6.597      51.481
2015    3        4     4  36    7.2684   486.4    6.593      51.512
2015    3        4     4  42    7.2730   486.6    6.588      51.541
2015    3        4     4  47    7.2776   486.7    6.584      51.571
2015    3        4     4  52    7.2822   486.9    6.579      51.600
2015    3        4     4  57    7.2868   487.1    6.575      51.628
2015    3        4     5   2    7.2915   487.2    6.571      51.656
2015    3        4     5   7    7.2962   487.4    6.567      51.684
2015    3        4     5  13    7.3009   487.6    6.563      51.712
2015    3        4     5  18    7.3056   487.7    6.559      51.739
2015    3        4     5  23    7.3104   487.9    6.555      51.766
2015    3        4     5  28    7.3151   488.1    6.551      51.792
2015    3        4     5  33    7.3200   488.2    6.548      51.818
2015    3        4     5  39    7.3247   488.4    6.544      51.844
2015    3        4     5  44    7.3297   488.6    6.541      51.870
2015    3        4     5  49    7.3346   488.8    6.538      51.896
2015    3        4     5  54    7.3395   488.9    6.535      51.922
2015    3        4     5  59    7.3445   489.1    6.532      51.947
2015    3        4     6   5    7.3495   489.3    6.530      51.972
2015    3        4     6  10    7.3545   489.5    6.528      51.998
2015    3        4     6  15    7.3596   489.7    6.526      52.023
2015    3        4     6  20    7.3647   489.9    6.524      52.048
2015    3        4     6  25    7.3698   490.1    6.523      52.073
2015    3        4     6  31    7.3750   490.2    6.522      52.098
2015    3        4     6  36    7.3801   490.4    6.521      52.123
2015    3        4     6  41    7.3854   490.6    6.521      52.148
2015    3        4     6  46    7.3907   490.8    6.521      52.174
2015    3        4     6  51    7.3960   491.0    6.521      52.199
2015    3        4     6  57    7.4013   491.2    6.521      52.224
2015    3        4     7   2    7.4065   491.4    6.522      52.249
2015    3        4     7   7    7.4119   491.6    6.523      52.275
2015    3        4     7  12    7.4172   491.8    6.525      52.300
2015    3        4     7  17    7.4225   492.0    6.526      52.326
2015    3        4     7  23    7.4276   492.2    6.528      52.352
2015    3        4     7  28    7.4329   492.4    6.531      52.379
2015    3        4     7  33    7.4381   492.7    6.533      52.406
2015    3        4     7  38    7.4432   492.9    6.536      52.434
2015    3        4     7  43    7.4482   493.1    6.540      52.462
2015    3        4     7  49    7.4532   493.3    6.543      52.491
2015    3        4     7  54    7.4581   493.5    6.546      52.522
2015    3        4     7  59    7.4629   493.8    6.550      52.553
2015    3        4     8   4    7.4676   494.0    6.553      52.584
2015    3        4     8   9    7.4724   494.2    6.557      52.616
2015    3        4     8  15    7.4770   494.4    6.560      52.649
2015    3        4     8  20    7.4815   494.7    6.564      52.681
2015    3        4     8  25    7.4859   494.9    6.567      52.714
2015    3        4     8  30    7.4902   495.1    6.570      52.746
2015    3        4     8  35    7.4946   495.3    6.573      52.778
2015    3        4     8  41    7.4989   495.6    6.576      52.809
2015    3        4     8  46    7.5030   495.8    6.579      52.840
2015    3        4     8  51    7.5072   496.0    6.581      52.871
2015    3        4     8  56    7.5113   496.3    6.584      52.900
2015    3        4     9   1    7.5153   496.5    6.586      52.930
2015    3        4     9   7    7.5193   496.7    6.588      52.958
2015    3        4     9  12    7.5233   496.9    6.590      52.985
2015    3        4     9  17    7.5272   497.2    6.592      53.012
2015    3        4     9  22    7.5312   497.4    6.593      53.038
2015    3        4     9  27    7.5351   497.6    6.594      53.064
2015    3        4     9  33    7.5390   497.9    6.596      53.090
2015    3        4     9  38    7.5428   498.1    6.597      53.115
2015    3        4     9  43    7.5467   498.3    6.598      53.140
2015    3        4     9  48    7.5506   498.5    6.599      53.164
2015    3        4     9  53    7.5544   498.8    6.600      53.188
2015    3        4     9  59    7.5583   499.0    6.600      53.212
2015    3        4    10   4    7.5621   499.2    6.601      53.236
2015    3        4    10   9    7.5660   499.4    6.602      53.260
2015    3        4    10  14    7.5699   499.7    6.602      53.284
2015    3        4    10  19    7.5738   499.9    6.603      53.307
2015    3        4    10  25    7.5778   500.1    6.603      53.331
2015    3        4    10  30    7.5818   500.3    6.604      53.355
2015    3        4    10  35    7.5858   500.6    6.605      53.379
2015    3        4    10  40    7.5898   500.8    6.605      53.403
2015    3        4    10  45    7.5939   501.0    6.606      53.428
2015    3        4    10  51    7.5980   501.2    6.607      53.454
2015    3        4    10  56    7.6022   501.5    6.607      53.481
2015    3        4    11   1    7.6064   501.7    6.608      53.510
2015    3        4    11   6    7.6106   501.9    6.608      53.541
2015    3        4    11  11    7.6149   502.2    6.609      53.573
2015    3        4    11  17    7.6192   502.4    6.609      53.606
2015    3        4    11  22    7.6234   502.7    6.610      53.641
2015    3        4    11  27    7.6278   502.9    6.610      53.677
2015    3        4    11  32    7.6321   503.1    6.611      53.715
2015    3        4    11  37    7.6364   503.4    6.611      53.754
2015    3        4    11  43    7.6407   503.7    6.611      53.795
2015    3        4    11  48    7.6450   503.9    6.611      53.838
2015    3        4    11  53    7.6492   504.2    6.610      53.883
2015    3        4    11  58    7.6533   504.4    6.610      53.928
2015    3        4    12   3    7.6575   504.7    6.609      53.975
2015    3        4    12   9    7.6617   505.0    6.608      54.022
2015    3        4    12  14    7.6658   505.3    6.607      54.070
2015    3        4    12  19    7.6697   505.5    6.605      54.118
2015    3        4    12  24    7.6738   505.8    6.604      54.167
2015    3        4    12  29    7.6776   506.1    6.602      54.216
2015    3        4    12  35    7.6815   506.4    6.600      54.266
2015    3        4    12  40    7.6852   506.7    6.597      54.316
2015    3        4    12  45    7.6889   507.0    6.594      54.366
2015    3        4    12  50    7.6925   507.3    6.592      54.416
2015    3        4    12  55    7.6961   507.6    6.588      54.467
2015    3        4    13   1    7.6997   507.9    6.585      54.517
2015    3        4    13   6    7.7031   508.1    6.582      54.567
2015    3        4    13  11    7.7066   508.4    6.578      54.617
2015    3        4    13  16    7.7100   508.7    6.574      54.667
2015    3        4    13  21    7.7133   509.0    6.570      54.717
2015    3        4    13  26    7.7167   509.3    6.566      54.767
2015    3        4    13  32    7.7199   509.6    6.561      54.817
2015    3        4    13  37    7.7232   509.9    6.557      54.866
2015    3        4    13  42    7.7264   510.2    6.553      54.916
2015    3        4    13  47    7.7297   510.5    6.548      54.965
2015    3        4    13  52    7.7329   510.8    6.543      55.014
2015    3        4    13  58    7.7360   511.1    6.538      55.063
2015    3        4    14   3    7.7392   511.4    6.534      55.111
2015    3        4    14   8    7.7423   511.7    6.529      55.160
2015    3        4    14  13    7.7455   512.0    6.524      55.209
2015    3        4    14  18    7.7486   512.3    6.519      55.257
2015    3        4    14  24    7.7517   512.6    6.514      55.306
2015    3        4    14  29    7.7548   512.9    6.509      55.355
2015    3        4    14  34    7.7579   513.2    6.503      55.404
2015    3        4    14  39    7.7609   513.5    6.498      55.452
2015    3        4    14  44    7.7640   513.8    6.493      55.502
2015    3        4    14  50    7.7671   514.1    6.488      55.551
2015    3        4    14  55    7.7702   514.4    6.483      55.601
2015    3        4    15   0    7.7732   514.7    6.478      55.651
2015    3        4    15   5    7.7763   515.0    6.473      55.701
2015    3        4    15  10    7.7794   515.3    6.468      55.752
2015    3        4    15  16    7.7825   515.6    6.463      55.803
2015    3        4    15  21    7.7856   515.9    6.458      55.855
2015    3        4    15  26    7.7888   516.3    6.454      55.908
2015    3        4    15  31    7.7919   516.6    6.449      55.964
2015    3        4    15  36    7.7951   516.9    6.444      56.020
2015    3        4    15  42    7.7982   517.2    6.440      56.080
2015    3        4    15  47    7.8013   517.5    6.435      56.141
2015    3        4    15  52    7.8044   517.8    6.430      56.206
2015    3        4    15  57    7.8075   518.2    6.425      56.272
2015    3        4    16   2    7.8105   518.5    6.420      56.340
2015    3        4    16   8    7.8134   518.8    6.415      56.409
2015    3        4    16  13    7.8163   519.1    6.410      56.480
2015    3        4    16  18    7.8189   519.5    6.405      56.553
2015    3        4    16  23    7.8218   519.8    6.399      56.626
2015    3        4    16  28    7.8245   520.2    6.393      56.701
2015    3        4    16  34    7.8270   520.5    6.387      56.776
2015    3        4    16  39    7.8295   520.8    6.381      56.851
2015    3        4    16  44    7.8319   521.2    6.375      56.926
2015    3        4    16  49    7.8342   521.5    6.369      57.002
2015    3        4    16  54    7.8365   521.8    6.362      57.076
2015    3        4    17   0    7.8386   522.2    6.355      57.149
2015    3        4    17   5    7.8407   522.5    6.348      57.222
2015    3        4    17  10    7.8425   522.9    6.341      57.294
2015    3        4    17  15    7.8447   523.2    6.334      57.365
2015    3        4    17  20    7.8466   523.5    6.326      57.436
2015    3        4    17  26    7.8484   523.9    6.319      57.506
2015    3        4    17  31    7.8502   524.2    6.311      57.575
2015    3        4    17  36    7.8517   524.6    6.303      57.643
2015    3        4    17  41    7.8536   524.9    6.295      57.711
2015    3        4    17  46    7.8552   525.3    6.287      57.778
2015    3        4    17  52    7.8567   525.6    6.279      57.844
2015    3        4    17  57    7.8582   526.0    6.271      57.909
2015    3        4    18   2    7.8597   526.3    6.263      57.973
2015    3        4    18   7    7.8611   526.6    6.254      58.037
2015    3        4    18  12    7.8624   527.0    6.246      58.099
2015    3        4    18  18    7.8637   527.3    6.237      58.161
2015    3        4    18  23    7.8650   527.7    6.229      58.222
2015    3        4    18  28    7.8662   528.0    6.220      58.282
2015    3        4    18  33    7.8673   528.3    6.212      58.342
2015    3        4    18  38    7.8685   528.7    6.203      58.401
2015    3        4    18  44    7.8696   529.0    6.194      58.459
2015    3        4    18  49    7.8707   529.3    6.186      58.518
2015    3        4    18  54    7.8717   529.7    6.177      58.577
2015    3        4    18  59    7.8725   530.0    6.169      58.636
2015    3        4    19   4    7.8735   530.3    6.160      58.695
2015    3        4    19  10    7.8748   530.7    6.151      58.754
2015    3        4    19  15    7.8757   531.0    6.143      58.813
2015    3        4    19  20    7.8766   531.4    6.134      58.872
2015    3        4    19  25    7.8772   531.7    6.126      58.931
2015    3        4    19  30    7.8783   532.1    6.117      58.990
2015    3        4    19  36    7.8790   532.4    6.109      59.049
2015    3        4    19  41    7.8798   532.8    6.100      59.108
2015    3        4    19  46    7.8801   533.1    6.091      59.166
2015    3        4    19  51    7.8810   533.5    6.083      59.224
2015    3        4    19  56    7.8815   533.9    6.074      59.281
2015    3        4    20   2    7.8820   534.2    6.065      59.338
2015    3        4    20   7    7.8821   534.6    6.056      59.394
2015    3        4    20  12    7.8827   534.9    6.047      59.449
2015    3        4    20  17    7.8830   535.3    6.039      59.504
2015    3        4    20  22    7.8832   535.6    6.030      59.558
2015    3        4    20  28    7.8833   536.0    6.021      59.611
2015    3        4    20  33    7.8834   536.4    6.012      59.664
2015    3        4    20  38    7.8834   536.7    6.003      59.717
2015    3        4    20  43    7.8834   537.1    5.993      59.769
2015    3        4    20  48    7.8833   537.4    5.984      59.821
2015    3        4    20  53    7.8831   537.8    5.975      59.872
2015    3        4    20  59    7.8829   538.1    5.966      59.923
2015    3        4    21   4    7.8827   538.5    5.957      59.974
2015    3        4    21   9    7.8824   538.9    5.948      60.025
2015    3        4    21  14    7.8821   539.2    5.939      60.075
2015    3        4    21  19    7.8817   539.6    5.929      60.126
2015    3        4    21  25    7.8812   539.9    5.920      60.176
2015    3        4    21  30    7.8807   540.3    5.911      60.227
2015    3        4    21  35    7.8802   540.7    5.902      60.277
2015    3        4    21  40    7.8796   541.0    5.892      60.327
2015    3        4    21  45    7.8787   541.4    5.883      60.377
2015    3        4    21  51    7.8780   541.8    5.873      60.427
2015    3        4    21  56    7.8776   542.1    5.864      60.476
2015    3        4    22   1    7.8768   542.5    5.855      60.526
2015    3        4    22   6    7.8756   542.8    5.845      60.575
2015    3        4    22  11    7.8751   543.2    5.836      60.624
2015    3        4    22  17    7.8738   543.6    5.826      60.672
2015    3        4    22  22    7.8732   543.9    5.816      60.721
2015    3        4    22  27    7.8723   544.3    5.807      60.769
2015    3        4    22  32    7.8712   544.6    5.797      60.817
2015    3        4    22  37    7.8702   545.0    5.788      60.865
2015    3        4    22  43    7.8690   545.4    5.778      60.912
2015    3        4    22  48    7.8679   545.7    5.768      60.959
2015    3        4    22  53    7.8667   546.1    5.759      61.006
2015    3        4    22  58    7.8655   546.4    5.749      61.053
2015    3        4    23   3    7.8643   546.8    5.739      61.100
2015    3        4    23   9    7.8630   547.1    5.730      61.147
2015    3        4    23  14    7.8617   547.5    5.720      61.194
2015    3        4    23  19    7.8604   547.8    5.710      61.241
2015    3        4    23  24    7.8586   548.2    5.701      61.288
2015    3        4    23  29    7.8577   548.5    5.691      61.335
2015    3        4    23  35    7.8563   548.9    5.681      61.382
2015    3        4    23  40    7.8549   549.2    5.672      61.429
2015    3        4    23  45    7.8534   549.6    5.662      61.477
2015    3        4    23  50    7.8520   549.9    5.653      61.524
2015    3        4    23  55    7.8504   550.3    5.643      61.571
2015    3        5     0   1    7.8489   550.6    5.634      61.618
2015    3        5     0   6    7.8468   550.9    5.624      61.666
2015    3        5     0  11    7.8457   551.3    5.615      61.713
2015    3        5     0  16    7.8440   551.6    5.605      61.760
2015    3        5     0  21    7.8423   552.0    5.596      61.807
2015    3        5     0  27    7.8406   552.3    5.587      61.854
2015    3        5     0  32    7.8388   552.6    5.577      61.901
2015    3        5     0  37    7.8370   553.0    5.568      61.948
2015    3        5     0  42    7.8352   553.3    5.559      61.995
2015    3        5     0  47    7.8333   553.7    5.550      62.042
2015    3        5     0  53    7.8314   554.0    5.541      62.088
2015    3        5     0  58    7.8295   554.3    5.532      62.135
2015    3        5     1   3    7.8276   554.6    5.523      62.181
2015    3        5     1   8    7.8256   555.0    5.514      62.227
2015    3        5     1  13    7.8237   555.3    5.505      62.274
2015    3        5     1  19    7.8217   555.6    5.497      62.319
2015    3        5     1  24    7.8198   555.9    5.488      62.366
2015    3        5     1  29    7.8178   556.2    5.480      62.412
2015    3        5     1  34    7.8159   556.5    5.472      62.459
2015    3        5     1  39    7.8139   556.9    5.464      62.507
2015    3        5     1  45    7.8120   557.2    5.456      62.555
2015    3        5     1  50    7.8101   557.5    5.448      62.604
2015    3        5     1  55    7.8083   557.8    5.440      62.654
2015    3        5     2   0    7.8064   558.1    5.433      62.705
2015    3        5     2   5    7.8045   558.4    5.425      62.756
2015    3        5     2  11    7.8027   558.7    5.418      62.809
2015    3        5     2  16    7.8008   559.0    5.410      62.862
2015    3        5     2  21    7.7989   559.4    5.403      62.916
2015    3        5     2  26    7.7969   559.7    5.395      62.969
2015    3        5     2  31    7.7945   560.0    5.388      63.023
2015    3        5     2  37    7.7928   560.4    5.380      63.075
2015    3        5     2  42    7.7907   560.7    5.373      63.127
2015    3        5     2  47    7.7886   561.0    5.365      63.177
2015    3        5     2  52    7.7863   561.4    5.357      63.227
2015    3        5     2  57    7.7840   561.7    5.350      63.276
2015    3        5     3   3    7.7817   562.0    5.342      63.324
2015    3        5     3   8    7.7793   562.3    5.334      63.370
2015    3        5     3  13    7.7764   562.7    5.326      63.416
2015    3        5     3  18    7.7739   563.0    5.318      63.461
2015    3        5     3  23    7.7717   563.3    5.310      63.505
2015    3        5     3  29    7.7691   563.7    5.301      63.548
2015    3        5     3  34    7.7665   564.0    5.293      63.590
2015    3        5     3  39    7.7638   564.3    5.285      63.632
2015    3        5     3  44    7.7611   564.6    5.277      63.674
2015    3        5     3  49    7.7583   565.0    5.269      63.715
2015    3        5     3  55    7.7555   565.3    5.260      63.756
2015    3        5     4   0    7.7523   565.6    5.252      63.796
2015    3        5     4   5    7.7497   565.9    5.244      63.836
2015    3        5     4  10    7.7468   566.2    5.235      63.876
2015    3        5     4  15    7.7439   566.6    5.227      63.915
2015    3        5     4  20    7.7409   566.9    5.219      63.954
2015    3        5     4  26    7.7379   567.2    5.211      63.993
2015    3        5     4  31    7.7349   567.5    5.202      64.032
2015    3        5     4  36    7.7318   567.8    5.194      64.071
2015    3        5     4  41    7.7288   568.2    5.186      64.110
2015    3        5     4  46    7.7257   568.5    5.177      64.149
2015    3        5     4  52    7.7226   568.8    5.169      64.188
2015    3        5     4  57    7.7195   569.1    5.161      64.227
2015    3        5     5   2    7.7163   569.4    5.153      64.266
2015    3        5     5   7    7.7131   569.8    5.144      64.305
2015    3        5     5  12    7.7100   570.1    5.136      64.344
2015    3        5     5  18    7.7067   570.4    5.128      64.383
2015    3        5     5  23    7.7032   570.7    5.120      64.422
2015    3        5     5  28    7.7002   571.0    5.112      64.461
2015    3        5     5  33    7.6970   571.4    5.104      64.501
2015    3        5     5  38    7.6937   571.7    5.096      64.540
2015    3        5     5  44    7.6905   572.0    5.087      64.579
2015    3        5     5  49    7.6872   572.3    5.079      64.618
2015    3        5     5  54    7.6837   572.6    5.071      64.658
2015    3        5     5  59    7.6807   572.9    5.063      64.698
2015    3        5     6   4    7.6774   573.2    5.055      64.737
2015    3        5     6  10    7.6739   573.5    5.048      64.778
2015    3        5     6  15    7.6709   573.8    5.040      64.819
2015    3        5     6  20    7.6676   574.2    5.032      64.860
2015    3        5     6  25    7.6644   574.5    5.024      64.901
2015    3        5     6  30    7.6612   574.8    5.017      64.943
2015    3        5     6  36    7.6580   575.1    5.009      64.986
2015    3        5     6  41    7.6548   575.4    5.002      65.028
2015    3        5     6  46    7.6516   575.7    4.994      65.072
2015    3        5     6  51    7.6484   576.0    4.987      65.116
2015    3        5     6  56    7.6452   576.3    4.980      65.160
2015    3        5     7   2    7.6421   576.6    4.973      65.205
2015    3        5     7   7    7.6390   576.8    4.966      65.251
2015    3        5     7  12    7.6358   577.1    4.959      65.297
2015    3        5     7  17    7.6327   577.4    4.952      65.343
2015    3        5     7  22    7.6295   577.7    4.945      65.389
2015    3        5     7  28    7.6264   578.0    4.938      65.436
2015    3        5     7  33    7.6232   578.3    4.932      65.483
2015    3        5     7  38    7.6201   578.6    4.925      65.530
2015    3        5     7  43    7.6167   578.9    4.919      65.577
2015    3        5     7  48    7.6137   579.2    4.912      65.624
2015    3        5     7  54    7.6105   579.5    4.906      65.671
2015    3        5     7  59    7.6074   579.7    4.900      65.718
2015    3        5     8   4    7.6042   580.0    4.893      65.765
2015    3        5     8   9    7.6010   580.3    4.887      65.811
2015    3        5     8  14    7.5978   580.6    4.881      65.857
2015    3        5     8  20    7.5946   580.9    4.875      65.903
2015    3        5     8  25    7.5914   581.1    4.869      65.948
2015    3        5     8  30    7.5881   581.4    4.863      65.993
2015    3        5     8  35    7.5849   581.7    4.857      66.038
2015    3        5     8  40    7.5817   582.0    4.851      66.083
2015    3        5     8  46    7.5785   582.2    4.845      66.127
2015    3        5     8  51    7.5751   582.5    4.839      66.171
2015    3        5     8  56    7.5720   582.8    4.833      66.215
2015    3        5     9   1    7.5687   583.1    4.827      66.258
2015    3        5     9   6    7.5654   583.3    4.821      66.301
2015    3        5     9  12    7.5621   583.6    4.815      66.343
2015    3        5     9  17    7.5588   583.9    4.808      66.385
2015    3        5     9  22    7.5554   584.2    4.802      66.425
2015    3        5     9  27    7.5521   584.4    4.796      66.465
2015    3        5     9  32    7.5488   584.7    4.790      66.504
2015    3        5     9  38    7.5453   585.0    4.783      66.543
2015    3        5     9  43    7.5419   585.3    4.777      66.581
2015    3        5     9  48    7.5385   585.5    4.770      66.619
2015    3        5     9  53    7.5350   585.8    4.764      66.655
2015    3        5     9  58    7.5315   586.1    4.757      66.690
2015    3        5    10   4    7.5280   586.4    4.751      66.725
2015    3        5    10   9    7.5245   586.7    4.744      66.759
2015    3        5    10  14    7.5209   586.9    4.737      66.792
2015    3        5    10  19    7.5174   587.2    4.730      66.825
2015    3        5    10  24    7.5138   587.5    4.723      66.857
2015    3        5    10  30    7.5102   587.8    4.717      66.888
2015    3        5    10  35    7.5066   588.0    4.710      66.919
2015    3        5    10  40    7.5030   588.3    4.703      66.948
2015    3        5    10  45    7.4994   588.6    4.696      66.978
2015    3        5    10  50    7.4958   588.9    4.689      67.007
2015    3        5    10  55    7.4921   589.1    4.682      67.035
2015    3        5    11   1    7.4885   589.4    4.675      67.063
2015    3        5    11   6    7.4848   589.7    4.668      67.090
2015    3        5    11  11    7.4811   590.0    4.661      67.116
2015    3        5    11  16    7.4775   590.2    4.654      67.143
2015    3        5    11  21    7.4738   590.5    4.647      67.168
2015    3        5    11  27    7.4701   590.8    4.640      67.194
2015    3        5    11  32    7.4663   591.1    4.633      67.219
2015    3        5    11  37    7.4626   591.3    4.626      67.244
2015    3        5    11  42    7.4589   591.6    4.619      67.268
2015    3        5    11  47    7.4552   591.9    4.612      67.292
2015    3        5    11  53    7.4515   592.1    4.605      67.316
2015    3        5    11  58    7.4477   592.4    4.598      67.340
2015    3        5    12   3    7.4440   592.7    4.591      67.364
2015    3        5    12   8    7.4402   592.9    4.584      67.388
2015    3        5    12  13    7.4365   593.2    4.578      67.412
2015    3        5    12  19    7.4328   593.5    4.571      67.436
2015    3        5    12  24    7.4290   593.7    4.564      67.460
2015    3        5    12  29    7.4253   594.0    4.558      67.484
2015    3        5    12  34    7.4215   594.3    4.551      67.509
2015    3        5    12  39    7.4178   594.5    4.545      67.534
2015    3        5    12  45    7.4141   594.8    4.539      67.559
2015    3        5    12  50    7.4104   595.1    4.532      67.585
2015    3        5    12  55    7.4066   595.3    4.526      67.612
2015    3        5    13   0    7.4029   595.6    4.520      67.639
2015    3        5    13   5    7.3992   595.8    4.514      67.667
2015    3        5    13  11    7.3955   596.1    4.508      67.696
2015    3        5    13  16    7.3918   596.3    4.503      67.726
2015    3        5    13  21    7.3881   596.6    4.497      67.757
2015    3        5    13  26    7.3844   596.9    4.492      67.790
2015    3        5    13  31    7.3808   597.1    4.486      67.823
2015    3        5    13  37    7.3771   597.4    4.481      67.857
2015    3        5    13  42    7.3735   597.6    4.476      67.892
2015    3        5    13  47    7.3698   597.9    4.471      67.929
2015    3        5    13  52    7.3662   598.1    4.466      67.966
2015    3        5    13  57    7.3625   598.4    4.461      68.004
2015    3        5    14   3    7.3589   598.6    4.456      68.043
2015    3        5    14   8    7.3553   598.9    4.452      68.083
2015    3        5    14  13    7.3517   599.1    4.447      68.124
2015    3        5    14  18    7.3481   599.4    4.442      68.167
2015    3        5    14  23    7.3444   599.6    4.438      68.209
2015    3        5    14  29    7.3408   599.9    4.433      68.252
2015    3        5    14  34    7.3372   600.1    4.428      68.295
2015    3        5    14  39    7.3336   600.4    4.423      68.338
2015    3        5    14  44    7.3299   600.6    4.418      68.379
2015    3        5    14  49    7.3263   600.9    4.413      68.421
2015    3        5    14  55    7.3226   601.1    4.408      68.461
2015    3        5    15   0    7.3189   601.4    4.403      68.501
2015    3        5    15   5    7.3153   601.6    4.397      68.540
2015    3        5    15  10    7.3115   601.9    4.392      68.577
2015    3        5    15  15    7.3078   602.1    4.387      68.614
2015    3        5    15  21    7.3041   602.4    4.381      68.649
2015    3        5    15  26    7.3003   602.6    4.375      68.683
2015    3        5    15  31    7.2966   602.9    4.370      68.716
2015    3        5    15  36    7.2928   603.1    4.364      68.748
2015    3        5    15  41    7.2890   603.3    4.358      68.778
2015    3        5    15  47    7.2852   603.6    4.352      68.808
2015    3        5    15  52    7.2814   603.8    4.346      68.836
2015    3        5    15  57    7.2776   604.1    4.340      68.863
2015    3        5    16   2    7.2738   604.3    4.334      68.890
2015    3        5    16   7    7.2700   604.5    4.328      68.915
2015    3        5    16  13    7.2662   604.8    4.322      68.940
2015    3        5    16  18    7.2623   605.0    4.316      68.964
2015    3        5    16  23    7.2586   605.2    4.310      68.987
2015    3        5    16  28    7.2547   605.5    4.304      69.009
2015    3        5    16  33    7.2508   605.7    4.298      69.031
2015    3        5    16  38    7.2470   605.9    4.292      69.051
2015    3        5    16  44    7.2432   606.2    4.286      69.071
2015    3        5    16  49    7.2393   606.4    4.280      69.091
2015    3        5    16  54    7.2355   606.6    4.273      69.109
2015    3        5    16  59    7.2317   606.8    4.267      69.127
2015    3        5    17   4    7.2278   607.1    4.261      69.145
2015    3        5    17  10    7.2240   607.3    4.255      69.162
2015    3        5    17  15    7.2202   607.5    4.249      69.179
2015    3        5    17  20    7.2164   607.7    4.243      69.195
2015    3        5    17  25    7.2126   608.0    4.237      69.211
2015    3        5    17  30    7.2087   608.2    4.231      69.227
2015    3        5    17  36    7.2050   608.4    4.225      69.242
2015    3        5    17  41    7.2011   608.6    4.219      69.257
2015    3        5    17  46    7.1974   608.9    4.213      69.272
2015    3        5    17  51    7.1936   609.1    4.207      69.287
2015    3        5    17  56    7.1898   609.3    4.201      69.302
2015    3        5    18   2    7.1861   609.5    4.195      69.317
2015    3        5    18   7    7.1822   609.8    4.189      69.332
2015    3        5    18  12    7.1785   610.0    4.184      69.347
2015    3        5    18  17    7.1747   610.2    4.178      69.361
2015    3        5    18  22    7.1709   610.4    4.172      69.376
2015    3        5    18  28    7.1671   610.6    4.167      69.391
2015    3        5    18  33    7.1634   610.9    4.162      69.407
2015    3        5    18  38    7.1596   611.1    4.156      69.422
2015    3        5    18  43    7.1558   611.3    4.151      69.438
2015    3        5    18  48    7.1520   611.5    4.146      69.454
2015    3        5    18  54    7.1482   611.7    4.140      69.470
2015    3        5    18  59    7.1445   611.9    4.135      69.486
2015    3        5    19   4    7.1407   612.2    4.130      69.502
2015    3        5    19   9    7.1369   612.4    4.125      69.519
2015    3        5    19  14    7.1332   612.6    4.121      69.536
2015    3        5    19  20    7.1294   612.8    4.116      69.553
2015    3        5    19  25    7.1258   613.0    4.111      69.571
2015    3        5    19  30    7.1219   613.2    4.107      69.588
2015    3        5    19  35    7.1182   613.4    4.102      69.607
2015    3        5    19  40    7.1144   613.7    4.098      69.625
2015    3        5    19  46    7.1107   613.9    4.093      69.644
2015    3        5    19  51    7.1070   614.1    4.089      69.664
2015    3        5    19  56    7.1033   614.3    4.085      69.684
2015    3        5    20   1    7.0996   614.5    4.081      69.704
2015    3        5    20   6    7.0959   614.7    4.077      69.725
2015    3        5    20  12    7.0922   614.9    4.073      69.746
2015    3        5    20  17    7.0885   615.1    4.069      69.768
2015    3        5    20  22    7.0848   615.3    4.065      69.790
2015    3        5    20  27    7.0811   615.5    4.061      69.812
2015    3        5    20  32    7.0774   615.7    4.057      69.834
2015    3        5    20  38    7.0736   615.9    4.053      69.856
2015    3        5    20  43    7.0699   616.1    4.049      69.878
2015    3        5    20  48    7.0663   616.3    4.045      69.900
2015    3        5    20  53    7.0625   616.5    4.041      69.922
2015    3        5    20  58    7.0588   616.7    4.037      69.945
2015    3        5    21   4    7.0552   616.9    4.033      69.968
2015    3        5    21   9    7.0514   617.1    4.029      69.992
2015    3        5    21  14    7.0477   617.3    4.025      70.015
2015    3        5    21  19    7.0440   617.5    4.020      70.039
2015    3        5    21  24    7.0403   617.7    4.016      70.062
2015    3        5    21  29    7.0366   617.9    4.012      70.086
2015    3        5    21  35    7.0330   618.1    4.008      70.109
2015    3        5    21  40    7.0293   618.3    4.003      70.131
2015    3        5    21  45    7.0257   618.5    3.999      70.153
2015    3        5    21  50    7.0220   618.7    3.994      70.174
2015    3        5    21  55    7.0184   618.9    3.990      70.195
2015    3        5    22   1    7.0148   619.0    3.985      70.216
2015    3        5    22   6    7.0111   619.2    3.980      70.235
2015    3        5    22  11    7.0075   619.4    3.976      70.253
2015    3        5    22  16    7.0038   619.6    3.971      70.271
2015    3        5    22  21    7.0002   619.8    3.966      70.287
2015    3        5    22  27    6.9966   620.0    3.961      70.303
2015    3        5    22  32    6.9930   620.2    3.957      70.318
2015    3        5    22  37    6.9894   620.4    3.952      70.332
2015    3        5    22  42    6.9858   620.5    3.947      70.346
2015    3        5    22  47    6.9821   620.7    3.942      70.359
2015    3        5    22  53    6.9785   620.9    3.937      70.371
2015    3        5    22  58    6.9748   621.1    3.932      70.383
2015    3        5    23   3    6.9713   621.2    3.927      70.394
2015    3        5    23   8    6.9676   621.4    3.922      70.405
2015    3        5    23  13    6.9640   621.6    3.918      70.415
2015    3        5    23  19    6.9604   621.8    3.913      70.426
2015    3        5    23  24    6.9568   621.9    3.908      70.436
2015    3        5    23  29    6.9532   622.1    3.903      70.446
2015    3        5    23  34    6.9497   622.3    3.898      70.455
2015    3        5    23  39    6.9462   622.4    3.894      70.465
2015    3        5    23  45    6.9427   622.6    3.889      70.475
2015    3        5    23  50    6.9392   622.8    3.884      70.484
2015    3        5    23  55    6.9357   622.9    3.880      70.495
2015    3        6     0   0    6.9323   623.1    3.875      70.505
2015    3        6     0   5    6.9290   623.3    3.871      70.516
2015    3        6     0  11    6.9256   623.4    3.867      70.527
2015    3        6     0  16    6.9223   623.6    3.862      70.538
2015    3        6     0  21    6.9190   623.7    3.858      70.550
2015    3        6     0  26    6.9158   623.9    3.854      70.564
2015    3        6     0  31    6.9125   624.1    3.850      70.578
2015    3        6     0  37    6.9093   624.2    3.847      70.593
2015    3        6     0  42    6.9061   624.4    3.843      70.609
2015    3        6     0  47    6.9029   624.6    3.839      70.627
2015    3        6     0  52    6.8997   624.7    3.835      70.644
2015    3        6     0  57    6.8966   624.9    3.832      70.662
2015    3        6     1   3    6.8933   625.1    3.828      70.681
2015    3        6     1   8    6.8901   625.3    3.825      70.700
2015    3        6     1  13    6.8868   625.4    3.821      70.719
2015    3        6     1  18    6.8835   625.6    3.818      70.738
2015    3        6     1  23    6.8803   625.8    3.814      70.757
2015    3        6     1  28    6.8770   625.9    3.811      70.775
2015    3        6     1  34    6.8737   626.1    3.807      70.794
2015    3        6     1  39    6.8704   626.3    3.804      70.812
2015    3        6     1  44    6.8671   626.5    3.800      70.829
2015    3        6     1  49    6.8637   626.6    3.797      70.847
2015    3        6     1  54    6.8604   626.8    3.794      70.864
2015    3        6     2   0    6.8571   627.0    3.790      70.881
2015    3        6     2   5    6.8537   627.1    3.787      70.897
2015    3        6     2  10    6.8504   627.3    3.784      70.914
2015    3        6     2  15    6.8470   627.5    3.780      70.931
2015    3        6     2  20    6.8437   627.6    3.777      70.948
2015    3        6     2  26    6.8403   627.8    3.774      70.964
2015    3        6     2  31    6.8370   628.0    3.770      70.981
2015    3        6     2  36    6.8336   628.1    3.767      70.997
2015    3        6     2  41    6.8303   628.3    3.764      71.013
2015    3        6     2  46    6.8269   628.4    3.761      71.029
2015    3        6     2  52    6.8235   628.6    3.757      71.045
2015    3        6     2  57    6.8201   628.8    3.754      71.061
2015    3        6     3   2    6.8168   628.9    3.751      71.076
2015    3        6     3   7    6.8134   629.1    3.747      71.091
2015    3        6     3  12    6.8099   629.3    3.744      71.105
2015    3        6     3  18    6.8066   629.4    3.740      71.118
2015    3        6     3  23    6.8031   629.6    3.737      71.130
2015    3        6     3  28    6.7996   629.7    3.733      71.141
2015    3        6     3  33    6.7962   629.9    3.729      71.152
2015    3        6     3  38    6.7927   630.1    3.726      71.161
2015    3        6     3  44    6.7892   630.2    3.722      71.169
2015    3        6     3  49    6.7857   630.4    3.718      71.176
2015    3        6     3  54    6.7822   630.5    3.714      71.183
2015    3        6     3  59    6.7787   630.7    3.710      71.188
2015    3        6     4   4    6.7752   630.8    3.706      71.192
2015    3        6     4  10    6.7717   631.0    3.702      71.196
2015    3        6     4  15    6.7682   631.1    3.698      71.199
2015    3        6     4  20    6.7646   631.3    3.694      71.201
2015    3        6     4  25    6.7611   631.4    3.690      71.203
2015    3        6     4  30    6.7576   631.6    3.685      71.205
2015    3        6     4  36    6.7541   631.7    3.681      71.206
2015    3        6     4  41    6.7506   631.9    3.677      71.207
2015    3        6     4  46    6.7471   632.0    3.673      71.207
2015    3        6     4  51    6.7436   632.2    3.669      71.207
2015    3        6     4  56    6.7401   632.3    3.665      71.206
2015    3        6     5   2    6.7367   632.4    3.660      71.205
2015    3        6     5   7    6.7332   632.6    3.656      71.204
2015    3        6     5  12    6.7297   632.7    3.652      71.202
2015    3        6     5  17    6.7262   632.8    3.648      71.200
2015    3        6     5  22    6.7227   633.0    3.644      71.198
2015    3        6     5  28    6.7192   633.1    3.640      71.195
2015    3        6     5  33    6.7157   633.2    3.636      71.192
2015    3        6     5  38    6.7123   633.4    3.632      71.188
2015    3        6     5  43    6.7088   633.5    3.628      71.184
2015    3        6     5  48    6.7053   633.6    3.624      71.181
2015    3        6     5  53    6.7018   633.7    3.620      71.177
2015    3        6     5  59    6.6984   633.9    3.616      71.172
2015    3        6     6   4    6.6950   634.0    3.612      71.169
2015    3        6     6   9    6.6916   634.1    3.609      71.165
2015    3        6     6  14    6.6882   634.2    3.605      71.161
2015    3        6     6  19    6.6848   634.3    3.601      71.159
2015    3        6     6  25    6.6816   634.4    3.598      71.157
2015    3        6     6  30    6.6783   634.5    3.595      71.156
2015    3        6     6  35    6.6751   634.6    3.592      71.155
2015    3        6     6  40    6.6720   634.7    3.589      71.157
2015    3        6     6  45    6.6689   634.9    3.586      71.162
2015    3        6     6  51    6.6658   635.0    3.583      71.169
2015    3        6     6  56    6.6628   635.1    3.581      71.178
2015    3        6     7   1    6.6599   635.2    3.578      71.190
2015    3        6     7   6    6.6570   635.3    3.576      71.204
2015    3        6     7  11    6.6541   635.4    3.574      71.219
2015    3        6     7  17    6.6513   635.6    3.571      71.235
2015    3        6     7  22    6.6485   635.7    3.569      71.252
2015    3        6     7  27    6.6457   635.8    3.567      71.272
2015    3        6     7  32    6.6428   636.0    3.565      71.293
2015    3        6     7  37    6.6399   636.1    3.562      71.314
2015    3        6     7  43    6.6370   636.2    3.560      71.336
2015    3        6     7  48    6.6340   636.4    3.558      71.357
2015    3        6     7  53    6.6311   636.5    3.556      71.378
2015    3        6     7  58    6.6280   636.6    3.553      71.398
2015    3        6     8   3    6.6250   636.8    3.551      71.417
2015    3        6     8   9    6.6219   636.9    3.548      71.435
2015    3        6     8  14    6.6188   637.0    3.545      71.452
2015    3        6     8  19    6.6157   637.2    3.543      71.469
2015    3        6     8  24    6.6125   637.3    3.540      71.484
2015    3        6     8  29    6.6093   637.4    3.537      71.496
2015    3        6     8  35    6.6061   637.6    3.534      71.508
2015    3        6     8  40    6.6029   637.7    3.531      71.518
2015    3        6     8  45    6.5997   637.8    3.528      71.528
2015    3        6     8  50    6.5964   637.9    3.525      71.535
2015    3        6     8  55    6.5932   638.1    3.522      71.542
2015    3        6     9   1    6.5899   638.2    3.519      71.548
2015    3        6     9   6    6.5867   638.3    3.516      71.553
2015    3        6     9  11    6.5834   638.4    3.513      71.558
2015    3        6     9  16    6.5802   638.5    3.510      71.562
2015    3        6     9  21    6.5770   638.6    3.507      71.567
2015    3        6     9  26    6.5738   638.7    3.504      71.571
2015    3        6     9  32    6.5705   638.9    3.501      71.575
2015    3        6     9  37    6.5673   639.0    3.498      71.579
2015    3        6     9  42    6.5641   639.1    3.495      71.583
2015    3        6     9  47    6.5609   639.2    3.492      71.585
2015    3        6     9  52    6.5576   639.3    3.488      71.588
2015    3        6     9  58    6.5543   639.4    3.485      71.589
2015    3        6    10   3    6.5510   639.5    3.482      71.589
2015    3        6    10   8    6.5477   639.7    3.478      71.589
2015    3        6    10  13    6.5444   639.8    3.475      71.587
2015    3        6    10  18    6.5410   639.9    3.471      71.584
2015    3        6    10  24    6.5377   640.0    3.468      71.579
2015    3        6    10  29    6.5343   640.1    3.464      71.573
2015    3        6    10  34    6.5308   640.2    3.460      71.566
2015    3        6    10  39    6.5274   640.3    3.457      71.558
2015    3        6    10  44    6.5240   640.4    3.453      71.549
2015    3        6    10  50    6.5206   640.5    3.449      71.539
2015    3        6    10  55    6.5172   640.6    3.446      71.529
2015    3        6    11   0    6.5138   640.7    3.442      71.517
2015    3        6    11   5    6.5104   640.8    3.438      71.506
2015    3        6    11  10    6.5070   640.9    3.435      71.493
2015    3        6    11  16    6.5036   641.0    3.431      71.481
2015    3        6    11  21    6.5002   641.0    3.427      71.468
2015    3        6    11  26    6.4968   641.1    3.424      71.456
2015    3        6    11  31    6.4935   641.2    3.420      71.443
2015    3        6    11  36    6.4901   641.3    3.417      71.430
2015    3        6    11  42    6.4867   641.4    3.413      71.417
2015    3        6    11  47    6.4834   641.5    3.410      71.405
2015    3        6    11  52    6.4801   641.6    3.407      71.392
2015    3        6    11  57    6.4768   641.6    3.404      71.380
2015    3        6    12   2    6.4734   641.7    3.400      71.368
2015    3        6    12   8    6.4701   641.8    3.397      71.356
2015    3        6    12  13    6.4668   641.9    3.394      71.344
2015    3        6    12  18    6.4635   641.9    3.391      71.333
2015    3        6    12  23    6.4603   642.0    3.388      71.321
2015    3        6    12  28    6.4569   642.1    3.385      71.309
2015    3        6    12  34    6.4536   642.1    3.382      71.298
2015    3        6    12  39    6.4502   642.2    3.379      71.286
2015    3        6    12  44    6.4469   642.3    3.377      71.275
2015    3        6    12  49    6.4436   642.3    3.374      71.263
2015    3        6    12  54    6.4403   642.4    3.371      71.252
2015    3        6    13   0    6.4371   642.4    3.369      71.242
2015    3        6    13   5    6.4338   642.5    3.366      71.231
2015    3        6    13  10    6.4306   642.5    3.364      71.221
2015    3        6    13  15    6.4274   642.6    3.361      71.213
2015    3        6    13  20    6.4242   642.6    3.359      71.206
2015    3        6    13  26    6.4211   642.7    3.357      71.201
2015    3        6    13  31    6.4181   642.7    3.355      71.198
2015    3        6    13  36    6.4151   642.8    3.353      71.197
2015    3        6    13  41    6.4122   642.8    3.351      71.197
2015    3        6    13  46    6.4093   642.9    3.350      71.198
2015    3        6    13  52    6.4065   642.9    3.348      71.202
2015    3        6    13  57    6.4038   643.0    3.347      71.209
2015    3        6    14   2    6.4011   643.0    3.345      71.219
2015    3        6    14   7    6.3985   643.1    3.344      71.231
2015    3        6    14  12    6.3958   643.2    3.343      71.245
2015    3        6    14  17    6.3932   643.2    3.341      71.260
2015    3        6    14  23    6.3906   643.3    3.340      71.276
2015    3        6    14  28    6.3880   643.4    3.339      71.292
2015    3        6    14  33    6.3854   643.5    3.337      71.308
2015    3        6    14  38    6.3828   643.5    3.336      71.325
2015    3        6    14  43    6.3801   643.6    3.334      71.340
2015    3        6    14  49    6.3774   643.7    3.332      71.355
2015    3        6    14  54    6.3746   643.8    3.330      71.368
2015    3        6    14  59    6.3718   643.9    3.329      71.380
2015    3        6    15   4    6.3690   644.0    3.327      71.389
2015    3        6    15   9    6.3661   644.0    3.325      71.398
2015    3        6    15  15    6.3632   644.1    3.323      71.404
2015    3        6    15  20    6.3603   644.2    3.320      71.409
2015    3        6    15  25    6.3574   644.3    3.318      71.412
2015    3        6    15  30    6.3544   644.3    3.316      71.414
2015    3        6    15  35    6.3514   644.4    3.313      71.414
2015    3        6    15  41    6.3484   644.5    3.311      71.413
2015    3        6    15  46    6.3454   644.6    3.308      71.410
2015    3        6    15  51    6.3424   644.6    3.306      71.406
2015    3        6    15  56    6.3393   644.7    3.303      71.400
2015    3        6    16   1    6.3363   644.8    3.300      71.393
2015    3        6    16   7    6.3332   644.8    3.298      71.385
2015    3        6    16  12    6.3302   644.9    3.295      71.376
2015    3        6    16  17    6.3271   644.9    3.292      71.365
2015    3        6    16  22    6.3241   645.0    3.290      71.355
2015    3        6    16  27    6.3210   645.0    3.287      71.343
2015    3        6    16  33    6.3179   645.1    3.284      71.331
2015    3        6    16  38    6.3149   645.1    3.281      71.318
2015    3        6    16  43    6.3118   645.2    3.278      71.304
2015    3        6    16  48    6.3087   645.3    3.275      71.290
2015    3        6    16  53    6.3057   645.3    3.272      71.275
2015    3        6    16  59    6.3026   645.4    3.269      71.258
2015    3        6    17   4    6.2995   645.4    3.266      71.242
2015    3        6    17   9    6.2963   645.4    3.263      71.224
2015    3        6    17  14    6.2932   645.5    3.260      71.206
2015    3        6    17  19    6.2900   645.5    3.257      71.186
2015    3        6    17  24    6.2869   645.6    3.254      71.165
2015    3        6    17  30    6.2837   645.6    3.251      71.144
2015    3        6    17  35    6.2806   645.7    3.248      71.122
2015    3        6    17  40    6.2774   645.7    3.245      71.099
2015    3        6    17  45    6.2742   645.7    3.242      71.077
2015    3        6    17  50    6.2711   645.7    3.239      71.054
2015    3        6    17  56    6.2679   645.8    3.236      71.031
2015    3        6    18   1    6.2648   645.8    3.233      71.008
2015    3        6    18   6    6.2617   645.8    3.230      70.986
2015    3        6    18  11    6.2586   645.9    3.227      70.963
2015    3        6    18  16    6.2555   645.9    3.224      70.942
2015    3        6    18  22    6.2525   645.9    3.222      70.921
2015    3        6    18  27    6.2494   645.9    3.219      70.902
2015    3        6    18  32    6.2464   645.9    3.217      70.883
2015    3        6    18  37    6.2434   646.0    3.214      70.865
2015    3        6    18  42    6.2405   646.0    3.212      70.849
2015    3        6    18  48    6.2375   646.0    3.210      70.833
2015    3        6    18  53    6.2347   646.0    3.208      70.819
2015    3        6    18  58    6.2317   646.0    3.206      70.806
2015    3        6    19   3    6.2288   646.1    3.204      70.793
2015    3        6    19   8    6.2260   646.1    3.202      70.782
2015    3        6    19  14    6.2231   646.1    3.200      70.771
2015    3        6    19  19    6.2203   646.1    3.199      70.760
2015    3        6    19  24    6.2174   646.1    3.197      70.751
2015    3        6    19  29    6.2145   646.2    3.195      70.742
2015    3        6    19  34    6.2117   646.2    3.194      70.733
2015    3        6    19  40    6.2088   646.2    3.192      70.725
2015    3        6    19  45    6.2059   646.2    3.190      70.717
2015    3        6    19  50    6.2031   646.2    3.189      70.709
2015    3        6    19  55    6.2002   646.2    3.187      70.702
2015    3        6    20   0    6.1974   646.2    3.186      70.694
2015    3        6    20   6    6.1945   646.2    3.184      70.687
2015    3        6    20  11    6.1917   646.2    3.183      70.680
2015    3        6    20  16    6.1889   646.2    3.181      70.673
2015    3        6    20  21    6.1861   646.2    3.180      70.667
2015    3        6    20  26    6.1834   646.2    3.178      70.661
2015    3        6    20  32    6.1807   646.2    3.177      70.656
2015    3        6    20  37    6.1780   646.2    3.176      70.651
2015    3        6    20  42    6.1754   646.1    3.174      70.649
2015    3        6    20  47    6.1729   646.1    3.173      70.647
2015    3        6    20  52    6.1703   646.1    3.172      70.646
2015    3        6    20  58    6.1678   646.1    3.170      70.645
2015    3        6    21   3    6.1654   646.1    3.169      70.645
2015    3        6    21   8    6.1630   646.1    3.168      70.646
2015    3        6    21  13    6.1608   646.1    3.167      70.646
2015    3        6    21  18    6.1583   646.1    3.165      70.647
2015    3        6    21  24    6.1560   646.1    3.164      70.647
2015    3        6    21  29    6.1537   646.1    3.163      70.648
2015    3        6    21  34    6.1515   646.2    3.162      70.648
2015    3        6    21  39    6.1492   646.2    3.160      70.647
2015    3        6    21  44    6.1469   646.2    3.159      70.646
2015    3        6    21  49    6.1446   646.2    3.158      70.644
2015    3        6    21  55    6.1424   646.2    3.157      70.642
2015    3        6    22   0    6.1400   646.2    3.155      70.639
2015    3        6    22   5    6.1378   646.2    3.154      70.635
2015    3        6    22  10    6.1354   646.2    3.153      70.631
2015    3        6    22  15    6.1330   646.2    3.152      70.627
2015    3        6    22  21    6.1307   646.2    3.150      70.621
2015    3        6    22  26    6.1283   646.2    3.149      70.616
2015    3        6    22  31    6.1258   646.2    3.148      70.610
2015    3        6    22  36    6.1234   646.3    3.146      70.604
2015    3        6    22  41    6.1209   646.3    3.145      70.597
2015    3        6    22  47    6.1185   646.3    3.143      70.589
2015    3        6    22  52    6.1160   646.3    3.142      70.581
2015    3        6    22  57    6.1135   646.3    3.140      70.572
2015    3        6    23   2    6.1109   646.3    3.138      70.563
2015    3        6    23   7    6.1084   646.3    3.137      70.553
2015    3        6    23  13    6.1059   646.3    3.135      70.541
2015    3        6    23  18    6.1033   646.3    3.133      70.530
2015    3        6    23  23    6.1008   646.3    3.131      70.517
2015    3        6    23  28    6.0981   646.3    3.129      70.503
2015    3        6    23  33    6.0955   646.3    3.128      70.489
2015    3        6    23  39    6.0930   646.3    3.126      70.473
2015    3        6    23  44    6.0903   646.3    3.124      70.457
2015    3        6    23  49    6.0877   646.3    3.122      70.439
2015    3        6    23  54    6.0850   646.3    3.120      70.421
2015    3        6    23  59    6.0824   646.3    3.118      70.402
2015    3        7     0   5    6.0797   646.3    3.115      70.383
2015    3        7     0  10    6.0771   646.3    3.113      70.362
2015    3        7     0  15    6.0745   646.3    3.111      70.341
2015    3        7     0  20    6.0718   646.3    3.109      70.319
2015    3        7     0  25    6.0691   646.2    3.107      70.297
2015    3        7     0  31    6.0665   646.2    3.105      70.274
2015    3        7     0  36    6.0639   646.2    3.103      70.250
2015    3        7     0  41    6.0612   646.2    3.100      70.226
2015    3        7     0  46    6.0585   646.2    3.098      70.202
2015    3        7     0  51    6.0559   646.1    3.096      70.177
2015    3        7     0  57    6.0532   646.1    3.094      70.153
2015    3        7     1   2    6.0506   646.1    3.092      70.128
2015    3        7     1   7    6.0479   646.1    3.090      70.103
2015    3        7     1  12    6.0453   646.0    3.088      70.079
2015    3        7     1  17    6.0428   646.0    3.086      70.056
2015    3        7     1  23    6.0401   646.0    3.084      70.032
2015    3        7     1  28    6.0376   645.9    3.082      70.010
2015    3        7     1  33    6.0350   645.9    3.081      69.988
2015    3        7     1  38    6.0325   645.8    3.079      69.967
2015    3        7     1  43    6.0300   645.8    3.077      69.947
2015    3        7     1  49    6.0275   645.8    3.076      69.928
2015    3        7     1  54    6.0252   645.7    3.074      69.911
2015    3        7     1  59    6.0227   645.7    3.073      69.894
2015    3        7     2   4    6.0203   645.7    3.072      69.879
2015    3        7     2   9    6.0179   645.6    3.071      69.864
2015    3        7     2  14    6.0156   645.6    3.070      69.851
2015    3        7     2  20    6.0133   645.5    3.069      69.839
2015    3        7     2  25    6.0110   645.5    3.068      69.828
2015    3        7     2  30    6.0088   645.5    3.067      69.817
2015    3        7     2  35    6.0064   645.4    3.066      69.808
2015    3        7     2  40    6.0042   645.4    3.065      69.800
2015    3        7     2  46    6.0020   645.4    3.065      69.793
2015    3        7     2  51    5.9997   645.3    3.064      69.786
2015    3        7     2  56    5.9976   645.3    3.063      69.780
2015    3        7     3   1    5.9954   645.2    3.063      69.775
2015    3        7     3   6    5.9932   645.2    3.062      69.769
2015    3        7     3  12    5.9911   645.2    3.061      69.765
2015    3        7     3  17    5.9890   645.1    3.061      69.760
2015    3        7     3  22    5.9869   645.1    3.060      69.756
2015    3        7     3  27    5.9847   645.0    3.060      69.752
2015    3        7     3  32    5.9827   645.0    3.059      69.748
2015    3        7     3  38    5.9805   644.9    3.059      69.743
2015    3        7     3  43    5.9786   644.9    3.058      69.739
2015    3        7     3  48    5.9764   644.8    3.057      69.735
2015    3        7     3  53    5.9745   644.8    3.057      69.731
2015    3        7     3  58    5.9725   644.7    3.056      69.726
2015    3        7     4   4    5.9704   644.7    3.056      69.722
2015    3        7     4   9    5.9685   644.6    3.055      69.717
2015    3        7     4  14    5.9665   644.6    3.054      69.712
2015    3        7     4  19    5.9646   644.5    3.054      69.707
2015    3        7     4  24    5.9627   644.5    3.053      69.701
2015    3        7     4  30    5.9608   644.4    3.053      69.696
2015    3        7     4  35    5.9589   644.4    3.052      69.690
2015    3        7     4  40    5.9571   644.3    3.052      69.684
2015    3        7     4  45    5.9553   644.3    3.051      69.679
2015    3        7     4  50    5.9534   644.2    3.050      69.673
2015    3        7     4  56    5.9516   644.2    3.050      69.667
2015    3        7     5   1    5.9497   644.1    3.049      69.661
2015    3        7     5   6    5.9480   644.1    3.049      69.655
2015    3        7     5  11    5.9461   644.0    3.048      69.650
2015    3        7     5  16    5.9443   644.0    3.047      69.644
2015    3        7     5  22    5.9424   643.9    3.047      69.638
2015    3        7     5  27    5.9406   643.9    3.046      69.632
2015    3        7     5  32    5.9387   643.8    3.045      69.626
2015    3        7     5  37    5.9369   643.8    3.045      69.619
2015    3        7     5  42    5.9350   643.7    3.044      69.613
2015    3        7     5  48    5.9332   643.7    3.043      69.606
2015    3        7     5  53    5.9313   643.6    3.043      69.600
2015    3        7     5  58    5.9294   643.6    3.042      69.593
2015    3        7     6   3    5.9275   643.6    3.041      69.585
2015    3        7     6   8    5.9255   643.5    3.040      69.578
2015    3        7     6  13    5.9236   643.5    3.039      69.570
2015    3        7     6  19    5.9217   643.4    3.039      69.561
2015    3        7     6  24    5.9197   643.4    3.038      69.552
2015    3        7     6  29    5.9177   643.3    3.037      69.543
2015    3        7     6  34    5.9158   643.3    3.036      69.533
2015    3        7     6  39    5.9139   643.2    3.035      69.522
2015    3        7     6  45    5.9118   643.2    3.034      69.511
2015    3        7     6  50    5.9098   643.2    3.033      69.499
2015    3        7     6  55    5.9078   643.1    3.032      69.487
2015    3        7     7   0    5.9058   643.1    3.031      69.474
2015    3        7     7   5    5.9038   643.0    3.030      69.460
2015    3        7     7  11    5.9018   643.0    3.029      69.446
2015    3        7     7  16    5.8998   642.9    3.027      69.432
2015    3        7     7  21    5.8978   642.9    3.026      69.417
2015    3        7     7  26    5.8958   642.8    3.025      69.401
2015    3        7     7  31    5.8937   642.8    3.024      69.385
2015    3        7     7  37    5.8917   642.7    3.023      69.368
2015    3        7     7  42    5.8898   642.7    3.021      69.351
2015    3        7     7  47    5.8877   642.6    3.020      69.333
2015    3        7     7  52    5.8857   642.6    3.019      69.315
2015    3        7     7  57    5.8837   642.5    3.017      69.297
2015    3        7     8   3    5.8816   642.5    3.016      69.278
2015    3        7     8   8    5.8796   642.4    3.015      69.259
2015    3        7     8  13    5.8776   642.3    3.014      69.239
2015    3        7     8  18    5.8756   642.3    3.012      69.220
2015    3        7     8  23    5.8736   642.2    3.011      69.200
2015    3        7     8  29    5.8716   642.2    3.010      69.180
2015    3        7     8  34    5.8697   642.1    3.009      69.160
2015    3        7     8  39    5.8677   642.0    3.007      69.141
2015    3        7     8  44    5.8658   642.0    3.006      69.121
2015    3        7     8  49    5.8639   641.9    3.005      69.103
2015    3        7     8  55    5.8620   641.8    3.004      69.084
2015    3        7     9   0    5.8602   641.8    3.003      69.066
2015    3        7     9   5    5.8582   641.7    3.002      69.048
2015    3        7     9  10    5.8564   641.6    3.001      69.031
2015    3        7     9  15    5.8546   641.6    3.001      69.014
2015    3        7     9  21    5.8528   641.5    3.000      68.998
2015    3        7     9  26    5.8510   641.4    2.999      68.983
2015    3        7     9  31    5.8493   641.3    2.999      68.969
2015    3        7     9  36    5.8476   641.3    2.998      68.956
2015    3        7     9  41    5.8459   641.2    2.998      68.943
2015    3        7     9  47    5.8443   641.1    2.997      68.932
2015    3        7     9  52    5.8426   641.1    2.997      68.921
2015    3        7     9  57    5.8410   641.0    2.997      68.911
2015    3        7    10   2    5.8393   640.9    2.996      68.902
2015    3        7    10   7    5.8377   640.9    2.996      68.893
2015    3        7    10  12    5.8362   640.8    2.996      68.886
2015    3        7    10  18    5.8346   640.7    2.996      68.879
2015    3        7    10  23    5.8331   640.7    2.996      68.873
2015    3        7    10  28    5.8315   640.6    2.996      68.868
2015    3        7    10  33    5.8300   640.5    2.996      68.864
2015    3        7    10  38    5.8284   640.5    2.997      68.859
2015    3        7    10  44    5.8269   640.4    2.997      68.856
2015    3        7    10  49    5.8254   640.3    2.997      68.853
2015    3        7    10  54    5.8239   640.3    2.997      68.850
2015    3        7    10  59    5.8223   640.2    2.997      68.848
2015    3        7    11   4    5.8208   640.1    2.998      68.847
2015    3        7    11  10    5.8193   640.1    2.998      68.846
2015    3        7    11  15    5.8178   640.0    2.998      68.845
2015    3        7    11  20    5.8163   639.9    2.998      68.846
2015    3        7    11  25    5.8148   639.8    2.999      68.846
2015    3        7    11  30    5.8132   639.8    2.999      68.847
2015    3        7    11  36    5.8117   639.7    2.999      68.849
2015    3        7    11  41    5.8102   639.6    2.999      68.850
2015    3        7    11  46    5.8087   639.6    2.999      68.851
2015    3        7    11  51    5.8071   639.5    2.999      68.852
2015    3        7    11  56    5.8056   639.4    2.999      68.853
2015    3        7    12   2    5.8041   639.4    2.999      68.854
2015    3        7    12   7    5.8026   639.3    2.999      68.855
2015    3        7    12  12    5.8011   639.2    2.999      68.855
2015    3        7    12  17    5.7996   639.2    2.999      68.854
2015    3        7    12  22    5.7981   639.1    2.999      68.853
2015    3        7    12  28    5.7966   639.0    2.999      68.851
2015    3        7    12  33    5.7951   638.9    2.999      68.849
2015    3        7    12  38    5.7936   638.9    2.999      68.846
2015    3        7    12  43    5.7921   638.8    2.999      68.843
2015    3        7    12  48    5.7907   638.7    2.998      68.839
2015    3        7    12  54    5.7892   638.7    2.998      68.835
2015    3        7    12  59    5.7877   638.6    2.998      68.831
2015    3        7    13   4    5.7863   638.5    2.998      68.826
2015    3        7    13   9    5.7849   638.4    2.997      68.821
2015    3        7    13  14    5.7834   638.4    2.997      68.816
2015    3        7    13  20    5.7820   638.3    2.997      68.810
2015    3        7    13  25    5.7806   638.2    2.996      68.804
2015    3        7    13  30    5.7792   638.2    2.996      68.797
2015    3        7    13  35    5.7778   638.1    2.996      68.791
2015    3        7    13  40    5.7764   638.0    2.995      68.784
2015    3        7    13  45    5.7750   637.9    2.995      68.776
2015    3        7    13  51    5.7736   637.9    2.994      68.769
2015    3        7    13  56    5.7722   637.8    2.994      68.761
2015    3        7    14   1    5.7708   637.7    2.993      68.753
2015    3        7    14   6    5.7694   637.7    2.993      68.745
2015    3        7    14  11    5.7681   637.6    2.992      68.737
2015    3        7    14  17    5.7668   637.5    2.992      68.729
2015    3        7    14  22    5.7654   637.5    2.991      68.720
2015    3        7    14  27    5.7640   637.4    2.991      68.712
2015    3        7    14  32    5.7627   637.3    2.990      68.703
2015    3        7    14  37    5.7613   637.3    2.990      68.695
2015    3        7    14  43    5.7600   637.2    2.989      68.686
2015    3        7    14  48    5.7587   637.1    2.989      68.677
2015    3        7    14  53    5.7573   637.1    2.988      68.668
2015    3        7    14  58    5.7560   637.0    2.988      68.660
2015    3        7    15   3    5.7546   636.9    2.987      68.651
2015    3        7    15   9    5.7533   636.9    2.987      68.642
2015    3        7    15  14    5.7520   636.8    2.986      68.633
2015    3        7    15  19    5.7506   636.7    2.986      68.624
2015    3        7    15  24    5.7493   636.7    2.986      68.614
2015    3        7    15  29    5.7479   636.6    2.985      68.605
2015    3        7    15  35    5.7466   636.5    2.985      68.596
2015    3        7    15  40    5.7452   636.5    2.984      68.586
2015    3        7    15  45    5.7438   636.4    2.984      68.576
2015    3        7    15  50    5.7425   636.4    2.983      68.567
2015    3        7    15  55    5.7411   636.3    2.983      68.557
2015    3        7    16   1    5.7397   636.2    2.982      68.547
2015    3        7    16   6    5.7383   636.2    2.982      68.537
2015    3        7    16  11    5.7369   636.1    2.981      68.526
2015    3        7    16  16    5.7355   636.0    2.981      68.516
2015    3        7    16  21    5.7341   636.0    2.981      68.506
2015    3        7    16  27    5.7327   635.9    2.980      68.496
2015    3        7    16  32    5.7313   635.9    2.980      68.485
2015    3        7    16  37    5.7299   635.8    2.980      68.475
2015    3        7    16  42    5.7285   635.7    2.979      68.465
2015    3        7    16  47    5.7270   635.7    2.979      68.455
2015    3        7    16  53    5.7256   635.6    2.979      68.445
2015    3        7    16  58    5.7242   635.5    2.979      68.436
2015    3        7    17   3    5.7228   635.5    2.978      68.426
2015    3        7    17   8    5.7214   635.4    2.978      68.417
2015    3        7    17  13    5.7200   635.3    2.978      68.409
2015    3        7    17  19    5.7186   635.3    2.978      68.400
2015    3        7    17  24    5.7172   635.2    2.978      68.393
2015    3        7    17  29    5.7158   635.1    2.978      68.386
2015    3        7    17  34    5.7144   635.0    2.978      68.380
2015    3        7    17  39    5.7131   635.0    2.978      68.374
2015    3        7    17  45    5.7118   634.9    2.978      68.369
2015    3        7    17  50    5.7105   634.8    2.979      68.365
2015    3        7    17  55    5.7092   634.8    2.979      68.362
2015    3        7    18   0    5.7079   634.7    2.979      68.359
2015    3        7    18   5    5.7067   634.6    2.980      68.357
2015    3        7    18  11    5.7055   634.6    2.980      68.356
2015    3        7    18  16    5.7043   634.5    2.980      68.356
2015    3        7    18  21    5.7031   634.4    2.981      68.357
2015    3        7    18  26    5.7019   634.4    2.982      68.359
2015    3        7    18  31    5.7008   634.3    2.982      68.362
2015    3        7    18  36    5.6996   634.2    2.983      68.365
2015    3        7    18  42    5.6985   634.2    2.983      68.369
2015    3        7    18  47    5.6974   634.1    2.984      68.374
2015    3        7    18  52    5.6963   634.1    2.985      68.379
2015    3        7    18  57    5.6953   634.0    2.986      68.386
2015    3        7    19   2    5.6942   633.9    2.987      68.393
2015    3        7    19   8    5.6931   633.9    2.987      68.401
2015    3        7    19  13    5.6921   633.8    2.988      68.410
2015    3        7    19  18    5.6909   633.8    2.989      68.419
2015    3        7    19  23    5.6899   633.7    2.989      68.428
2015    3        7    19  28    5.6888   633.7    2.990      68.437
2015    3        7    19  34    5.6876   633.6    2.991      68.445
2015    3        7    19  39    5.6865   633.5    2.991      68.453
2015    3        7    19  44    5.6854   633.5    2.992      68.461
2015    3        7    19  49    5.6842   633.4    2.992      68.468
2015    3        7    19  54    5.6831   633.4    2.992      68.474
2015    3        7    20   0    5.6819   633.3    2.993      68.479
2015    3        7    20   5    5.6808   633.3    2.993      68.483
2015    3        7    20  10    5.6796   633.2    2.993      68.487
2015    3        7    20  15    5.6784   633.2    2.993      68.489
2015    3        7    20  20    5.6772   633.1    2.993      68.491
2015    3        7    20  26    5.6761   633.1    2.993      68.493
2015    3        7    20  31    5.6749   633.0    2.993      68.493
2015    3        7    20  36    5.6737   632.9    2.993      68.493
2015    3        7    20  41    5.6726   632.9    2.993      68.493
2015    3        7    20  46    5.6713   632.8    2.993      68.491
2015    3        7    20  52    5.6701   632.8    2.993      68.490
2015    3        7    20  57    5.6689   632.7    2.993      68.488
2015    3        7    21   2    5.6677   632.7    2.992      68.485
2015    3        7    21   7    5.6665   632.6    2.992      68.482
2015    3        7    21  12    5.6653   632.5    2.992      68.478
2015    3        7    21  18    5.6641   632.5    2.992      68.475
2015    3        7    21  23    5.6629   632.4    2.991      68.471
2015    3        7    21  28    5.6617   632.4    2.991      68.466
2015    3        7    21  33    5.6605   632.3    2.991      68.461
2015    3        7    21  38    5.6593   632.3    2.990      68.456
2015    3        7    21  44    5.6580   632.2    2.990      68.451
2015    3        7    21  49    5.6568   632.1    2.990      68.445
2015    3        7    21  54    5.6556   632.1    2.989      68.439
2015    3        7    21  59    5.6543   632.0    2.989      68.433
2015    3        7    22   4    5.6531   632.0    2.989      68.426
2015    3        7    22   9    5.6518   631.9    2.988      68.419
2015    3        7    22  15    5.6505   631.9    2.988      68.411
2015    3        7    22  20    5.6493   631.8    2.988      68.403
2015    3        7    22  25    5.6480   631.8    2.987      68.394
2015    3        7    22  30    5.6467   631.7    2.987      68.385
2015    3        7    22  35    5.6453   631.6    2.986      68.376
2015    3        7    22  41    5.6440   631.6    2.986      68.366
2015    3        7    22  46    5.6427   631.5    2.985      68.355
2015    3        7    22  51    5.6414   631.5    2.985      68.344
2015    3        7    22  56    5.6400   631.4    2.984      68.332
2015    3        7    23   1    5.6386   631.3    2.984      68.320
2015    3        7    23   7    5.6372   631.3    2.983      68.308
2015    3        7    23  12    5.6359   631.2    2.982      68.295
2015    3        7    23  17    5.6345   631.2    2.982      68.281
2015    3        7    23  22    5.6332   631.1    2.981      68.268
2015    3        7    23  27    5.6318   631.0    2.981      68.254
2015    3        7    23  33    5.6304   631.0    2.980      68.239
2015    3        7    23  38    5.6291   630.9    2.979      68.225
2015    3        7    23  43    5.6277   630.8    2.979      68.210
2015    3        7    23  48    5.6263   630.8    2.978      68.195
2015    3        7    23  53    5.6250   630.7    2.978      68.181
2015    3        7    23  59    5.6236   630.6    2.977      68.166
2015    3        8     0   4    5.6223   630.6    2.976      68.151
2015    3        8     0   9    5.6210   630.5    2.976      68.137
2015    3        8     0  14    5.6197   630.4    2.975      68.123
2015    3        8     0  19    5.6184   630.4    2.975      68.109
2015    3        8     0  25    5.6171   630.3    2.975      68.096
2015    3        8     0  30    5.6158   630.2    2.974      68.083
2015    3        8     0  35    5.6146   630.1    2.974      68.071
2015    3        8     0  40    5.6133   630.1    2.974      68.059
2015    3        8     0  45    5.6121   630.0    2.973      68.048
2015    3        8     0  51    5.6109   629.9    2.973      68.037
2015    3        8     0  56    5.6097   629.9    2.973      68.028
2015    3        8     1   1    5.6085   629.8    2.973      68.019
2015    3        8     1   6    5.6073   629.7    2.973      68.010
2015    3        8     1  11    5.6062   629.7    2.973      68.003
2015    3        8     1  17    5.6050   629.6    2.973      67.997
2015    3        8     1  22    5.6039   629.5    2.973      67.991
2015    3        8     1  27    5.6028   629.4    2.974      67.987
2015    3        8     1  32    5.6017   629.4    2.974      67.983
2015    3        8     1  37    5.6006   629.3    2.974      67.981
2015    3        8     1  43    5.5996   629.2    2.975      67.979
2015    3        8     1  48    5.5986   629.2    2.975      67.978
2015    3        8     1  53    5.5975   629.1    2.976      67.979
2015    3        8     1  58    5.5965   629.0    2.977      67.980
2015    3        8     2   3    5.5955   629.0    2.977      67.983
2015    3        8     2   8    5.5946   628.9    2.978      67.987
2015    3        8     2  14    5.5936   628.8    2.979      67.993
2015    3        8     2  19    5.5926   628.8    2.980      68.000
2015    3        8     2  24    5.5917   628.7    2.981      68.009
2015    3        8     2  29    5.5907   628.6    2.982      68.019
2015    3        8     2  34    5.5897   628.6    2.983      68.029
2015    3        8     2  40    5.5887   628.5    2.984      68.040
2015    3        8     2  45    5.5877   628.5    2.985      68.051
2015    3        8     2  50    5.5867   628.4    2.985      68.063
2015    3        8     2  55    5.5856   628.4    2.986      68.075
2015    3        8     3   0    5.5846   628.3    2.987      68.087
2015    3        8     3   6    5.5835   628.3    2.988      68.098
2015    3        8     3  11    5.5823   628.2    2.989      68.108
2015    3        8     3  16    5.5812   628.2    2.989      68.118
2015    3        8     3  21    5.5800   628.1    2.990      68.127
2015    3        8     3  26    5.5788   628.1    2.990      68.135
2015    3        8     3  32    5.5776   628.0    2.991      68.143
2015    3        8     3  37    5.5763   628.0    2.991      68.150
2015    3        8     3  42    5.5750   627.9    2.992      68.156
2015    3        8     3  47    5.5737   627.9    2.992      68.161
2015    3        8     3  52    5.5724   627.8    2.993      68.165
2015    3        8     3  58    5.5711   627.8    2.993      68.169
2015    3        8     4   3    5.5697   627.7    2.993      68.171
2015    3        8     4   8    5.5684   627.7    2.993      68.173
2015    3        8     4  13    5.5670   627.6    2.994      68.174
2015    3        8     4  18    5.5656   627.5    2.994      68.174
2015    3        8     4  24    5.5642   627.5    2.994      68.174
2015    3        8     4  29    5.5628   627.4    2.994      68.172
2015    3        8     4  34    5.5614   627.4    2.994      68.171
2015    3        8     4  39    5.5600   627.3    2.994      68.168
2015    3        8     4  44    5.5586   627.2    2.994      68.164
2015    3        8     4  50    5.5571   627.2    2.994      68.160
2015    3        8     4  55    5.5557   627.1    2.994      68.156
2015    3        8     5   0    5.5542   627.0    2.994      68.150
2015    3        8     5   5    5.5528   627.0    2.994      68.144
2015    3        8     5  10    5.5513   626.9    2.994      68.138
2015    3        8     5  16    5.5499   626.9    2.993      68.131
2015    3        8     5  21    5.5484   626.8    2.993      68.124
2015    3        8     5  26    5.5470   626.7    2.993      68.116
2015    3        8     5  31    5.5455   626.7    2.993      68.108
2015    3        8     5  36    5.5441   626.6    2.993      68.099
2015    3        8     5  42    5.5426   626.5    2.992      68.090
2015    3        8     5  47    5.5412   626.5    2.992      68.081
2015    3        8     5  52    5.5397   626.4    2.992      68.072
2015    3        8     5  57    5.5383   626.3    2.992      68.062
2015    3        8     6   2    5.5369   626.3    2.992      68.052
2015    3        8     6   7    5.5354   626.2    2.991      68.043
2015    3        8     6  13    5.5340   626.1    2.991      68.033
2015    3        8     6  18    5.5326   626.1    2.991      68.023
2015    3        8     6  23    5.5312   626.0    2.991      68.013
2015    3        8     6  28    5.5298   625.9    2.990      68.003
2015    3        8     6  33    5.5285   625.9    2.990      67.993
2015    3        8     6  39    5.5271   625.8    2.990      67.983
2015    3        8     6  44    5.5258   625.7    2.990      67.973
2015    3        8     6  49    5.5244   625.7    2.990      67.963
2015    3        8     6  54    5.5231   625.6    2.989      67.954
2015    3        8     6  59    5.5217   625.5    2.989      67.944
2015    3        8     7   5    5.5204   625.5    2.989      67.934
2015    3        8     7  10    5.5191   625.4    2.989      67.924
2015    3        8     7  15    5.5178   625.4    2.989      67.913
2015    3        8     7  20    5.5165   625.3    2.989      67.903
2015    3        8     7  25    5.5152   625.2    2.988      67.893
2015    3        8     7  31    5.5139   625.2    2.988      67.882
2015    3        8     7  36    5.5126   625.1    2.988      67.872
2015    3        8     7  41    5.5113   625.0    2.988      67.861
2015    3        8     7  46    5.5100   625.0    2.988      67.851
2015    3        8     7  51    5.5087   624.9    2.988      67.840
2015    3        8     7  57    5.5074   624.8    2.988      67.829
2015    3        8     8   2    5.5062   624.8    2.988      67.818
2015    3        8     8   7    5.5049   624.7    2.988      67.807
2015    3        8     8  12    5.5036   624.6    2.987      67.796
2015    3        8     8  17    5.5023   624.6    2.987      67.785
2015    3        8     8  23    5.5011   624.5    2.987      67.774
2015    3        8     8  28    5.4998   624.4    2.987      67.763
2015    3        8     8  33    5.4985   624.4    2.987      67.752
2015    3        8     8  38    5.4973   624.3    2.987      67.741
2015    3        8     8  43    5.4960   624.2    2.987      67.730
2015    3        8     8  49    5.4947   624.2    2.987      67.719
2015    3        8     8  54    5.4935   624.1    2.987      67.709
2015    3        8     8  59    5.4922   624.0    2.987      67.699
2015    3        8     9   4    5.4910   623.9    2.987      67.689
2015    3        8     9   9    5.4897   623.9    2.987      67.679
2015    3        8     9  15    5.4885   623.8    2.987      67.670
2015    3        8     9  20    5.4872   623.7    2.987      67.661
2015    3        8     9  25    5.4860   623.6    2.987      67.653
2015    3        8     9  30    5.4847   623.6    2.988      67.645
2015    3        8     9  35    5.4835   623.5    2.988      67.638
2015    3        8     9  41    5.4822   623.4    2.988      67.631
2015    3        8     9  46    5.4810   623.3    2.988      67.625
2015    3        8     9  51    5.4797   623.3    2.988      67.619
2015    3        8     9  56    5.4785   623.2    2.988      67.614
2015    3        8    10   1    5.4772   623.1    2.989      67.610
2015    3        8    10   6    5.4760   623.0    2.989      67.606
2015    3        8    10  12    5.4747   623.0    2.989      67.603
2015    3        8    10  17    5.4734   622.9    2.990      67.600
2015    3        8    10  22    5.4722   622.8    2.990      67.597
2015    3        8    10  27    5.4708   622.7    2.990      67.596
2015    3        8    10  32    5.4695   622.6    2.990      67.594
2015    3        8    10  38    5.4682   622.6    2.991      67.593
2015    3        8    10  43    5.4669   622.5    2.991      67.593
2015    3        8    10  48    5.4655   622.4    2.991      67.592
2015    3        8    10  53    5.4642   622.3    2.992      67.591
2015    3        8    10  58    5.4628   622.2    2.992      67.591
2015    3        8    11   4    5.4614   622.2    2.992      67.591
2015    3        8    11   9    5.4600   622.1    2.992      67.590
2015    3        8    11  14    5.4585   622.0    2.993      67.589
2015    3        8    11  19    5.4571   621.9    2.993      67.588
2015    3        8    11  24    5.4556   621.8    2.993      67.587
2015    3        8    11  30    5.4542   621.8    2.993      67.585
2015    3        8    11  35    5.4527   621.7    2.994      67.583
2015    3        8    11  40    5.4512   621.6    2.994      67.580
2015    3        8    11  45    5.4497   621.5    2.994      67.577
2015    3        8    11  50    5.4483   621.4    2.994      67.574
2015    3        8    11  56    5.4468   621.3    2.995      67.570
2015    3        8    12   1    5.4453   621.3    2.995      67.567
2015    3        8    12   6    5.4438   621.2    2.995      67.562
2015    3        8    12  11    5.4423   621.1    2.995      67.558
2015    3        8    12  16    5.4408   621.0    2.995      67.553
2015    3        8    12  22    5.4393   620.9    2.996      67.548
2015    3        8    12  27    5.4378   620.8    2.996      67.543
2015    3        8    12  32    5.4363   620.8    2.996      67.537
2015    3        8    12  37    5.4348   620.7    2.996      67.531
2015    3        8    12  42    5.4333   620.6    2.996      67.525
2015    3        8    12  48    5.4318   620.5    2.997      67.518
2015    3        8    12  53    5.4303   620.4    2.997      67.511
2015    3        8    12  58    5.4288   620.4    2.997      67.504
2015    3        8    13   3    5.4273   620.3    2.997      67.497
2015    3        8    13   8    5.4258   620.2    2.998      67.489
2015    3        8    13  14    5.4243   620.1    2.998      67.481
2015    3        8    13  19    5.4228   620.0    2.998      67.473
2015    3        8    13  24    5.4213   620.0    2.998      67.464
2015    3        8    13  29    5.4198   619.9    2.999      67.455
2015    3        8    13  34    5.4183   619.8    2.999      67.446
2015    3        8    13  40    5.4168   619.7    2.999      67.436
2015    3        8    13  45    5.4153   619.6    2.999      67.426
2015    3        8    13  50    5.4138   619.6    2.999      67.416
2015    3        8    13  55    5.4123   619.5    3.000      67.405
2015    3        8    14   0    5.4108   619.4    3.000      67.394
2015    3        8    14   6    5.4093   619.3    3.000      67.382
2015    3        8    14  11    5.4078   619.3    3.000      67.370
2015    3        8    14  16    5.4063   619.2    3.000      67.358
2015    3        8    14  21    5.4048   619.1    3.000      67.345
2015    3        8    14  26    5.4033   619.0    3.001      67.332
2015    3        8    14  31    5.4017   618.9    3.001      67.319
2015    3        8    14  37    5.4002   618.9    3.001      67.305
2015    3        8    14  42    5.3987   618.8    3.001      67.291
2015    3        8    14  47    5.3972   618.7    3.001      67.276
2015    3        8    14  52    5.3957   618.6    3.001      67.262
2015    3        8    14  57    5.3942   618.5    3.001      67.247
2015    3        8    15   3    5.3927   618.5    3.001      67.232
2015    3        8    15   8    5.3912   618.4    3.001      67.217
2015    3        8    15  13    5.3897   618.3    3.001      67.201
2015    3        8    15  18    5.3882   618.2    3.001      67.186
2015    3        8    15  23    5.3867   618.1    3.002      67.171
2015    3        8    15  29    5.3852   618.0    3.002      67.155
2015    3        8    15  34    5.3837   618.0    3.002      67.140
2015    3        8    15  39    5.3823   617.9    3.002      67.125
2015    3        8    15  44    5.3808   617.8    3.002      67.110
2015    3        8    15  49    5.3793   617.7    3.002      67.095
2015    3        8    15  55    5.3778   617.6    3.002      67.080
2015    3        8    16   0    5.3764   617.5    3.003      67.066
2015    3        8    16   5    5.3749   617.4    3.003      67.051
2015    3        8    16  10    5.3734   617.3    3.003      67.037
2015    3        8    16  15    5.3719   617.3    3.003      67.024
2015    3        8    16  21    5.3705   617.2    3.004      67.011
2015    3        8    16  26    5.3690   617.1    3.004      66.998
2015    3        8    16  31    5.3675   617.0    3.004      66.985
2015    3        8    16  36    5.3661   616.9    3.005      66.973
2015    3        8    16  41    5.3646   616.8    3.005      66.962
2015    3        8    16  47    5.3631   616.7    3.005      66.951
2015    3        8    16  52    5.3616   616.6    3.006      66.942
2015    3        8    16  57    5.3601   616.5    3.006      66.933
2015    3        8    17   2    5.3586   616.4    3.007      66.924
2015    3        8    17   7    5.3571   616.3    3.007      66.916
2015    3        8    17  13    5.3556   616.3    3.007      66.908
2015    3        8    17  18    5.3541   616.2    3.008      66.901
2015    3        8    17  23    5.3526   616.1    3.008      66.894
2015    3        8    17  28    5.3511   616.0    3.009      66.887
2015    3        8    17  33    5.3496   615.9    3.009      66.881
2015    3        8    17  39    5.3480   615.8    3.009      66.875
2015    3        8    17  44    5.3465   615.7    3.010      66.869
2015    3        8    17  49    5.3449   615.6    3.010      66.862
2015    3        8    17  54    5.3434   615.5    3.010      66.856
2015    3        8    17  59    5.3418   615.4    3.011      66.849
2015    3        8    18   4    5.3402   615.3    3.011      66.843
2015    3        8    18  10    5.3386   615.2    3.011      66.836
2015    3        8    18  15    5.3371   615.1    3.012      66.829
2015    3        8    18  20    5.3355   615.0    3.012      66.822
2015    3        8    18  25    5.3339   614.9    3.012      66.815
2015    3        8    18  30    5.3323   614.8    3.012      66.807
2015    3        8    18  36    5.3307   614.7    3.013      66.800
2015    3        8    18  41    5.3291   614.6    3.013      66.792
2015    3        8    18  46    5.3275   614.5    3.013      66.784
2015    3        8    18  51    5.3259   614.4    3.013      66.775
2015    3        8    18  56    5.3242   614.3    3.013      66.766
2015    3        8    19   2    5.3226   614.2    3.013      66.757
2015    3        8    19   7    5.3210   614.1    3.014      66.748
2015    3        8    19  12    5.3194   614.0    3.014      66.738
2015    3        8    19  17    5.3178   613.9    3.014      66.728
2015    3        8    19  22    5.3162   613.8    3.014      66.718
2015    3        8    19  28    5.3146   613.6    3.014      66.707
2015    3        8    19  33    5.3130   613.5    3.014      66.697
2015    3        8    19  38    5.3114   613.4    3.014      66.686
2015    3        8    19  43    5.3098   613.3    3.014      66.674
2015    3        8    19  48    5.3082   613.2    3.014      66.662
2015    3        8    19  54    5.3066   613.1    3.014      66.650
2015    3        8    19  59    5.3050   613.0    3.014      66.638
2015    3        8    20   4    5.3034   612.9    3.014      66.625
2015    3        8    20   9    5.3019   612.8    3.014      66.612
2015    3        8    20  14    5.3003   612.7    3.015      66.599
2015    3        8    20  20    5.2988   612.6    3.015      66.585
2015    3        8    20  25    5.2973   612.5    3.015      66.572
2015    3        8    20  30    5.2957   612.4    3.015      66.557
2015    3        8    20  35    5.2942   612.3    3.015      66.543
2015    3        8    20  40    5.2926   612.2    3.015      66.528
2015    3        8    20  46    5.2911   612.1    3.015      66.513
2015    3        8    20  51    5.2896   612.0    3.016      66.497
2015    3        8    20  56    5.2881   611.9    3.016      66.481
2015    3        8    21   1    5.2865   611.8    3.016      66.465
2015    3        8    21   6    5.2850   611.6    3.016      66.448
2015    3        8    21  12    5.2835   611.5    3.016      66.430
2015    3        8    21  17    5.2819   611.4    3.016      66.412
2015    3        8    21  22    5.2804   611.3    3.017      66.394
2015    3        8    21  27    5.2788   611.2    3.017      66.376
2015    3        8    21  32    5.2773   611.1    3.017      66.356
2015    3        8    21  38    5.2757   611.0    3.017      66.337
2015    3        8    21  43    5.2741   610.9    3.017      66.317
2015    3        8    21  48    5.2726   610.8    3.018      66.296
2015    3        8    21  53    5.2710   610.7    3.018      66.275
2015    3        8    21  58    5.2694   610.5    3.018      66.253
2015    3        8    22   3    5.2678   610.4    3.018      66.232
2015    3        8    22   9    5.2663   610.3    3.018      66.210
2015    3        8    22  14    5.2647   610.2    3.018      66.187
2015    3        8    22  19    5.2631   610.1    3.019      66.165
2015    3        8    22  24    5.2615   610.0    3.019      66.142
2015    3        8    22  29    5.2599   609.8    3.019      66.119
2015    3        8    22  35    5.2584   609.7    3.019      66.096
2015    3        8    22  40    5.2568   609.6    3.020      66.073
2015    3        8    22  45    5.2553   609.5    3.020      66.050
2015    3        8    22  50    5.2537   609.4    3.020      66.028
2015    3        8    22  55    5.2521   609.2    3.020      66.005
2015    3        8    23   1    5.2506   609.1    3.021      65.982
2015    3        8    23   6    5.2490   609.0    3.021      65.960
2015    3        8    23  11    5.2475   608.9    3.021      65.938
2015    3        8    23  16    5.2460   608.7    3.022      65.916
2015    3        8    23  21    5.2444   608.6    3.022      65.895
2015    3        8    23  27    5.2429   608.5    3.023      65.874
2015    3        8    23  32    5.2413   608.4    3.023      65.853
2015    3        8    23  37    5.2398   608.2    3.024      65.833
2015    3        8    23  42    5.2383   608.1    3.024      65.813
2015    3        8    23  47    5.2367   608.0    3.025      65.794
2015    3        8    23  53    5.2351   607.9    3.025      65.775
2015    3        8    23  58    5.2336   607.8    3.026      65.756
2015    3        9     0   3    5.2320   607.6    3.027      65.738
2015    3        9     0   8    5.2304   607.5    3.027      65.720
2015    3        9     0  13    5.2288   607.4    3.028      65.703
2015    3        9     0  19    5.2272   607.3    3.029      65.686
2015    3        9     0  24    5.2256   607.1    3.029      65.669
2015    3        9     0  29    5.2240   607.0    3.030      65.654
2015    3        9     0  34    5.2223   606.9    3.031      65.638
2015    3        9     0  39    5.2207   606.8    3.031      65.623
2015    3        9     0  45    5.2190   606.6    3.032      65.608
2015    3        9     0  50    5.2174   606.5    3.033      65.594
2015    3        9     0  55    5.2157   606.4    3.034      65.581
2015    3        9     1   0    5.2140   606.2    3.035      65.567
2015    3        9     1   5    5.2123   606.1    3.035      65.555
2015    3        9     1  11    5.2107   606.0    3.036      65.543
2015    3        9     1  16    5.2090   605.9    3.037      65.531
2015    3        9     1  21    5.2073   605.7    3.038      65.519
2015    3        9     1  26    5.2056   605.6    3.039      65.508
2015    3        9     1  31    5.2039   605.5    3.040      65.498
2015    3        9     1  37    5.2022   605.3    3.041      65.487
2015    3        9     1  42    5.2005   605.2    3.041      65.478
2015    3        9     1  47    5.1988   605.1    3.042      65.468
2015    3        9     1  52    5.1971   604.9    3.043      65.459
2015    3        9     1  57    5.1954   604.8    3.044      65.450
2015    3        9     2   2    5.1937   604.7    3.045      65.441
2015    3        9     2   8    5.1921   604.5    3.046      65.432
2015    3        9     2  13    5.1904   604.4    3.047      65.424
2015    3        9     2  18    5.1887   604.3    3.048      65.415
2015    3        9     2  23    5.1870   604.1    3.048      65.407
2015    3        9     2  28    5.1854   604.0    3.049      65.398
2015    3        9     2  34    5.1837   603.9    3.050      65.390
2015    3        9     2  39    5.1821   603.7    3.051      65.381
2015    3        9     2  44    5.1804   603.6    3.052      65.373
2015    3        9     2  49    5.1788   603.5    3.053      65.364
2015    3        9     2  54    5.1772   603.3    3.054      65.355
2015    3        9     3   0    5.1756   603.2    3.054      65.345
2015    3        9     3   5    5.1739   603.0    3.055      65.335
2015    3        9     3  10    5.1724   602.9    3.056      65.325
2015    3        9     3  15    5.1708   602.8    3.057      65.315
2015    3        9     3  20    5.1692   602.6    3.057      65.304
2015    3        9     3  26    5.1676   602.5    3.058      65.293
2015    3        9     3  31    5.1661   602.3    3.059      65.281
2015    3        9     3  36    5.1646   602.2    3.059      65.268
2015    3        9     3  41    5.1630   602.1    3.060      65.255
2015    3        9     3  46    5.1615   601.9    3.061      65.242
2015    3        9     3  52    5.1600   601.8    3.061      65.227
2015    3        9     3  57    5.1586   601.6    3.062      65.212
2015    3        9     4   2    5.1571   601.5    3.062      65.197
2015    3        9     4   7    5.1556   601.4    3.063      65.180
2015    3        9     4  12    5.1542   601.2    3.064      65.163
2015    3        9     4  18    5.1528   601.1    3.064      65.146
2015    3        9     4  23    5.1513   600.9    3.065      65.127
2015    3        9     4  28    5.1499   600.8    3.065      65.109
2015    3        9     4  33    5.1486   600.6    3.066      65.089
2015    3        9     4  38    5.1472   600.5    3.066      65.069
2015    3        9     4  44    5.1458   600.3    3.066      65.048
2015    3        9     4  49    5.1444   600.2    3.067      65.026
2015    3        9     4  54    5.1430   600.0    3.067      65.004
2015    3        9     4  59    5.1417   599.9    3.068      64.981
2015    3        9     5   4    5.1403   599.8    3.068      64.958
2015    3        9     5  10    5.1390   599.6    3.068      64.934
2015    3        9     5  15    5.1376   599.5    3.069      64.909
2015    3        9     5  20    5.1362   599.3    3.069      64.884
2015    3        9     5  25    5.1348   599.2    3.069      64.858
2015    3        9     5  30    5.1334   599.0    3.070      64.832
2015    3        9     5  36    5.1320   598.9    3.070      64.805
2015    3        9     5  41    5.1306   598.7    3.070      64.778
2015    3        9     5  46    5.1292   598.6    3.071      64.751
2015    3        9     5  51    5.1278   598.5    3.071      64.723
2015    3        9     5  56    5.1263   598.3    3.071      64.695
2015    3        9     6   1    5.1249   598.2    3.071      64.666
2015    3        9     6   7    5.1234   598.0    3.072      64.637
2015    3        9     6  12    5.1219   597.9    3.072      64.608
2015    3        9     6  17    5.1204   597.7    3.072      64.578
2015    3        9     6  22    5.1189   597.6    3.072      64.549
2015    3        9     6  27    5.1174   597.4    3.073      64.519
2015    3        9     6  33    5.1159   597.3    3.073      64.489
2015    3        9     6  38    5.1144   597.1    3.073      64.459
2015    3        9     6  43    5.1128   597.0    3.074      64.429
2015    3        9     6  48    5.1113   596.8    3.074      64.399
2015    3        9     6  53    5.1097   596.7    3.074      64.370
2015    3        9     6  59    5.1081   596.5    3.075      64.340
2015    3        9     7   4    5.1066   596.3    3.075      64.311
2015    3        9     7   9    5.1050   596.2    3.075      64.282
2015    3        9     7  14    5.1034   596.0    3.076      64.254
2015    3        9     7  19    5.1018   595.9    3.076      64.225
2015    3        9     7  25    5.1002   595.7    3.077      64.198
2015    3        9     7  30    5.0986   595.6    3.078      64.171
2015    3        9     7  35    5.0970   595.4    3.078      64.144
2015    3        9     7  40    5.0954   595.3    3.079      64.118
2015    3        9     7  45    5.0938   595.1    3.080      64.092
2015    3        9     7  51    5.0922   594.9    3.080      64.068
2015    3        9     7  56    5.0905   594.8    3.081      64.044
2015    3        9     8   1    5.0889   594.6    3.082      64.020
2015    3        9     8   6    5.0873   594.5    3.083      63.998
2015    3        9     8  11    5.0857   594.3    3.084      63.975
2015    3        9     8  17    5.0841   594.1    3.085      63.954
2015    3        9     8  22    5.0824   594.0    3.086      63.934
2015    3        9     8  27    5.0808   593.8    3.087      63.914
2015    3        9     8  32    5.0792   593.6    3.089      63.895
2015    3        9     8  37    5.0775   593.5    3.090      63.876
2015    3        9     8  43    5.0759   593.3    3.091      63.858
2015    3        9     8  48    5.0743   593.1    3.093      63.841
2015    3        9     8  53    5.0727   593.0    3.094      63.824
2015    3        9     8  58    5.0710   592.8    3.095      63.808
2015    3        9     9   3    5.0694   592.7    3.097      63.792
2015    3        9     9   9    5.0678   592.5    3.098      63.777
2015    3        9     9  14    5.0662   592.3    3.100      63.762
2015    3        9     9  19    5.0645   592.1    3.101      63.747
2015    3        9     9  24    5.0629   592.0    3.103      63.733
2015    3        9     9  29    5.0613   591.8    3.104      63.719
2015    3        9     9  34    5.0597   591.6    3.106      63.705
2015    3        9     9  40    5.0581   591.5    3.107      63.691
2015    3        9     9  45    5.0565   591.3    3.109      63.677
2015    3        9     9  50    5.0549   591.1    3.110      63.664
2015    3        9     9  55    5.0533   590.9    3.112      63.650
2015    3        9    10   0    5.0518   590.8    3.114      63.637
2015    3        9    10   6    5.0502   590.6    3.115      63.623
2015    3        9    10  11    5.0487   590.4    3.117      63.610
2015    3        9    10  16    5.0472   590.2    3.118      63.596
2015    3        9    10  21    5.0456   590.1    3.120      63.583
2015    3        9    10  26    5.0441   589.9    3.121      63.569
2015    3        9    10  32    5.0427   589.7    3.122      63.555
2015    3        9    10  37    5.0412   589.5    3.124      63.540
2015    3        9    10  42    5.0397   589.3    3.125      63.526
2015    3        9    10  47    5.0383   589.2    3.127      63.511
2015    3        9    10  52    5.0369   589.0    3.128      63.495
2015    3        9    10  58    5.0355   588.8    3.129      63.480
2015    3        9    11   3    5.0341   588.6    3.131      63.464
2015    3        9    11   8    5.0328   588.5    3.132      63.448
2015    3        9    11  13    5.0314   588.3    3.133      63.431
2015    3        9    11  18    5.0301   588.1    3.134      63.414
2015    3        9    11  24    5.0288   587.9    3.136      63.396
2015    3        9    11  29    5.0275   587.7    3.137      63.378
2015    3        9    11  34    5.0262   587.6    3.138      63.359
2015    3        9    11  39    5.0249   587.4    3.139      63.340
2015    3        9    11  44    5.0237   587.2    3.140      63.320
2015    3        9    11  50    5.0225   587.0    3.141      63.300
2015    3        9    11  55    5.0212   586.8    3.142      63.279
2015    3        9    12   0    5.0200   586.7    3.143      63.258
2015    3        9    12   5    5.0188   586.5    3.144      63.236
2015    3        9    12  10    5.0175   586.3    3.145      63.214
2015    3        9    12  16    5.0163   586.1    3.146      63.191
2015    3        9    12  21    5.0151   585.9    3.147      63.167
2015    3        9    12  26    5.0139   585.8    3.148      63.143
2015    3        9    12  31    5.0126   585.6    3.149      63.119
2015    3        9    12  36    5.0114   585.4    3.150      63.094
2015    3        9    12  42    5.0101   585.2    3.151      63.068
2015    3        9    12  47    5.0088   585.0    3.152      63.042
2015    3        9    12  52    5.0076   584.9    3.152      63.015
2015    3        9    12  57    5.0062   584.7    3.153      62.988
2015    3        9    13   2    5.0049   584.5    3.154      62.961
2015    3        9    13   8    5.0036   584.3    3.155      62.933
2015    3        9    13  13    5.0023   584.1    3.156      62.904
2015    3        9    13  18    5.0009   584.0    3.156      62.875
2015    3        9    13  23    4.9996   583.8    3.157      62.846
2015    3        9    13  28    4.9982   583.6    3.158      62.816
2015    3        9    13  34    4.9968   583.4    3.158      62.786
2015    3        9    13  39    4.9954   583.2    3.159      62.755
2015    3        9    13  44    4.9940   583.1    3.160      62.724
2015    3        9    13  49    4.9926   582.9    3.160      62.693
2015    3        9    13  54    4.9912   582.7    3.161      62.662
2015    3        9    13  59    4.9898   582.5    3.162      62.630
2015    3        9    14   5    4.9884   582.3    3.162      62.598
2015    3        9    14  10    4.9869   582.1    3.163      62.566
2015    3        9    14  15    4.9855   582.0    3.163      62.534
2015    3        9    14  20    4.9840   581.8    3.164      62.502
2015    3        9    14  25    4.9826   581.6    3.165      62.470
2015    3        9    14  31    4.9811   581.4    3.166      62.438
2015    3        9    14  36    4.9797   581.2    3.166      62.406
2015    3        9    14  41    4.9782   581.0    3.167      62.374
2015    3        9    14  46    4.9767   580.9    3.168      62.343
2015    3        9    14  51    4.9753   580.7    3.169      62.312
2015    3        9    14  57    4.9738   580.5    3.170      62.280
2015    3        9    15   2    4.9723   580.3    3.171      62.250
2015    3        9    15   7    4.9709   580.1    3.172      62.219
2015    3        9    15  12    4.9694   579.9    3.173      62.189
2015    3        9    15  17    4.9679   579.7    3.174      62.160
2015    3        9    15  23    4.9665   579.5    3.175      62.130
2015    3        9    15  28    4.9650   579.3    3.176      62.102
2015    3        9    15  33    4.9635   579.1    3.177      62.074
2015    3        9    15  38    4.9621   579.0    3.179      62.046
2015    3        9    15  43    4.9606   578.8    3.180      62.019
2015    3        9    15  49    4.9592   578.6    3.181      61.992
2015    3        9    15  54    4.9577   578.4    3.183      61.966
2015    3        9    15  59    4.9563   578.2    3.184      61.940
2015    3        9    16   4    4.9549   578.0    3.186      61.915
2015    3        9    16   9    4.9535   577.8    3.187      61.891
2015    3        9    16  15    4.9520   577.6    3.189      61.867
2015    3        9    16  20    4.9506   577.4    3.191      61.843
2015    3        9    16  25    4.9492   577.2    3.192      61.820
2015    3        9    16  30    4.9478   577.0    3.194      61.798
2015    3        9    16  35    4.9465   576.8    3.196      61.776
2015    3        9    16  41    4.9451   576.6    3.198      61.754
2015    3        9    16  46    4.9437   576.4    3.200      61.733
2015    3        9    16  51    4.9424   576.2    3.201      61.712
2015    3        9    16  56    4.9410   576.0    3.203      61.691
2015    3        9    17   1    4.9397   575.8    3.205      61.670
2015    3        9    17   6    4.9383   575.6    3.207      61.650
2015    3        9    17  12    4.9370   575.4    3.209      61.630
2015    3        9    17  17    4.9357   575.2    3.211      61.610
2015    3        9    17  22    4.9343   575.0    3.213      61.590
2015    3        9    17  27    4.9330   574.8    3.214      61.570
2015    3        9    17  32    4.9317   574.6    3.216      61.550
2015    3        9    17  38    4.9304   574.4    3.218      61.530
2015    3        9    17  43    4.9291   574.2    3.220      61.510
2015    3        9    17  48    4.9278   574.0    3.222      61.490
2015    3        9    17  53    4.9265   573.8    3.224      61.470
2015    3        9    17  58    4.9253   573.6    3.225      61.450
2015    3        9    18   4    4.9240   573.4    3.227      61.430
2015    3        9    18   9    4.9228   573.2    3.229      61.410
2015    3        9    18  14    4.9215   573.0    3.231      61.390
2015    3        9    18  19    4.9203   572.8    3.232      61.370
2015    3        9    18  24    4.9191   572.6    3.234      61.350
2015    3        9    18  30    4.9179   572.4    3.236      61.330
2015    3        9    18  35    4.9167   572.2    3.237      61.309
2015    3        9    18  40    4.9155   572.0    3.239      61.289
2015    3        9    18  45    4.9144   571.8    3.241      61.268
2015    3        9    18  50    4.9132   571.5    3.242      61.247
2015    3        9    18  56    4.9121   571.3    3.244      61.226
2015    3        9    19   1    4.9110   571.1    3.246      61.204
2015    3        9    19   6    4.9098   570.9    3.247      61.183
2015    3        9    19  11    4.9087   570.7    3.249      61.161
2015    3        9    19  16    4.9076   570.5    3.250      61.139
2015    3        9    19  22    4.9065   570.3    3.252      61.116
2015    3        9    19  27    4.9054   570.1    3.254      61.094
2015    3        9    19  32    4.9043   569.9    3.255      61.071
2015    3        9    19  37    4.9032   569.7    3.257      61.047
2015    3        9    19  42    4.9022   569.5    3.258      61.024
2015    3        9    19  48    4.9011   569.3    3.260      61.000
2015    3        9    19  53    4.9000   569.1    3.261      60.975
2015    3        9    19  58    4.8989   568.8    3.263      60.951
2015    3        9    20   3    4.8978   568.6    3.264      60.926
2015    3        9    20   8    4.8967   568.4    3.266      60.901
2015    3        9    20  14    4.8956   568.2    3.267      60.875
2015    3        9    20  19    4.8945   568.0    3.269      60.849
2015    3        9    20  24    4.8934   567.8    3.270      60.823
2015    3        9    20  29    4.8923   567.6    3.272      60.797
2015    3        9    20  34    4.8912   567.4    3.273      60.770
2015    3        9    20  40    4.8900   567.2    3.275      60.742
2015    3        9    20  45    4.8889   567.0    3.276      60.715
2015    3        9    20  50    4.8878   566.8    3.278      60.687
2015    3        9    20  55    4.8866   566.6    3.279      60.658
2015    3        9    21   0    4.8855   566.3    3.280      60.630
2015    3        9    21   6    4.8843   566.1    3.282      60.601
2015    3        9    21  11    4.8832   565.9    3.283      60.572
2015    3        9    21  16    4.8820   565.7    3.285      60.542
2015    3        9    21  21    4.8809   565.5    3.286      60.513
2015    3        9    21  26    4.8798   565.3    3.287      60.483
2015    3        9    21  31    4.8786   565.1    3.289      60.453
2015    3        9    21  37    4.8774   564.9    3.290      60.422
2015    3        9    21  42    4.8763   564.6    3.292      60.392
2015    3        9    21  47    4.8751   564.4    3.293      60.362
2015    3        9    21  52    4.8740   564.2    3.295      60.331
2015    3        9    21  57    4.8728   564.0    3.296      60.301
2015    3        9    22   3    4.8717   563.8    3.297      60.270
2015    3        9    22   8    4.8706   563.6    3.299      60.240
2015    3        9    22  13    4.8694   563.4    3.300      60.209
2015    3        9    22  18    4.8683   563.1    3.302      60.179
2015    3        9    22  23    4.8672   562.9    3.303      60.149
2015    3        9    22  29    4.8661   562.7    3.305      60.119
2015    3        9    22  34    4.8650   562.5    3.306      60.089
2015    3        9    22  39    4.8639   562.3    3.308      60.059
2015    3        9    22  44    4.8628   562.1    3.310      60.029
2015    3        9    22  49    4.8617   561.9    3.311      60.000
2015    3        9    22  55    4.8607   561.6    3.313      59.971
2015    3        9    23   0    4.8596   561.4    3.315      59.942
2015    3        9    23   5    4.8585   561.2    3.316      59.913
2015    3        9    23  10    4.8575   561.0    3.318      59.884
2015    3        9    23  15    4.8564   560.8    3.320      59.856
2015    3        9    23  21    4.8554   560.6    3.321      59.828
2015    3        9    23  26    4.8544   560.4    3.323      59.800
2015    3        9    23  31    4.8533   560.1    3.325      59.772
2015    3        9    23  36    4.8523   559.9    3.327      59.745
2015    3        9    23  41    4.8514   559.7    3.329      59.718
2015    3        9    23  47    4.8504   559.5    3.330      59.691
2015    3        9    23  52    4.8494   559.3    3.332      59.664
2015    3        9    23  57    4.8484   559.1    3.334      59.638
2015    3       10     0   2    4.8474   558.9    3.336      59.612
