year    month   day   hour  minute  B_enl V_enl   n_enl       T_enl
[year] [month] [day] [hour][minute] [nT]  [km/s]  [cm-3]      [kK]
2015    2       28     0   4    5.1863   657.5    2.833      61.659
2015    2       28     0  10    5.1843   657.4    2.833      61.629
2015    2       28     0  15    5.1822   657.3    2.832      61.598
2015    2       28     0  20    5.1802   657.2    2.832      61.568
2015    2       28     0  25    5.1781   657.1    2.831      61.538
2015    2       28     0  30    5.1760   657.0    2.831      61.508
2015    2       28     0  36    5.1740   656.9    2.831      61.478
2015    2       28     0  41    5.1719   656.8    2.830      61.448
2015    2       28     0  46    5.1698   656.7    2.830      61.419
2015    2       28     0  51    5.1677   656.6    2.830      61.389
2015    2       28     0  56    5.1656   656.5    2.830      61.360
2015    2       28     1   2    5.1635   656.4    2.829      61.330
2015    2       28     1   7    5.1614   656.3    2.829      61.301
2015    2       28     1  12    5.1593   656.1    2.829      61.272
2015    2       28     1  17    5.1572   656.0    2.829      61.242
2015    2       28     1  22    5.1552   655.9    2.828      61.213
2015    2       28     1  28    5.1531   655.8    2.828      61.184
2015    2       28     1  33    5.1510   655.7    2.828      61.154
2015    2       28     1  38    5.1489   655.6    2.828      61.125
2015    2       28     1  43    5.1467   655.5    2.827      61.095
2015    2       28     1  48    5.1447   655.4    2.827      61.066
2015    2       28     1  54    5.1426   655.3    2.827      61.036
2015    2       28     1  59    5.1405   655.2    2.827      61.006
2015    2       28     2   4    5.1384   655.1    2.826      60.976
2015    2       28     2   9    5.1363   655.0    2.826      60.946
2015    2       28     2  14    5.1342   654.9    2.826      60.915
2015    2       28     2  20    5.1321   654.7    2.825      60.885
2015    2       28     2  25    5.1300   654.6    2.825      60.854
2015    2       28     2  30    5.1279   654.5    2.825      60.823
2015    2       28     2  35    5.1258   654.4    2.824      60.792
2015    2       28     2  40    5.1237   654.3    2.824      60.761
2015    2       28     2  46    5.1216   654.2    2.823      60.730
2015    2       28     2  51    5.1195   654.1    2.823      60.699
2015    2       28     2  56    5.1174   654.0    2.823      60.668
2015    2       28     3   1    5.1153   653.8    2.822      60.636
2015    2       28     3   6    5.1132   653.7    2.822      60.605
2015    2       28     3  12    5.1111   653.6    2.821      60.573
2015    2       28     3  17    5.1090   653.5    2.821      60.542
2015    2       28     3  22    5.1069   653.4    2.820      60.510
2015    2       28     3  27    5.1048   653.3    2.820      60.478
2015    2       28     3  32    5.1027   653.1    2.820      60.447
2015    2       28     3  38    5.1007   653.0    2.819      60.416
2015    2       28     3  43    5.0986   652.9    2.819      60.384
2015    2       28     3  48    5.0965   652.8    2.818      60.352
2015    2       28     3  53    5.0944   652.7    2.818      60.321
2015    2       28     3  58    5.0923   652.5    2.818      60.290
2015    2       28     4   4    5.0902   652.4    2.817      60.258
2015    2       28     4   9    5.0881   652.3    2.817      60.227
2015    2       28     4  14    5.0860   652.2    2.816      60.195
2015    2       28     4  19    5.0839   652.1    2.816      60.164
2015    2       28     4  24    5.0819   651.9    2.816      60.132
2015    2       28     4  30    5.0798   651.8    2.815      60.101
2015    2       28     4  35    5.0777   651.7    2.815      60.069
2015    2       28     4  40    5.0756   651.6    2.815      60.038
2015    2       28     4  45    5.0735   651.5    2.814      60.006
2015    2       28     4  50    5.0714   651.3    2.814      59.974
2015    2       28     4  56    5.0693   651.2    2.813      59.942
2015    2       28     5   1    5.0672   651.1    2.813      59.910
2015    2       28     5   6    5.0650   651.0    2.813      59.879
2015    2       28     5  11    5.0629   650.8    2.812      59.847
2015    2       28     5  16    5.0608   650.7    2.812      59.815
2015    2       28     5  22    5.0587   650.6    2.812      59.783
2015    2       28     5  27    5.0566   650.4    2.811      59.751
2015    2       28     5  32    5.0544   650.3    2.811      59.718
2015    2       28     5  37    5.0523   650.2    2.811      59.686
2015    2       28     5  42    5.0502   650.1    2.810      59.654
2015    2       28     5  48    5.0480   649.9    2.810      59.621
2015    2       28     5  53    5.0459   649.8    2.810      59.589
2015    2       28     5  58    5.0438   649.7    2.809      59.556
2015    2       28     6   3    5.0416   649.5    2.809      59.523
2015    2       28     6   8    5.0394   649.4    2.809      59.490
2015    2       28     6  14    5.0373   649.3    2.808      59.457
2015    2       28     6  19    5.0351   649.1    2.808      59.424
2015    2       28     6  24    5.0330   649.0    2.808      59.391
2015    2       28     6  29    5.0308   648.9    2.807      59.358
2015    2       28     6  34    5.0286   648.7    2.807      59.324
2015    2       28     6  40    5.0264   648.6    2.807      59.290
2015    2       28     6  45    5.0243   648.5    2.806      59.256
2015    2       28     6  50    5.0221   648.3    2.806      59.221
2015    2       28     6  55    5.0199   648.2    2.806      59.187
2015    2       28     7   0    5.0177   648.0    2.806      59.152
2015    2       28     7   6    5.0156   647.9    2.805      59.117
2015    2       28     7  11    5.0134   647.8    2.805      59.082
2015    2       28     7  16    5.0112   647.6    2.805      59.046
2015    2       28     7  21    5.0090   647.5    2.805      59.011
2015    2       28     7  26    5.0068   647.3    2.805      58.975
2015    2       28     7  32    5.0046   647.2    2.805      58.939
2015    2       28     7  37    5.0024   647.0    2.804      58.903
2015    2       28     7  42    5.0003   646.9    2.804      58.866
2015    2       28     7  47    4.9981   646.7    2.804      58.830
2015    2       28     7  52    4.9959   646.6    2.804      58.793
2015    2       28     7  58    4.9937   646.4    2.804      58.756
2015    2       28     8   3    4.9916   646.3    2.804      58.719
2015    2       28     8   8    4.9894   646.1    2.804      58.682
2015    2       28     8  13    4.9872   646.0    2.804      58.645
2015    2       28     8  18    4.9850   645.8    2.804      58.608
2015    2       28     8  24    4.9829   645.7    2.804      58.571
2015    2       28     8  29    4.9807   645.5    2.804      58.533
2015    2       28     8  34    4.9786   645.4    2.804      58.496
2015    2       28     8  39    4.9764   645.2    2.804      58.458
2015    2       28     8  44    4.9743   645.1    2.804      58.420
2015    2       28     8  50    4.9721   644.9    2.804      58.382
2015    2       28     8  55    4.9700   644.8    2.804      58.344
2015    2       28     9   0    4.9678   644.6    2.804      58.306
2015    2       28     9   5    4.9657   644.4    2.804      58.268
2015    2       28     9  10    4.9635   644.3    2.804      58.230
2015    2       28     9  16    4.9614   644.1    2.804      58.191
2015    2       28     9  21    4.9592   644.0    2.805      58.153
2015    2       28     9  26    4.9571   643.8    2.805      58.114
2015    2       28     9  31    4.9549   643.7    2.805      58.075
2015    2       28     9  36    4.9528   643.5    2.805      58.036
2015    2       28     9  42    4.9506   643.4    2.805      57.997
2015    2       28     9  47    4.9485   643.2    2.805      57.957
2015    2       28     9  52    4.9463   643.0    2.805      57.918
2015    2       28     9  57    4.9441   642.9    2.805      57.878
2015    2       28    10   2    4.9420   642.7    2.805      57.839
2015    2       28    10   8    4.9398   642.6    2.805      57.799
2015    2       28    10  13    4.9376   642.4    2.805      57.759
2015    2       28    10  18    4.9355   642.2    2.804      57.719
2015    2       28    10  23    4.9333   642.1    2.804      57.678
2015    2       28    10  28    4.9311   641.9    2.804      57.638
2015    2       28    10  34    4.9290   641.8    2.804      57.597
2015    2       28    10  39    4.9268   641.6    2.804      57.557
2015    2       28    10  44    4.9246   641.4    2.804      57.516
2015    2       28    10  49    4.9224   641.3    2.804      57.475
2015    2       28    10  54    4.9202   641.1    2.803      57.434
2015    2       28    11   0    4.9180   640.9    2.803      57.392
2015    2       28    11   5    4.9158   640.8    2.803      57.351
2015    2       28    11  10    4.9136   640.6    2.803      57.309
2015    2       28    11  15    4.9114   640.4    2.803      57.267
2015    2       28    11  20    4.9093   640.3    2.802      57.225
2015    2       28    11  26    4.9070   640.1    2.802      57.182
2015    2       28    11  31    4.9048   639.9    2.802      57.140
2015    2       28    11  36    4.9026   639.8    2.801      57.097
2015    2       28    11  41    4.9004   639.6    2.801      57.055
2015    2       28    11  46    4.8982   639.4    2.801      57.012
2015    2       28    11  52    4.8960   639.3    2.801      56.969
2015    2       28    11  57    4.8937   639.1    2.800      56.926
2015    2       28    12   2    4.8915   638.9    2.800      56.883
2015    2       28    12   7    4.8893   638.8    2.800      56.840
2015    2       28    12  12    4.8871   638.6    2.799      56.797
2015    2       28    12  18    4.8849   638.4    2.799      56.754
2015    2       28    12  23    4.8826   638.2    2.799      56.711
2015    2       28    12  28    4.8804   638.1    2.798      56.668
2015    2       28    12  33    4.8782   637.9    2.798      56.625
2015    2       28    12  38    4.8759   637.7    2.798      56.582
2015    2       28    12  44    4.8737   637.5    2.798      56.539
2015    2       28    12  49    4.8714   637.4    2.797      56.496
2015    2       28    12  54    4.8692   637.2    2.797      56.453
2015    2       28    12  59    4.8670   637.0    2.796      56.409
2015    2       28    13   4    4.8647   636.8    2.796      56.366
2015    2       28    13  10    4.8625   636.7    2.796      56.322
2015    2       28    13  15    4.8602   636.5    2.795      56.279
2015    2       28    13  20    4.8580   636.3    2.795      56.235
2015    2       28    13  25    4.8557   636.1    2.795      56.191
2015    2       28    13  30    4.8534   636.0    2.794      56.146
2015    2       28    13  35    4.8512   635.8    2.794      56.102
2015    2       28    13  41    4.8489   635.6    2.793      56.057
2015    2       28    13  46    4.8466   635.4    2.793      56.012
2015    2       28    13  51    4.8444   635.2    2.793      55.967
2015    2       28    13  56    4.8421   635.1    2.792      55.922
2015    2       28    14   2    4.8398   634.9    2.792      55.876
2015    2       28    14   7    4.8375   634.7    2.791      55.830
2015    2       28    14  12    4.8352   634.5    2.791      55.784
2015    2       28    14  17    4.8329   634.3    2.791      55.738
2015    2       28    14  22    4.8307   634.1    2.790      55.691
2015    2       28    14  27    4.8284   633.9    2.790      55.645
2015    2       28    14  33    4.8261   633.7    2.789      55.598
2015    2       28    14  38    4.8238   633.5    2.789      55.551
2015    2       28    14  43    4.8215   633.3    2.789      55.505
2015    2       28    14  48    4.8193   633.2    2.789      55.458
2015    2       28    14  54    4.8170   633.0    2.788      55.412
2015    2       28    14  59    4.8147   632.8    2.788      55.365
2015    2       28    15   4    4.8125   632.6    2.788      55.319
2015    2       28    15   9    4.8102   632.4    2.788      55.274
2015    2       28    15  14    4.8080   632.2    2.788      55.228
2015    2       28    15  20    4.8058   632.0    2.788      55.183
2015    2       28    15  25    4.8036   631.7    2.788      55.138
2015    2       28    15  30    4.8014   631.5    2.788      55.094
2015    2       28    15  35    4.7992   631.3    2.789      55.050
2015    2       28    15  40    4.7970   631.1    2.789      55.006
2015    2       28    15  46    4.7949   630.9    2.789      54.962
2015    2       28    15  51    4.7927   630.7    2.790      54.919
2015    2       28    15  56    4.7905   630.5    2.790      54.877
2015    2       28    16   1    4.7884   630.3    2.791      54.834
2015    2       28    16   6    4.7863   630.1    2.791      54.792
2015    2       28    16  12    4.7841   629.9    2.792      54.749
2015    2       28    16  17    4.7820   629.7    2.792      54.707
2015    2       28    16  22    4.7799   629.5    2.793      54.664
2015    2       28    16  27    4.7778   629.3    2.793      54.622
2015    2       28    16  32    4.7756   629.0    2.794      54.579
2015    2       28    16  38    4.7735   628.8    2.795      54.536
2015    2       28    16  43    4.7714   628.6    2.795      54.493
2015    2       28    16  48    4.7692   628.4    2.796      54.449
2015    2       28    16  53    4.7671   628.2    2.796      54.405
2015    2       28    16  58    4.7650   628.0    2.797      54.361
2015    2       28    17   4    4.7628   627.8    2.797      54.316
2015    2       28    17   9    4.7606   627.6    2.798      54.270
2015    2       28    17  14    4.7585   627.3    2.799      54.225
2015    2       28    17  19    4.7563   627.1    2.799      54.179
2015    2       28    17  24    4.7541   626.9    2.800      54.132
2015    2       28    17  30    4.7520   626.7    2.800      54.085
2015    2       28    17  35    4.7498   626.5    2.800      54.038
2015    2       28    17  40    4.7476   626.3    2.801      53.990
2015    2       28    17  45    4.7454   626.1    2.801      53.942
2015    2       28    17  50    4.7432   625.8    2.802      53.894
2015    2       28    17  55    4.7410   625.6    2.802      53.845
2015    2       28    18   1    4.7388   625.4    2.802      53.796
2015    2       28    18   6    4.7366   625.2    2.803      53.747
2015    2       28    18  11    4.7344   625.0    2.803      53.697
2015    2       28    18  16    4.7321   624.8    2.803      53.647
2015    2       28    18  21    4.7299   624.5    2.804      53.597
2015    2       28    18  27    4.7276   624.3    2.804      53.546
2015    2       28    18  32    4.7254   624.1    2.804      53.495
2015    2       28    18  37    4.7232   623.9    2.804      53.444
2015    2       28    18  42    4.7210   623.7    2.804      53.393
2015    2       28    18  47    4.7187   623.4    2.804      53.341
2015    2       28    18  53    4.7165   623.2    2.805      53.289
2015    2       28    18  58    4.7142   623.0    2.805      53.237
2015    2       28    19   3    4.7119   622.8    2.805      53.184
2015    2       28    19   8    4.7097   622.6    2.805      53.132
2015    2       28    19  13    4.7074   622.3    2.805      53.078
2015    2       28    19  19    4.7052   622.1    2.805      53.025
2015    2       28    19  24    4.7029   621.9    2.805      52.972
2015    2       28    19  29    4.7006   621.7    2.805      52.918
2015    2       28    19  34    4.6984   621.4    2.805      52.864
2015    2       28    19  39    4.6961   621.2    2.805      52.810
2015    2       28    19  45    4.6938   621.0    2.805      52.756
2015    2       28    19  50    4.6916   620.8    2.806      52.702
2015    2       28    19  55    4.6893   620.5    2.806      52.648
2015    2       28    20   0    4.6871   620.3    2.806      52.594
2015    2       28    20   5    4.6848   620.1    2.806      52.539
2015    2       28    20  11    4.6826   619.8    2.806      52.485
2015    2       28    20  16    4.6803   619.6    2.806      52.431
2015    2       28    20  21    4.6781   619.4    2.806      52.377
2015    2       28    20  26    4.6758   619.2    2.807      52.323
2015    2       28    20  31    4.6737   618.9    2.807      52.269
2015    2       28    20  37    4.6714   618.7    2.807      52.215
2015    2       28    20  42    4.6692   618.5    2.807      52.161
2015    2       28    20  47    4.6670   618.2    2.807      52.107
2015    2       28    20  52    4.6648   618.0    2.807      52.053
2015    2       28    20  57    4.6627   617.8    2.808      51.998
2015    2       28    21   3    4.6604   617.6    2.808      51.944
2015    2       28    21   8    4.6583   617.3    2.808      51.890
2015    2       28    21  13    4.6561   617.1    2.808      51.835
2015    2       28    21  18    4.6539   616.9    2.808      51.781
2015    2       28    21  23    4.6517   616.6    2.808      51.726
2015    2       28    21  29    4.6496   616.4    2.809      51.671
2015    2       28    21  34    4.6475   616.1    2.809      51.616
2015    2       28    21  39    4.6453   615.9    2.809      51.560
2015    2       28    21  44    4.6432   615.7    2.809      51.505
2015    2       28    21  49    4.6410   615.4    2.809      51.449
2015    2       28    21  55    4.6389   615.2    2.809      51.394
2015    2       28    22   0    4.6368   615.0    2.809      51.338
2015    2       28    22   5    4.6347   614.7    2.809      51.283
2015    2       28    22  10    4.6326   614.5    2.809      51.227
2015    2       28    22  15    4.6305   614.2    2.809      51.172
2015    2       28    22  21    4.6284   614.0    2.809      51.117
2015    2       28    22  26    4.6263   613.7    2.809      51.061
2015    2       28    22  31    4.6242   613.5    2.810      51.006
2015    2       28    22  36    4.6222   613.2    2.810      50.951
2015    2       28    22  41    4.6202   613.0    2.810      50.896
2015    2       28    22  47    4.6181   612.7    2.810      50.841
2015    2       28    22  52    4.6160   612.5    2.810      50.786
2015    2       28    22  57    4.6140   612.2    2.810      50.731
2015    2       28    23   2    4.6121   612.0    2.811      50.676
2015    2       28    23   7    4.6100   611.7    2.811      50.622
2015    2       28    23  13    4.6080   611.5    2.811      50.567
2015    2       28    23  18    4.6061   611.2    2.811      50.513
2015    2       28    23  23    4.6041   611.0    2.812      50.458
2015    2       28    23  28    4.6021   610.7    2.812      50.404
2015    2       28    23  33    4.6002   610.5    2.812      50.349
2015    2       28    23  39    4.5982   610.2    2.812      50.294
2015    2       28    23  43    4.5964   610.0    2.813      50.247
2015    2       28    23  47    4.5951   609.8    2.813      50.217
2015    2       28    23  50    4.5938   609.6    2.813      50.188
2015    2       28    23  54    4.5926   609.5    2.813      50.157
2015    2       28    23  57    4.5913   609.3    2.814      50.128
2015    3        1     0   0    4.5899   609.1    2.814      50.098
2015    3        1     0   4    4.5887   609.0    2.814      50.069
2015    3        1     0   7    4.5875   608.8    2.814      50.040
2015    3        1     0  10    4.5862   608.6    2.814      50.011
2015    3        1     0  14    4.5850   608.5    2.815      49.982
2015    3        1     0  17    4.5837   608.3    2.815      49.954
2015    3        1     0  20    4.5825   608.1    2.815      49.925
2015    3        1     0  23    4.5812   608.0    2.815      49.896
2015    3        1     0  27    4.5800   607.8    2.815      49.867
2015    3        1     0  30    4.5787   607.6    2.816      49.838
2015    3        1     0  33    4.5775   607.5    2.816      49.809
2015    3        1     0  37    4.5762   607.3    2.816      49.780
2015    3        1     0  40    4.5750   607.1    2.816      49.751
2015    3        1     0  43    4.5738   607.0    2.816      49.722
2015    3        1     0  46    4.5725   606.8    2.817      49.693
2015    3        1     0  50    4.5713   606.6    2.817      49.663
2015    3        1     0  53    4.5700   606.4    2.817      49.634
2015    3        1     0  56    4.5687   606.3    2.817      49.605
2015    3        1     0  59    4.5675   606.1    2.818      49.575
2015    3        1     1   3    4.5662   605.9    2.818      49.546
2015    3        1     1   6    4.5650   605.8    2.818      49.516
2015    3        1     1   9    4.5637   605.6    2.818      49.487
2015    3        1     1  12    4.5625   605.4    2.818      49.458
2015    3        1     1  16    4.5613   605.2    2.819      49.429
2015    3        1     1  19    4.5601   605.1    2.819      49.400
2015    3        1     1  22    4.5588   604.9    2.819      49.371
2015    3        1     1  25    4.5576   604.7    2.820      49.341
2015    3        1     1  28    4.5563   604.5    2.820      49.312
2015    3        1     1  32    4.5551   604.4    2.820      49.283
2015    3        1     1  35    4.5538   604.2    2.820      49.254
2015    3        1     1  38    4.5526   604.0    2.821      49.225
2015    3        1     1  42    4.5514   603.8    2.821      49.196
2015    3        1     1  45    4.5501   603.7    2.821      49.167
2015    3        1     1  48    4.5489   603.5    2.822      49.138
2015    3        1     1  51    4.5476   603.3    2.822      49.110
2015    3        1     1  55    4.5464   603.1    2.823      49.081
2015    3        1     1  58    4.5452   603.0    2.823      49.052
2015    3        1     2   1    4.5439   602.8    2.823      49.024
2015    3        1     2   4    4.5427   602.6    2.824      48.995
2015    3        1     2   8    4.5415   602.4    2.824      48.967
2015    3        1     2  11    4.5402   602.2    2.825      48.939
2015    3        1     2  14    4.5390   602.1    2.825      48.911
2015    3        1     2  17    4.5378   601.9    2.826      48.883
2015    3        1     2  21    4.5365   601.7    2.826      48.855
2015    3        1     2  24    4.5353   601.5    2.827      48.827
2015    3        1     2  27    4.5341   601.3    2.827      48.798
2015    3        1     2  31    4.5328   601.2    2.828      48.770
2015    3        1     2  34    4.5316   601.0    2.828      48.743
2015    3        1     2  37    4.5304   600.8    2.829      48.715
2015    3        1     2  40    4.5291   600.6    2.829      48.686
2015    3        1     2  44    4.5279   600.4    2.830      48.658
2015    3        1     2  47    4.5266   600.2    2.831      48.629
2015    3        1     2  51    4.5254   600.0    2.831      48.600
2015    3        1     2  54    4.5241   599.9    2.832      48.571
2015    3        1     2  57    4.5228   599.7    2.833      48.542
2015    3        1     3   1    4.5216   599.5    2.833      48.514
2015    3        1     3   4    4.5203   599.3    2.834      48.485
2015    3        1     3   8    4.5191   599.1    2.835      48.456
2015    3        1     3  11    4.5178   598.9    2.835      48.428
2015    3        1     3  14    4.5166   598.7    2.836      48.400
2015    3        1     3  18    4.5154   598.5    2.837      48.371
2015    3        1     3  21    4.5141   598.3    2.837      48.343
2015    3        1     3  24    4.5129   598.2    2.838      48.315
2015    3        1     3  28    4.5117   598.0    2.839      48.286
2015    3        1     3  31    4.5104   597.8    2.840      48.258
2015    3        1     3  35    4.5092   597.6    2.840      48.229
2015    3        1     3  38    4.5080   597.4    2.841      48.201
2015    3        1     3  41    4.5067   597.2    2.842      48.172
2015    3        1     3  45    4.5055   597.0    2.843      48.142
2015    3        1     3  48    4.5043   596.8    2.844      48.113
2015    3        1     3  52    4.5030   596.6    2.844      48.084
2015    3        1     3  55    4.5018   596.4    2.845      48.054
2015    3        1     3  59    4.5005   596.2    2.846      48.023
2015    3        1     4   2    4.4993   596.0    2.847      47.993
2015    3        1     4   6    4.4981   595.8    2.848      47.962
2015    3        1     4   9    4.4968   595.6    2.849      47.932
2015    3        1     4  13    4.4956   595.4    2.850      47.901
2015    3        1     4  17    4.4944   595.2    2.851      47.870
2015    3        1     4  20    4.4931   594.9    2.852      47.840
2015    3        1     4  24    4.4920   594.7    2.853      47.809
2015    3        1     4  27    4.4908   594.5    2.854      47.778
2015    3        1     4  31    4.4895   594.3    2.855      47.747
2015    3        1     4  34    4.4883   594.1    2.856      47.717
2015    3        1     4  38    4.4872   593.9    2.857      47.686
2015    3        1     4  42    4.4860   593.7    2.858      47.655
2015    3        1     4  45    4.4848   593.5    2.859      47.624
2015    3        1     4  49    4.4836   593.3    2.860      47.593
2015    3        1     4  52    4.4825   593.1    2.861      47.563
2015    3        1     4  56    4.4813   592.9    2.862      47.532
2015    3        1     5   0    4.4802   592.6    2.863      47.501
2015    3        1     5   3    4.4790   592.4    2.864      47.469
2015    3        1     5   7    4.4779   592.2    2.865      47.438
2015    3        1     5  11    4.4767   592.0    2.866      47.408
2015    3        1     5  14    4.4756   591.8    2.867      47.377
2015    3        1     5  18    4.4744   591.6    2.868      47.346
2015    3        1     5  22    4.4733   591.4    2.869      47.315
2015    3        1     5  25    4.4722   591.1    2.870      47.285
2015    3        1     5  29    4.4711   590.9    2.871      47.254
2015    3        1     5  33    4.4699   590.7    2.872      47.223
2015    3        1     5  36    4.4688   590.5    2.873      47.192
2015    3        1     5  40    4.4677   590.3    2.874      47.160
2015    3        1     5  44    4.4666   590.1    2.875      47.129
2015    3        1     5  47    4.4655   589.9    2.876      47.097
2015    3        1     5  51    4.4643   589.6    2.877      47.066
2015    3        1     5  55    4.4632   589.4    2.878      47.034
2015    3        1     5  58    4.4621   589.2    2.879      47.002
2015    3        1     6   2    4.4610   589.0    2.880      46.970
2015    3        1     6   6    4.4598   588.8    2.881      46.938
2015    3        1     6   9    4.4587   588.5    2.882      46.905
2015    3        1     6  13    4.4576   588.3    2.883      46.872
2015    3        1     6  17    4.4565   588.1    2.884      46.839
2015    3        1     6  21    4.4554   587.9    2.885      46.806
2015    3        1     6  24    4.4542   587.7    2.886      46.773
2015    3        1     6  28    4.4531   587.4    2.887      46.739
2015    3        1     6  32    4.4520   587.2    2.887      46.706
2015    3        1     6  35    4.4508   587.0    2.888      46.672
2015    3        1     6  39    4.4498   586.8    2.889      46.639
2015    3        1     6  43    4.4486   586.6    2.890      46.605
2015    3        1     6  46    4.4475   586.3    2.891      46.571
2015    3        1     6  50    4.4464   586.1    2.892      46.537
2015    3        1     6  54    4.4453   585.9    2.892      46.503
2015    3        1     6  58    4.4442   585.7    2.893      46.468
2015    3        1     7   1    4.4431   585.4    2.894      46.434
2015    3        1     7   5    4.4420   585.2    2.895      46.399
2015    3        1     7   9    4.4408   585.0    2.895      46.364
2015    3        1     7  12    4.4397   584.8    2.896      46.328
2015    3        1     7  16    4.4386   584.5    2.897      46.293
2015    3        1     7  20    4.4375   584.3    2.898      46.257
2015    3        1     7  24    4.4364   584.1    2.898      46.221
2015    3        1     7  27    4.4353   583.9    2.899      46.185
2015    3        1     7  31    4.4342   583.6    2.900      46.150
2015    3        1     7  35    4.4331   583.4    2.900      46.113
2015    3        1     7  39    4.4320   583.2    2.901      46.077
2015    3        1     7  42    4.4309   582.9    2.902      46.040
2015    3        1     7  46    4.4298   582.7    2.903      46.004
2015    3        1     7  50    4.4287   582.5    2.903      45.967
2015    3        1     7  54    4.4276   582.2    2.904      45.930
2015    3        1     7  57    4.4265   582.0    2.905      45.893
2015    3        1     8   1    4.4254   581.8    2.905      45.856
2015    3        1     8   5    4.4243   581.5    2.906      45.819
2015    3        1     8   9    4.4232   581.3    2.907      45.782
2015    3        1     8  12    4.4221   581.1    2.908      45.745
2015    3        1     8  16    4.4210   580.8    2.908      45.708
2015    3        1     8  20    4.4200   580.6    2.909      45.671
2015    3        1     8  24    4.4189   580.4    2.910      45.634
2015    3        1     8  27    4.4178   580.1    2.911      45.597
2015    3        1     8  31    4.4167   579.9    2.912      45.560
2015    3        1     8  35    4.4156   579.6    2.912      45.523
2015    3        1     8  39    4.4145   579.4    2.913      45.487
2015    3        1     8  43    4.4135   579.2    2.914      45.450
2015    3        1     8  46    4.4124   578.9    2.915      45.413
2015    3        1     8  50    4.4113   578.7    2.916      45.376
2015    3        1     8  54    4.4102   578.4    2.917      45.340
2015    3        1     8  58    4.4092   578.2    2.918      45.303
2015    3        1     9   2    4.4081   577.9    2.919      45.266
2015    3        1     9   6    4.4070   577.7    2.920      45.230
2015    3        1     9   9    4.4060   577.4    2.921      45.193
2015    3        1     9  13    4.4049   577.2    2.922      45.156
2015    3        1     9  17    4.4038   576.9    2.923      45.119
2015    3        1     9  21    4.4028   576.7    2.924      45.083
2015    3        1     9  25    4.4017   576.4    2.925      45.046
2015    3        1     9  29    4.4007   576.2    2.926      45.010
2015    3        1     9  33    4.3996   575.9    2.928      44.973
2015    3        1     9  37    4.3986   575.7    2.929      44.936
2015    3        1     9  41    4.3975   575.4    2.930      44.900
2015    3        1     9  44    4.3965   575.1    2.931      44.863
2015    3        1     9  48    4.3954   574.9    2.933      44.827
2015    3        1     9  52    4.3944   574.6    2.934      44.790
2015    3        1     9  56    4.3934   574.4    2.936      44.754
2015    3        1    10   0    4.3923   574.1    2.937      44.717
2015    3        1    10   4    4.3913   573.8    2.938      44.680
2015    3        1    10   8    4.3903   573.5    2.940      44.643
2015    3        1    10  13    4.3893   573.3    2.941      44.607
2015    3        1    10  17    4.3883   573.0    2.943      44.570
2015    3        1    10  21    4.3873   572.7    2.945      44.534
2015    3        1    10  25    4.3863   572.5    2.946      44.498
2015    3        1    10  29    4.3854   572.2    2.948      44.462
2015    3        1    10  33    4.3844   571.9    2.950      44.425
2015    3        1    10  37    4.3834   571.6    2.951      44.389
2015    3        1    10  41    4.3825   571.3    2.953      44.353
2015    3        1    10  45    4.3815   571.1    2.955      44.317
2015    3        1    10  49    4.3807   570.8    2.956      44.281
2015    3        1    10  53    4.3797   570.5    2.958      44.244
2015    3        1    10  57    4.3788   570.2    2.960      44.208
2015    3        1    11   2    4.3779   569.9    2.962      44.172
2015    3        1    11   6    4.3770   569.6    2.964      44.135
2015    3        1    11  10    4.3761   569.4    2.966      44.099
2015    3        1    11  14    4.3752   569.1    2.968      44.063
2015    3        1    11  18    4.3743   568.8    2.970      44.026
2015    3        1    11  22    4.3735   568.5    2.972      43.990
2015    3        1    11  27    4.3727   568.2    2.973      43.953
2015    3        1    11  31    4.3718   567.9    2.975      43.917
2015    3        1    11  35    4.3710   567.6    2.977      43.880
2015    3        1    11  39    4.3701   567.3    2.980      43.843
2015    3        1    11  44    4.3694   567.0    2.982      43.807
2015    3        1    11  48    4.3685   566.7    2.984      43.770
2015    3        1    11  52    4.3678   566.4    2.986      43.733
2015    3        1    11  56    4.3670   566.1    2.988      43.696
2015    3        1    12   1    4.3662   565.8    2.990      43.660
2015    3        1    12   5    4.3655   565.5    2.992      43.623
2015    3        1    12   9    4.3647   565.2    2.994      43.586
2015    3        1    12  14    4.3640   564.9    2.997      43.549
2015    3        1    12  18    4.3633   564.6    2.999      43.512
2015    3        1    12  22    4.3625   564.3    3.001      43.475
2015    3        1    12  27    4.3618   564.0    3.003      43.438
2015    3        1    12  31    4.3612   563.7    3.006      43.401
2015    3        1    12  35    4.3605   563.4    3.008      43.364
2015    3        1    12  40    4.3598   563.1    3.010      43.327
2015    3        1    12  44    4.3591   562.8    3.013      43.291
2015    3        1    12  48    4.3585   562.5    3.015      43.254
2015    3        1    12  53    4.3579   562.2    3.017      43.217
2015    3        1    12  57    4.3572   561.9    3.020      43.181
2015    3        1    13   1    4.3566   561.6    3.022      43.144
2015    3        1    13   6    4.3560   561.3    3.024      43.108
2015    3        1    13  10    4.3554   561.0    3.027      43.071
2015    3        1    13  14    4.3548   560.7    3.029      43.034
2015    3        1    13  19    4.3541   560.4    3.031      42.997
2015    3        1    13  23    4.3536   560.1    3.034      42.960
2015    3        1    13  28    4.3530   559.8    3.036      42.923
2015    3        1    13  32    4.3525   559.5    3.039      42.885
2015    3        1    13  36    4.3519   559.2    3.041      42.848
2015    3        1    13  41    4.3513   558.9    3.044      42.810
2015    3        1    13  45    4.3508   558.5    3.046      42.773
2015    3        1    13  50    4.3503   558.2    3.049      42.735
2015    3        1    13  54    4.3497   557.9    3.051      42.697
2015    3        1    13  59    4.3492   557.6    3.054      42.659
2015    3        1    14   3    4.3487   557.3    3.056      42.621
2015    3        1    14   8    4.3482   557.0    3.059      42.583
2015    3        1    14  12    4.3477   556.7    3.061      42.544
2015    3        1    14  16    4.3472   556.4    3.064      42.506
2015    3        1    14  21    4.3467   556.1    3.066      42.467
2015    3        1    14  25    4.3462   555.7    3.069      42.429
2015    3        1    14  30    4.3458   555.4    3.071      42.390
2015    3        1    14  34    4.3453   555.1    3.074      42.351
2015    3        1    14  39    4.3449   554.8    3.076      42.312
2015    3        1    14  43    4.3444   554.5    3.079      42.273
2015    3        1    14  48    4.3440   554.2    3.082      42.234
2015    3        1    14  53    4.3435   553.9    3.084      42.195
2015    3        1    14  57    4.3431   553.5    3.087      42.156
2015    3        1    15   2    4.3427   553.2    3.089      42.116
2015    3        1    15   6    4.3423   552.9    3.092      42.077
2015    3        1    15  11    4.3419   552.6    3.095      42.037
2015    3        1    15  15    4.3415   552.3    3.097      41.997
2015    3        1    15  20    4.3412   551.9    3.100      41.958
2015    3        1    15  25    4.3407   551.6    3.102      41.918
2015    3        1    15  29    4.3404   551.3    3.105      41.878
2015    3        1    15  34    4.3400   551.0    3.108      41.839
2015    3        1    15  38    4.3397   550.7    3.110      41.799
2015    3        1    15  43    4.3394   550.4    3.113      41.760
2015    3        1    15  47    4.3390   550.0    3.116      41.720
2015    3        1    15  52    4.3387   549.7    3.118      41.680
2015    3        1    15  56    4.3384   549.4    3.121      41.639
2015    3        1    16   1    4.3381   549.1    3.124      41.599
2015    3        1    16   6    4.3378   548.7    3.126      41.559
2015    3        1    16  10    4.3375   548.4    3.129      41.519
2015    3        1    16  15    4.3372   548.1    3.132      41.478
2015    3        1    16  19    4.3370   547.8    3.134      41.438
2015    3        1    16  24    4.3367   547.4    3.137      41.398
2015    3        1    16  28    4.3365   547.1    3.140      41.357
2015    3        1    16  33    4.3362   546.8    3.143      41.317
2015    3        1    16  38    4.3360   546.5    3.146      41.276
2015    3        1    16  42    4.3358   546.1    3.149      41.236
2015    3        1    16  47    4.3357   545.8    3.152      41.196
2015    3        1    16  52    4.3355   545.5    3.155      41.155
2015    3        1    16  56    4.3354   545.1    3.158      41.115
2015    3        1    17   1    4.3352   544.8    3.161      41.075
2015    3        1    17   6    4.3351   544.5    3.164      41.035
2015    3        1    17  10    4.3350   544.1    3.167      40.995
2015    3        1    17  15    4.3349   543.8    3.170      40.955
2015    3        1    17  20    4.3348   543.5    3.174      40.915
2015    3        1    17  24    4.3348   543.2    3.177      40.876
2015    3        1    17  29    4.3348   542.8    3.180      40.836
2015    3        1    17  34    4.3349   542.5    3.184      40.797
2015    3        1    17  38    4.3349   542.2    3.187      40.757
2015    3        1    17  43    4.3350   541.8    3.191      40.718
2015    3        1    17  48    4.3350   541.5    3.194      40.679
2015    3        1    17  53    4.3350   541.2    3.198      40.640
2015    3        1    17  57    4.3353   540.8    3.201      40.601
2015    3        1    18   2    4.3354   540.5    3.205      40.562
2015    3        1    18   7    4.3355   540.2    3.209      40.524
2015    3        1    18  12    4.3356   539.8    3.212      40.486
2015    3        1    18  16    4.3360   539.5    3.216      40.448
2015    3        1    18  21    4.3361   539.2    3.220      40.410
2015    3        1    18  26    4.3363   538.8    3.223      40.373
2015    3        1    18  30    4.3365   538.5    3.227      40.335
2015    3        1    18  35    4.3368   538.2    3.231      40.297
2015    3        1    18  40    4.3372   537.8    3.234      40.260
2015    3        1    18  45    4.3376   537.5    3.238      40.222
2015    3        1    18  49    4.3379   537.2    3.242      40.184
2015    3        1    18  54    4.3381   536.8    3.246      40.147
2015    3        1    18  59    4.3386   536.5    3.250      40.109
2015    3        1    19   4    4.3390   536.2    3.253      40.071
2015    3        1    19   8    4.3393   535.8    3.257      40.033
2015    3        1    19  13    4.3397   535.5    3.261      39.995
2015    3        1    19  18    4.3402   535.2    3.265      39.958
2015    3        1    19  23    4.3407   534.8    3.269      39.920
2015    3        1    19  27    4.3412   534.5    3.273      39.882
2015    3        1    19  32    4.3416   534.2    3.277      39.844
2015    3        1    19  37    4.3421   533.8    3.280      39.806
2015    3        1    19  42    4.3426   533.5    3.284      39.767
2015    3        1    19  47    4.3432   533.2    3.288      39.729
2015    3        1    19  51    4.3439   532.8    3.292      39.691
2015    3        1    19  56    4.3443   532.5    3.296      39.653
2015    3        1    20   1    4.3449   532.2    3.300      39.614
2015    3        1    20   6    4.3455   531.8    3.304      39.576
2015    3        1    20  11    4.3461   531.5    3.308      39.537
2015    3        1    20  16    4.3468   531.2    3.312      39.498
2015    3        1    20  20    4.3475   530.8    3.316      39.459
2015    3        1    20  25    4.3481   530.5    3.320      39.420
2015    3        1    20  30    4.3488   530.2    3.324      39.381
2015    3        1    20  35    4.3495   529.8    3.328      39.342
2015    3        1    20  40    4.3504   529.5    3.332      39.303
2015    3        1    20  45    4.3512   529.1    3.336      39.263
2015    3        1    20  50    4.3518   528.8    3.340      39.224
2015    3        1    20  55    4.3526   528.5    3.344      39.185
2015    3        1    20  59    4.3534   528.1    3.349      39.145
2015    3        1    21   4    4.3542   527.8    3.353      39.107
2015    3        1    21   9    4.3551   527.5    3.357      39.068
2015    3        1    21  14    4.3559   527.1    3.361      39.029
2015    3        1    21  19    4.3569   526.8    3.365      38.991
2015    3        1    21  24    4.3577   526.5    3.369      38.953
2015    3        1    21  29    4.3586   526.1    3.374      38.914
2015    3        1    21  34    4.3597   525.8    3.378      38.876
2015    3        1    21  39    4.3606   525.5    3.382      38.838
2015    3        1    21  43    4.3615   525.1    3.387      38.800
2015    3        1    21  48    4.3625   524.8    3.391      38.763
2015    3        1    21  53    4.3636   524.5    3.395      38.725
2015    3        1    21  58    4.3647   524.1    3.400      38.687
2015    3        1    22   3    4.3658   523.8    3.404      38.650
2015    3        1    22   8    4.3668   523.5    3.409      38.613
2015    3        1    22  13    4.3678   523.1    3.413      38.576
2015    3        1    22  18    4.3689   522.8    3.418      38.539
2015    3        1    22  23    4.3701   522.5    3.423      38.502
2015    3        1    22  28    4.3713   522.2    3.427      38.466
2015    3        1    22  33    4.3724   521.8    3.432      38.429
2015    3        1    22  37    4.3737   521.5    3.436      38.393
2015    3        1    22  42    4.3751   521.2    3.441      38.357
2015    3        1    22  47    4.3762   520.8    3.446      38.321
2015    3        1    22  52    4.3776   520.5    3.451      38.285
2015    3        1    22  57    4.3789   520.2    3.455      38.249
2015    3        1    23   2    4.3801   519.9    3.460      38.213
2015    3        1    23   7    4.3814   519.5    3.465      38.177
2015    3        1    23  12    4.3829   519.2    3.470      38.141
2015    3        1    23  17    4.3842   518.9    3.475      38.105
2015    3        1    23  22    4.3856   518.5    3.480      38.069
2015    3        1    23  27    4.3872   518.2    3.485      38.033
2015    3        1    23  32    4.3884   517.9    3.490      37.998
2015    3        1    23  37    4.3899   517.6    3.495      37.961
2015    3        1    23  42    4.3914   517.2    3.500      37.925
2015    3        1    23  47    4.3930   516.9    3.505      37.889
2015    3        1    23  52    4.3944   516.6    3.510      37.853
2015    3        1    23  57    4.3961   516.2    3.515      37.817
2015    3        2     0   2    4.3975   515.9    3.520      37.780
2015    3        2     0   7    4.3992   515.6    3.525      37.744
2015    3        2     0  12    4.4006   515.2    3.530      37.708
2015    3        2     0  17    4.4023   514.9    3.535      37.671
2015    3        2     0  22    4.4039   514.6    3.540      37.635
2015    3        2     0  27    4.4055   514.3    3.546      37.599
2015    3        2     0  33    4.4073   513.9    3.551      37.563
2015    3        2     0  38    4.4089   513.6    3.556      37.527
2015    3        2     0  43    4.4105   513.3    3.561      37.491
2015    3        2     0  48    4.4124   512.9    3.566      37.456
2015    3        2     0  53    4.4140   512.6    3.572      37.420
2015    3        2     0  58    4.4157   512.3    3.577      37.384
2015    3        2     1   3    4.4175   512.0    3.582      37.348
2015    3        2     1   8    4.4193   511.6    3.588      37.313
2015    3        2     1  13    4.4213   511.3    3.593      37.277
2015    3        2     1  18    4.4231   511.0    3.599      37.242
2015    3        2     1  23    4.4248   510.7    3.604      37.207
2015    3        2     1  28    4.4267   510.3    3.609      37.172
2015    3        2     1  33    4.4287   510.0    3.615      37.137
2015    3        2     1  38    4.4305   509.7    3.621      37.102
2015    3        2     1  43    4.4325   509.4    3.626      37.068
2015    3        2     1  49    4.4344   509.1    3.632      37.034
2015    3        2     1  54    4.4366   508.7    3.638      37.000
2015    3        2     1  59    4.4386   508.4    3.643      36.966
2015    3        2     2   4    4.4406   508.1    3.649      36.932
2015    3        2     2   9    4.4425   507.8    3.655      36.899
2015    3        2     2  14    4.4446   507.5    3.661      36.866
2015    3        2     2  19    4.4467   507.1    3.667      36.833
2015    3        2     2  24    4.4489   506.8    3.673      36.800
2015    3        2     2  29    4.4511   506.5    3.679      36.767
2015    3        2     2  34    4.4532   506.2    3.685      36.735
2015    3        2     2  40    4.4552   505.9    3.691      36.702
2015    3        2     2  45    4.4576   505.6    3.697      36.670
2015    3        2     2  50    4.4598   505.2    3.703      36.638
2015    3        2     2  55    4.4620   504.9    3.709      36.606
2015    3        2     3   0    4.4641   504.6    3.716      36.574
2015    3        2     3   5    4.4665   504.3    3.722      36.543
2015    3        2     3  10    4.4687   504.0    3.728      36.511
2015    3        2     3  16    4.4710   503.7    3.735      36.480
2015    3        2     3  21    4.4734   503.4    3.741      36.448
2015    3        2     3  26    4.4756   503.0    3.748      36.417
2015    3        2     3  31    4.4780   502.7    3.754      36.386
2015    3        2     3  36    4.4804   502.4    3.761      36.355
2015    3        2     3  42    4.4829   502.1    3.767      36.325
2015    3        2     3  47    4.4854   501.8    3.774      36.294
2015    3        2     3  52    4.4878   501.5    3.781      36.264
2015    3        2     3  57    4.4901   501.2    3.787      36.234
2015    3        2     4   2    4.4926   500.9    3.794      36.203
2015    3        2     4   8    4.4951   500.6    3.801      36.174
2015    3        2     4  13    4.4976   500.2    3.807      36.144
2015    3        2     4  18    4.5003   499.9    3.814      36.114
2015    3        2     4  23    4.5027   499.6    3.821      36.085
2015    3        2     4  28    4.5053   499.3    3.828      36.056
2015    3        2     4  34    4.5080   499.0    3.835      36.027
2015    3        2     4  39    4.5105   498.7    3.842      35.998
2015    3        2     4  44    4.5132   498.4    3.849      35.970
2015    3        2     4  49    4.5160   498.1    3.856      35.941
2015    3        2     4  54    4.5187   497.8    3.863      35.913
2015    3        2     5   0    4.5213   497.5    3.870      35.886
2015    3        2     5   5    4.5241   497.2    3.877      35.858
2015    3        2     5  10    4.5269   496.9    3.884      35.831
2015    3        2     5  15    4.5297   496.6    3.891      35.804
2015    3        2     5  20    4.5325   496.3    3.899      35.778
2015    3        2     5  26    4.5354   496.0    3.906      35.751
2015    3        2     5  31    4.5385   495.7    3.913      35.725
2015    3        2     5  36    4.5413   495.4    3.921      35.700
2015    3        2     5  41    4.5444   495.1    3.928      35.675
2015    3        2     5  46    4.5472   494.8    3.936      35.649
2015    3        2     5  52    4.5502   494.5    3.943      35.625
2015    3        2     5  57    4.5533   494.2    3.951      35.600
2015    3        2     6   2    4.5564   493.9    3.959      35.577
2015    3        2     6   7    4.5597   493.6    3.967      35.553
2015    3        2     6  12    4.5628   493.3    3.974      35.529
2015    3        2     6  17    4.5658   493.0    3.982      35.506
2015    3        2     6  23    4.5690   492.8    3.990      35.484
2015    3        2     6  28    4.5722   492.5    3.998      35.461
2015    3        2     6  33    4.5756   492.2    4.006      35.439
2015    3        2     6  38    4.5787   491.9    4.014      35.417
2015    3        2     6  43    4.5820   491.6    4.022      35.396
2015    3        2     6  49    4.5853   491.4    4.030      35.374
2015    3        2     6  54    4.5888   491.1    4.038      35.353
2015    3        2     6  59    4.5920   490.8    4.047      35.333
2015    3        2     7   4    4.5953   490.5    4.055      35.312
2015    3        2     7   9    4.5987   490.3    4.063      35.292
2015    3        2     7  15    4.6021   490.0    4.071      35.272
2015    3        2     7  20    4.6058   489.7    4.080      35.252
2015    3        2     7  25    4.6090   489.5    4.088      35.233
2015    3        2     7  30    4.6125   489.2    4.096      35.214
2015    3        2     7  35    4.6162   488.9    4.105      35.195
2015    3        2     7  41    4.6195   488.7    4.113      35.176
2015    3        2     7  46    4.6231   488.4    4.121      35.157
2015    3        2     7  51    4.6266   488.1    4.130      35.139
2015    3        2     7  56    4.6304   487.9    4.138      35.121
2015    3        2     8   1    4.6340   487.6    4.146      35.103
2015    3        2     8   7    4.6376   487.4    4.155      35.085
2015    3        2     8  12    4.6410   487.1    4.163      35.067
2015    3        2     8  17    4.6448   486.9    4.172      35.050
2015    3        2     8  22    4.6485   486.6    4.180      35.032
2015    3        2     8  27    4.6520   486.4    4.188      35.015
2015    3        2     8  33    4.6559   486.1    4.197      34.998
2015    3        2     8  38    4.6596   485.9    4.205      34.982
2015    3        2     8  43    4.6631   485.6    4.214      34.965
2015    3        2     8  48    4.6669   485.4    4.222      34.949
2015    3        2     8  53    4.6708   485.1    4.230      34.933
2015    3        2     8  58    4.6746   484.9    4.239      34.917
2015    3        2     9   4    4.6783   484.7    4.247      34.901
2015    3        2     9   9    4.6823   484.4    4.255      34.886
2015    3        2     9  14    4.6860   484.2    4.264      34.870
2015    3        2     9  19    4.6900   483.9    4.272      34.856
2015    3        2     9  24    4.6939   483.7    4.281      34.841
2015    3        2     9  30    4.6976   483.5    4.289      34.827
2015    3        2     9  35    4.7017   483.2    4.297      34.812
2015    3        2     9  40    4.7055   483.0    4.306      34.799
2015    3        2     9  45    4.7096   482.8    4.314      34.785
2015    3        2     9  50    4.7134   482.5    4.322      34.772
2015    3        2     9  56    4.7176   482.3    4.331      34.759
2015    3        2    10   1    4.7217   482.1    4.339      34.746
2015    3        2    10   6    4.7257   481.9    4.348      34.734
2015    3        2    10  11    4.7296   481.6    4.356      34.722
2015    3        2    10  16    4.7339   481.4    4.364      34.710
2015    3        2    10  22    4.7380   481.2    4.373      34.698
2015    3        2    10  27    4.7419   481.0    4.381      34.687
2015    3        2    10  32    4.7461   480.7    4.390      34.676
2015    3        2    10  37    4.7503   480.5    4.398      34.666
2015    3        2    10  42    4.7546   480.3    4.407      34.655
2015    3        2    10  47    4.7588   480.1    4.415      34.645
2015    3        2    10  53    4.7631   479.9    4.424      34.635
2015    3        2    10  58    4.7673   479.6    4.433      34.626
2015    3        2    11   3    4.7714   479.4    4.441      34.617
2015    3        2    11   8    4.7758   479.2    4.450      34.608
2015    3        2    11  13    4.7802   479.0    4.459      34.599
2015    3        2    11  19    4.7846   478.8    4.467      34.591
2015    3        2    11  24    4.7889   478.6    4.476      34.583
2015    3        2    11  29    4.7932   478.4    4.485      34.575
2015    3        2    11  34    4.7976   478.2    4.494      34.568
2015    3        2    11  39    4.8020   477.9    4.503      34.560
2015    3        2    11  45    4.8066   477.7    4.512      34.554
2015    3        2    11  50    4.8111   477.5    4.521      34.547
2015    3        2    11  55    4.8156   477.3    4.530      34.541
2015    3        2    12   0    4.8200   477.1    4.540      34.536
2015    3        2    12   6    4.8246   476.9    4.549      34.531
2015    3        2    12  11    4.8291   476.7    4.558      34.526
2015    3        2    12  16    4.8339   476.5    4.568      34.521
2015    3        2    12  21    4.8385   476.3    4.577      34.517
2015    3        2    12  26    4.8430   476.1    4.586      34.513
2015    3        2    12  32    4.8477   475.9    4.596      34.510
2015    3        2    12  37    4.8525   475.8    4.606      34.507
2015    3        2    12  42    4.8571   475.6    4.615      34.504
2015    3        2    12  47    4.8619   475.4    4.625      34.502
2015    3        2    12  52    4.8665   475.2    4.635      34.500
2015    3        2    12  58    4.8714   475.0    4.645      34.498
2015    3        2    13   3    4.8761   474.8    4.655      34.498
2015    3        2    13   8    4.8810   474.6    4.665      34.497
2015    3        2    13  13    4.8857   474.5    4.675      34.497
2015    3        2    13  18    4.8905   474.3    4.685      34.497
2015    3        2    13  24    4.8954   474.1    4.695      34.497
2015    3        2    13  29    4.9004   473.9    4.705      34.498
2015    3        2    13  34    4.9053   473.7    4.715      34.499
2015    3        2    13  39    4.9100   473.6    4.725      34.501
2015    3        2    13  44    4.9150   473.4    4.736      34.503
2015    3        2    13  50    4.9199   473.2    4.746      34.505
2015    3        2    13  55    4.9248   473.1    4.756      34.508
2015    3        2    14   0    4.9299   472.9    4.766      34.511
2015    3        2    14   5    4.9348   472.7    4.777      34.514
2015    3        2    14  10    4.9398   472.6    4.787      34.518
2015    3        2    14  16    4.9448   472.4    4.798      34.522
2015    3        2    14  21    4.9498   472.3    4.808      34.526
2015    3        2    14  26    4.9550   472.1    4.819      34.531
2015    3        2    14  31    4.9600   471.9    4.829      34.536
2015    3        2    14  36    4.9651   471.8    4.840      34.541
2015    3        2    14  42    4.9701   471.6    4.850      34.547
2015    3        2    14  47    4.9752   471.5    4.861      34.553
2015    3        2    14  52    4.9803   471.3    4.871      34.559
2015    3        2    14  57    4.9853   471.2    4.881      34.566
2015    3        2    15   2    4.9904   471.0    4.892      34.573
2015    3        2    15   8    4.9957   470.9    4.902      34.581
2015    3        2    15  13    5.0008   470.8    4.913      34.588
2015    3        2    15  18    5.0059   470.6    4.923      34.596
2015    3        2    15  23    5.0112   470.5    4.933      34.605
2015    3        2    15  28    5.0163   470.3    4.944      34.614
2015    3        2    15  34    5.0216   470.2    4.954      34.623
2015    3        2    15  39    5.0267   470.1    4.964      34.632
2015    3        2    15  44    5.0319   469.9    4.974      34.642
2015    3        2    15  49    5.0373   469.8    4.984      34.652
2015    3        2    15  54    5.0424   469.7    4.994      34.662
2015    3        2    16   0    5.0478   469.5    5.004      34.673
2015    3        2    16   5    5.0530   469.4    5.014      34.684
2015    3        2    16  10    5.0584   469.3    5.024      34.695
2015    3        2    16  15    5.0635   469.1    5.033      34.707
2015    3        2    16  20    5.0689   469.0    5.043      34.718
2015    3        2    16  26    5.0742   468.9    5.053      34.730
2015    3        2    16  31    5.0796   468.8    5.062      34.742
2015    3        2    16  36    5.0849   468.6    5.072      34.754
2015    3        2    16  41    5.0904   468.5    5.081      34.766
2015    3        2    16  46    5.0958   468.4    5.091      34.779
2015    3        2    16  52    5.1012   468.3    5.100      34.791
2015    3        2    16  57    5.1067   468.2    5.109      34.803
2015    3        2    17   2    5.1120   468.0    5.118      34.816
2015    3        2    17   7    5.1176   467.9    5.127      34.828
2015    3        2    17  12    5.1229   467.8    5.136      34.840
2015    3        2    17  17    5.1285   467.7    5.145      34.852
2015    3        2    17  23    5.1341   467.6    5.154      34.864
2015    3        2    17  28    5.1394   467.5    5.163      34.876
2015    3        2    17  33    5.1450   467.4    5.172      34.888
2015    3        2    17  38    5.1506   467.2    5.181      34.900
2015    3        2    17  43    5.1562   467.1    5.190      34.911
2015    3        2    17  49    5.1617   467.0    5.198      34.923
2015    3        2    17  54    5.1672   466.9    5.207      34.934
2015    3        2    17  59    5.1728   466.8    5.216      34.945
2015    3        2    18   4    5.1785   466.7    5.224      34.956
2015    3        2    18   9    5.1840   466.6    5.233      34.968
2015    3        2    18  15    5.1896   466.5    5.242      34.978
2015    3        2    18  20    5.1952   466.4    5.250      34.989
2015    3        2    18  25    5.2008   466.3    5.259      35.001
2015    3        2    18  30    5.2066   466.2    5.267      35.012
2015    3        2    18  35    5.2121   466.1    5.276      35.023
2015    3        2    18  41    5.2177   466.0    5.284      35.034
2015    3        2    18  46    5.2234   465.9    5.293      35.045
2015    3        2    18  51    5.2290   465.8    5.301      35.056
2015    3        2    18  56    5.2347   465.7    5.310      35.068
2015    3        2    19   1    5.2403   465.6    5.318      35.079
2015    3        2    19   7    5.2459   465.5    5.327      35.091
2015    3        2    19  12    5.2515   465.4    5.335      35.102
2015    3        2    19  17    5.2572   465.3    5.344      35.114
2015    3        2    19  22    5.2628   465.2    5.352      35.126
2015    3        2    19  27    5.2685   465.1    5.360      35.138
2015    3        2    19  33    5.2741   465.0    5.369      35.150
2015    3        2    19  38    5.2797   464.9    5.377      35.163
2015    3        2    19  43    5.2854   464.9    5.386      35.175
2015    3        2    19  48    5.2910   464.8    5.394      35.188
2015    3        2    19  54    5.2967   464.7    5.402      35.201
2015    3        2    19  59    5.3022   464.6    5.411      35.214
2015    3        2    20   4    5.3079   464.5    5.419      35.228
2015    3        2    20   9    5.3135   464.4    5.427      35.241
2015    3        2    20  14    5.3191   464.4    5.436      35.255
2015    3        2    20  20    5.3247   464.3    5.444      35.269
2015    3        2    20  25    5.3303   464.2    5.453      35.283
2015    3        2    20  30    5.3360   464.1    5.461      35.298
2015    3        2    20  35    5.3415   464.1    5.469      35.313
2015    3        2    20  40    5.3471   464.0    5.478      35.328
2015    3        2    20  46    5.3527   463.9    5.486      35.343
2015    3        2    20  51    5.3583   463.8    5.494      35.359
2015    3        2    20  56    5.3639   463.8    5.503      35.375
2015    3        2    21   1    5.3695   463.7    5.511      35.392
2015    3        2    21   6    5.3751   463.6    5.519      35.408
2015    3        2    21  12    5.3807   463.5    5.528      35.426
2015    3        2    21  17    5.3863   463.5    5.536      35.443
2015    3        2    21  22    5.3919   463.4    5.545      35.462
2015    3        2    21  27    5.3975   463.3    5.553      35.480
2015    3        2    21  32    5.4031   463.3    5.561      35.499
2015    3        2    21  38    5.4087   463.2    5.570      35.519
2015    3        2    21  43    5.4144   463.1    5.578      35.539
2015    3        2    21  48    5.4200   463.1    5.586      35.560
2015    3        2    21  53    5.4256   463.0    5.595      35.581
2015    3        2    21  58    5.4312   463.0    5.603      35.602
2015    3        2    22   4    5.4369   462.9    5.611      35.625
2015    3        2    22   9    5.4425   462.8    5.620      35.648
2015    3        2    22  14    5.4482   462.8    5.628      35.671
2015    3        2    22  19    5.4539   462.7    5.636      35.695
2015    3        2    22  24    5.4595   462.7    5.645      35.719
2015    3        2    22  30    5.4652   462.6    5.653      35.744
2015    3        2    22  35    5.4709   462.6    5.661      35.769
2015    3        2    22  40    5.4767   462.5    5.669      35.794
2015    3        2    22  45    5.4824   462.5    5.678      35.820
2015    3        2    22  50    5.4882   462.4    5.686      35.847
2015    3        2    22  56    5.4939   462.4    5.694      35.873
2015    3        2    23   1    5.4997   462.3    5.702      35.900
2015    3        2    23   6    5.5055   462.3    5.710      35.928
2015    3        2    23  11    5.5114   462.2    5.719      35.955
2015    3        2    23  16    5.5172   462.2    5.727      35.983
2015    3        2    23  21    5.5231   462.1    5.735      36.011
2015    3        2    23  27    5.5290   462.1    5.743      36.039
2015    3        2    23  32    5.5349   462.0    5.751      36.067
2015    3        2    23  37    5.5409   462.0    5.760      36.095
2015    3        2    23  42    5.5469   461.9    5.768      36.124
2015    3        2    23  47    5.5529   461.9    5.776      36.152
2015    3        2    23  53    5.5590   461.9    5.784      36.181
2015    3        2    23  58    5.5650   461.8    5.792      36.209
2015    3        3     0   3    5.5711   461.8    5.800      36.238
2015    3        3     0   8    5.5772   461.7    5.809      36.266
2015    3        3     0  13    5.5833   461.7    5.817      36.295
2015    3        3     0  19    5.5895   461.7    5.825      36.324
2015    3        3     0  24    5.5956   461.6    5.833      36.353
2015    3        3     0  29    5.6018   461.6    5.841      36.381
2015    3        3     0  34    5.6079   461.6    5.849      36.410
2015    3        3     0  39    5.6142   461.5    5.858      36.438
2015    3        3     0  45    5.6203   461.5    5.866      36.467
2015    3        3     0  50    5.6265   461.5    5.874      36.495
2015    3        3     0  55    5.6327   461.4    5.882      36.523
2015    3        3     1   0    5.6389   461.4    5.890      36.552
2015    3        3     1   5    5.6450   461.4    5.898      36.580
2015    3        3     1  11    5.6512   461.3    5.906      36.609
2015    3        3     1  16    5.6573   461.3    5.914      36.638
2015    3        3     1  21    5.6634   461.3    5.921      36.667
2015    3        3     1  26    5.6695   461.3    5.929      36.696
2015    3        3     1  31    5.6756   461.3    5.937      36.725
2015    3        3     1  37    5.6817   461.2    5.944      36.754
2015    3        3     1  42    5.6877   461.2    5.952      36.783
2015    3        3     1  47    5.6937   461.2    5.959      36.813
2015    3        3     1  52    5.6997   461.2    5.966      36.842
2015    3        3     1  57    5.7056   461.2    5.973      36.871
2015    3        3     2   3    5.7116   461.1    5.980      36.900
2015    3        3     2   8    5.7175   461.1    5.987      36.930
2015    3        3     2  13    5.7233   461.1    5.993      36.959
2015    3        3     2  18    5.7292   461.1    6.000      36.988
2015    3        3     2  23    5.7350   461.1    6.006      37.016
2015    3        3     2  29    5.7408   461.1    6.013      37.045
2015    3        3     2  34    5.7466   461.0    6.019      37.073
2015    3        3     2  39    5.7523   461.0    6.025      37.101
2015    3        3     2  44    5.7581   461.0    6.031      37.129
2015    3        3     2  49    5.7638   461.0    6.037      37.157
2015    3        3     2  55    5.7695   461.0    6.043      37.184
2015    3        3     3   0    5.7752   461.0    6.048      37.211
2015    3        3     3   5    5.7808   461.0    6.054      37.239
2015    3        3     3  10    5.7865   461.0    6.060      37.266
2015    3        3     3  15    5.7921   460.9    6.065      37.293
2015    3        3     3  21    5.7977   460.9    6.070      37.319
2015    3        3     3  26    5.8033   460.9    6.076      37.346
2015    3        3     3  31    5.8089   460.9    6.081      37.373
2015    3        3     3  36    5.8144   460.9    6.086      37.400
2015    3        3     3  41    5.8200   460.9    6.091      37.426
2015    3        3     3  47    5.8256   460.9    6.097      37.453
2015    3        3     3  52    5.8311   460.9    6.102      37.479
2015    3        3     3  57    5.8366   460.9    6.107      37.506
2015    3        3     4   2    5.8422   460.8    6.112      37.532
2015    3        3     4   7    5.8477   460.8    6.116      37.559
2015    3        3     4  13    5.8532   460.8    6.121      37.585
2015    3        3     4  18    5.8586   460.8    6.126      37.612
2015    3        3     4  23    5.8642   460.8    6.131      37.639
2015    3        3     4  28    5.8697   460.8    6.136      37.665
2015    3        3     4  33    5.8752   460.8    6.141      37.692
2015    3        3     4  39    5.8808   460.8    6.145      37.719
2015    3        3     4  44    5.8863   460.8    6.150      37.747
2015    3        3     4  49    5.8919   460.8    6.155      37.774
2015    3        3     4  54    5.8974   460.8    6.160      37.802
2015    3        3     4  59    5.9029   460.8    6.165      37.830
2015    3        3     5   5    5.9085   460.8    6.169      37.857
2015    3        3     5  10    5.9142   460.8    6.174      37.886
2015    3        3     5  15    5.9197   460.8    6.179      37.914
2015    3        3     5  20    5.9254   460.8    6.184      37.943
2015    3        3     5  25    5.9310   460.8    6.189      37.972
2015    3        3     5  31    5.9367   460.8    6.193      38.002
2015    3        3     5  36    5.9424   460.8    6.198      38.031
2015    3        3     5  41    5.9481   460.8    6.203      38.061
2015    3        3     5  46    5.9538   460.8    6.208      38.092
2015    3        3     5  51    5.9596   460.8    6.213      38.123
2015    3        3     5  57    5.9654   460.8    6.219      38.154
2015    3        3     6   2    5.9713   460.8    6.224      38.186
2015    3        3     6   7    5.9772   460.8    6.229      38.218
2015    3        3     6  12    5.9831   460.8    6.235      38.251
2015    3        3     6  17    5.9889   460.8    6.240      38.284
2015    3        3     6  23    5.9949   460.8    6.246      38.317
2015    3        3     6  28    6.0010   460.8    6.251      38.351
2015    3        3     6  33    6.0070   460.8    6.257      38.386
2015    3        3     6  38    6.0131   460.8    6.263      38.421
2015    3        3     6  43    6.0193   460.8    6.269      38.457
2015    3        3     6  49    6.0255   460.8    6.276      38.493
2015    3        3     6  54    6.0317   460.9    6.282      38.530
2015    3        3     6  59    6.0381   460.9    6.288      38.567
2015    3        3     7   4    6.0443   460.9    6.295      38.605
2015    3        3     7   9    6.0508   460.9    6.302      38.644
2015    3        3     7  15    6.0571   460.9    6.309      38.683
2015    3        3     7  20    6.0636   461.0    6.316      38.724
2015    3        3     7  25    6.0701   461.0    6.324      38.766
2015    3        3     7  30    6.0766   461.0    6.331      38.808
2015    3        3     7  35    6.0832   461.0    6.339      38.852
2015    3        3     7  41    6.0898   461.1    6.347      38.896
2015    3        3     7  46    6.0964   461.1    6.354      38.941
2015    3        3     7  51    6.1029   461.1    6.362      38.987
2015    3        3     7  56    6.1095   461.2    6.371      39.033
2015    3        3     8   1    6.1161   461.2    6.379      39.080
2015    3        3     8   7    6.1227   461.3    6.387      39.127
2015    3        3     8  12    6.1292   461.3    6.395      39.176
2015    3        3     8  17    6.1357   461.3    6.403      39.226
2015    3        3     8  22    6.1422   461.4    6.411      39.277
2015    3        3     8  27    6.1487   461.4    6.419      39.329
2015    3        3     8  33    6.1551   461.5    6.427      39.382
2015    3        3     8  38    6.1615   461.6    6.434      39.436
2015    3        3     8  43    6.1678   461.6    6.442      39.490
2015    3        3     8  48    6.1741   461.7    6.449      39.545
2015    3        3     8  53    6.1803   461.7    6.456      39.599
2015    3        3     8  59    6.1864   461.8    6.462      39.654
2015    3        3     9   4    6.1925   461.9    6.469      39.709
2015    3        3     9   9    6.1986   461.9    6.475      39.764
2015    3        3     9  14    6.2046   462.0    6.481      39.819
2015    3        3     9  19    6.2106   462.1    6.487      39.874
2015    3        3     9  25    6.2165   462.1    6.492      39.928
2015    3        3     9  30    6.2224   462.2    6.497      39.982
2015    3        3     9  35    6.2283   462.2    6.502      40.035
2015    3        3     9  40    6.2341   462.3    6.507      40.087
2015    3        3     9  45    6.2399   462.4    6.511      40.139
2015    3        3     9  51    6.2457   462.4    6.515      40.190
2015    3        3     9  56    6.2514   462.5    6.519      40.240
2015    3        3    10   1    6.2572   462.5    6.523      40.289
2015    3        3    10   6    6.2629   462.6    6.527      40.338
2015    3        3    10  11    6.2686   462.7    6.531      40.387
2015    3        3    10  17    6.2743   462.7    6.534      40.435
2015    3        3    10  22    6.2799   462.8    6.537      40.482
2015    3        3    10  27    6.2856   462.8    6.541      40.529
2015    3        3    10  32    6.2913   462.9    6.544      40.575
2015    3        3    10  37    6.2969   462.9    6.547      40.621
2015    3        3    10  43    6.3026   463.0    6.550      40.667
2015    3        3    10  48    6.3082   463.1    6.553      40.712
2015    3        3    10  53    6.3139   463.1    6.555      40.757
2015    3        3    10  58    6.3196   463.2    6.558      40.801
2015    3        3    11   3    6.3252   463.2    6.561      40.845
2015    3        3    11   9    6.3309   463.3    6.563      40.888
2015    3        3    11  14    6.3366   463.3    6.566      40.931
2015    3        3    11  19    6.3422   463.4    6.568      40.974
2015    3        3    11  24    6.3479   463.4    6.571      41.016
2015    3        3    11  29    6.3536   463.5    6.573      41.058
2015    3        3    11  35    6.3593   463.5    6.576      41.100
2015    3        3    11  40    6.3650   463.6    6.578      41.142
2015    3        3    11  45    6.3707   463.6    6.580      41.183
2015    3        3    11  50    6.3765   463.7    6.583      41.225
2015    3        3    11  55    6.3822   463.7    6.585      41.266
2015    3        3    12   1    6.3880   463.8    6.587      41.307
2015    3        3    12   6    6.3938   463.8    6.589      41.348
2015    3        3    12  11    6.3996   463.9    6.592      41.389
2015    3        3    12  16    6.4055   463.9    6.594      41.430
2015    3        3    12  21    6.4113   464.0    6.596      41.471
2015    3        3    12  27    6.4173   464.0    6.599      41.512
2015    3        3    12  32    6.4232   464.1    6.601      41.553
2015    3        3    12  37    6.4291   464.1    6.604      41.595
2015    3        3    12  42    6.4352   464.2    6.606      41.636
2015    3        3    12  47    6.4412   464.3    6.609      41.679
2015    3        3    12  53    6.4472   464.3    6.611      41.721
2015    3        3    12  58    6.4534   464.4    6.614      41.764
2015    3        3    13   3    6.4596   464.4    6.617      41.807
2015    3        3    13   8    6.4658   464.5    6.620      41.852
2015    3        3    13  13    6.4719   464.6    6.622      41.896
2015    3        3    13  19    6.4783   464.6    6.625      41.941
2015    3        3    13  24    6.4846   464.7    6.629      41.987
2015    3        3    13  29    6.4910   464.7    6.632      42.033
2015    3        3    13  34    6.4975   464.8    6.635      42.081
2015    3        3    13  39    6.5039   464.9    6.639      42.129
2015    3        3    13  45    6.5105   465.0    6.643      42.177
2015    3        3    13  50    6.5170   465.0    6.647      42.227
2015    3        3    13  55    6.5237   465.1    6.651      42.277
2015    3        3    14   0    6.5304   465.2    6.655      42.329
2015    3        3    14   5    6.5371   465.3    6.659      42.381
2015    3        3    14  11    6.5439   465.3    6.664      42.434
2015    3        3    14  16    6.5508   465.4    6.669      42.488
2015    3        3    14  21    6.5575   465.5    6.674      42.543
2015    3        3    14  26    6.5644   465.6    6.679      42.599
2015    3        3    14  31    6.5713   465.7    6.684      42.657
2015    3        3    14  37    6.5782   465.7    6.690      42.715
2015    3        3    14  42    6.5853   465.8    6.696      42.776
2015    3        3    14  47    6.5921   465.9    6.702      42.837
2015    3        3    14  52    6.5991   466.0    6.708      42.900
2015    3        3    14  57    6.6060   466.1    6.714      42.963
2015    3        3    15   3    6.6130   466.2    6.721      43.028
2015    3        3    15   8    6.6197   466.3    6.727      43.093
2015    3        3    15  13    6.6266   466.4    6.734      43.161
2015    3        3    15  18    6.6333   466.5    6.741      43.229
2015    3        3    15  23    6.6401   466.6    6.748      43.300
2015    3        3    15  28    6.6469   466.8    6.754      43.371
2015    3        3    15  34    6.6535   466.9    6.761      43.444
2015    3        3    15  39    6.6599   467.0    6.768      43.518
2015    3        3    15  44    6.6663   467.1    6.775      43.593
2015    3        3    15  49    6.6727   467.2    6.781      43.669
2015    3        3    15  54    6.6790   467.4    6.788      43.745
2015    3        3    16   0    6.6852   467.5    6.794      43.822
2015    3        3    16   5    6.6914   467.6    6.800      43.900
2015    3        3    16  10    6.6975   467.8    6.807      43.978
2015    3        3    16  15    6.7035   467.9    6.813      44.057
2015    3        3    16  20    6.7096   468.0    6.818      44.137
2015    3        3    16  26    6.7153   468.1    6.824      44.216
2015    3        3    16  31    6.7212   468.3    6.829      44.296
2015    3        3    16  36    6.7271   468.4    6.835      44.376
2015    3        3    16  41    6.7326   468.5    6.840      44.457
2015    3        3    16  46    6.7382   468.7    6.845      44.538
2015    3        3    16  52    6.7438   468.8    6.849      44.620
2015    3        3    16  57    6.7493   468.9    6.854      44.702
2015    3        3    17   2    6.7548   469.1    6.858      44.784
2015    3        3    17   7    6.7602   469.2    6.862      44.867
2015    3        3    17  12    6.7655   469.3    6.866      44.949
2015    3        3    17  18    6.7708   469.5    6.870      45.032
2015    3        3    17  23    6.7760   469.6    6.873      45.114
2015    3        3    17  28    6.7812   469.7    6.876      45.196
2015    3        3    17  33    6.7864   469.9    6.879      45.278
2015    3        3    17  39    6.7914   470.0    6.882      45.360
2015    3        3    17  44    6.7964   470.1    6.885      45.441
2015    3        3    17  49    6.8013   470.3    6.887      45.522
2015    3        3    17  54    6.8062   470.4    6.889      45.602
2015    3        3    17  59    6.8110   470.5    6.891      45.682
2015    3        3    18   5    6.8158   470.7    6.893      45.760
2015    3        3    18  10    6.8206   470.8    6.894      45.838
2015    3        3    18  15    6.8252   470.9    6.896      45.915
2015    3        3    18  20    6.8298   471.1    6.897      45.992
2015    3        3    18  25    6.8344   471.2    6.898      46.067
2015    3        3    18  31    6.8388   471.3    6.899      46.142
2015    3        3    18  36    6.8433   471.5    6.899      46.216
2015    3        3    18  41    6.8477   471.6    6.900      46.290
2015    3        3    18  46    6.8519   471.7    6.900      46.362
2015    3        3    18  51    6.8562   471.8    6.900      46.434
2015    3        3    18  57    6.8604   472.0    6.900      46.506
2015    3        3    19   2    6.8645   472.1    6.900      46.576
2015    3        3    19   7    6.8687   472.2    6.899      46.646
2015    3        3    19  12    6.8727   472.3    6.899      46.716
2015    3        3    19  17    6.8766   472.5    6.898      46.785
2015    3        3    19  23    6.8806   472.6    6.898      46.853
2015    3        3    19  28    6.8845   472.7    6.897      46.920
2015    3        3    19  33    6.8883   472.8    6.896      46.988
2015    3        3    19  38    6.8921   473.0    6.895      47.055
2015    3        3    19  43    6.8959   473.1    6.894      47.121
2015    3        3    19  49    6.8996   473.2    6.893      47.187
2015    3        3    19  54    6.9034   473.3    6.892      47.253
2015    3        3    19  59    6.9070   473.4    6.891      47.319
2015    3        3    20   4    6.9107   473.6    6.890      47.384
2015    3        3    20   9    6.9142   473.7    6.889      47.449
2015    3        3    20  15    6.9179   473.8    6.888      47.514
2015    3        3    20  20    6.9215   473.9    6.887      47.579
2015    3        3    20  25    6.9251   474.0    6.886      47.644
2015    3        3    20  30    6.9287   474.1    6.885      47.709
2015    3        3    20  35    6.9323   474.2    6.885      47.774
2015    3        3    20  41    6.9358   474.4    6.884      47.839
2015    3        3    20  46    6.9393   474.5    6.883      47.904
2015    3        3    20  51    6.9428   474.6    6.883      47.969
2015    3        3    20  56    6.9463   474.7    6.883      48.034
2015    3        3    21   1    6.9499   474.8    6.882      48.100
2015    3        3    21   6    6.9534   474.9    6.882      48.167
2015    3        3    21  12    6.9568   475.1    6.882      48.234
2015    3        3    21  17    6.9602   475.2    6.882      48.302
2015    3        3    21  22    6.9637   475.3    6.882      48.371
2015    3        3    21  27    6.9670   475.4    6.882      48.442
2015    3        3    21  32    6.9704   475.5    6.882      48.514
2015    3        3    21  38    6.9737   475.7    6.881      48.587
2015    3        3    21  43    6.9770   475.8    6.881      48.661
2015    3        3    21  48    6.9801   475.9    6.881      48.736
2015    3        3    21  53    6.9835   476.0    6.880      48.812
2015    3        3    21  58    6.9867   476.2    6.879      48.889
2015    3        3    22   4    6.9897   476.3    6.879      48.966
2015    3        3    22   9    6.9928   476.4    6.878      49.044
2015    3        3    22  14    6.9961   476.5    6.877      49.122
2015    3        3    22  19    6.9991   476.7    6.875      49.200
2015    3        3    22  24    7.0022   476.8    6.874      49.278
2015    3        3    22  30    7.0052   476.9    6.872      49.357
2015    3        3    22  35    7.0084   477.0    6.871      49.435
2015    3        3    22  40    7.0114   477.2    6.869      49.514
2015    3        3    22  45    7.0146   477.3    6.867      49.591
2015    3        3    22  50    7.0176   477.4    6.865      49.669
2015    3        3    22  56    7.0207   477.5    6.864      49.747
2015    3        3    23   1    7.0239   477.6    6.862      49.825
2015    3        3    23   6    7.0271   477.7    6.860      49.902
2015    3        3    23  11    7.0304   477.9    6.858      49.980
2015    3        3    23  16    7.0338   478.0    6.856      50.059
2015    3        3    23  22    7.0371   478.1    6.855      50.137
2015    3        3    23  27    7.0406   478.2    6.853      50.216
2015    3        3    23  32    7.0440   478.3    6.851      50.296
2015    3        3    23  37    7.0476   478.4    6.849      50.375
2015    3        3    23  42    7.0513   478.6    6.848      50.455
2015    3        3    23  48    7.0550   478.7    6.846      50.534
2015    3        3    23  53    7.0588   478.8    6.844      50.613
2015    3        3    23  58    7.0626   478.9    6.842      50.692
2015    3        4     0   3    7.0665   479.1    6.840      50.771
2015    3        4     0   8    7.0705   479.2    6.838      50.848
2015    3        4     0  14    7.0745   479.3    6.836      50.925
2015    3        4     0  19    7.0784   479.5    6.833      51.001
2015    3        4     0  24    7.0825   479.6    6.831      51.077
2015    3        4     0  29    7.0865   479.8    6.828      51.150
2015    3        4     0  34    7.0905   479.9    6.825      51.223
2015    3        4     0  40    7.0946   480.0    6.822      51.294
2015    3        4     0  45    7.0986   480.2    6.819      51.364
2015    3        4     0  50    7.1026   480.3    6.815      51.433
2015    3        4     0  55    7.1066   480.5    6.811      51.500
2015    3        4     1   0    7.1105   480.6    6.807      51.565
2015    3        4     1   6    7.1145   480.8    6.803      51.630
2015    3        4     1  11    7.1184   480.9    6.799      51.693
2015    3        4     1  16    7.1223   481.0    6.795      51.755
2015    3        4     1  21    7.1262   481.2    6.790      51.815
2015    3        4     1  26    7.1301   481.3    6.785      51.875
2015    3        4     1  32    7.1340   481.5    6.781      51.933
2015    3        4     1  37    7.1379   481.6    6.776      51.990
2015    3        4     1  42    7.1417   481.8    6.770      52.046
2015    3        4     1  47    7.1456   481.9    6.765      52.102
2015    3        4     1  52    7.1495   482.1    6.760      52.156
2015    3        4     1  58    7.1533   482.2    6.755      52.209
2015    3        4     2   3    7.1572   482.4    6.749      52.262
2015    3        4     2   8    7.1611   482.5    6.744      52.314
2015    3        4     2  13    7.1650   482.7    6.738      52.365
2015    3        4     2  18    7.1688   482.8    6.733      52.415
2015    3        4     2  24    7.1727   483.0    6.727      52.465
2015    3        4     2  29    7.1766   483.1    6.721      52.513
2015    3        4     2  34    7.1805   483.3    6.716      52.562
2015    3        4     2  39    7.1844   483.4    6.710      52.609
2015    3        4     2  44    7.1883   483.6    6.704      52.656
2015    3        4     2  50    7.1921   483.7    6.698      52.703
2015    3        4     2  55    7.1961   483.9    6.692      52.749
2015    3        4     3   0    7.2000   484.0    6.687      52.794
2015    3        4     3   5    7.2039   484.2    6.681      52.839
2015    3        4     3  10    7.2078   484.4    6.675      52.883
2015    3        4     3  16    7.2118   484.5    6.669      52.927
2015    3        4     3  21    7.2157   484.7    6.663      52.971
2015    3        4     3  26    7.2196   484.8    6.657      53.014
2015    3        4     3  31    7.2236   485.0    6.652      53.057
2015    3        4     3  36    7.2276   485.1    6.646      53.099
2015    3        4     3  42    7.2316   485.3    6.640      53.141
2015    3        4     3  47    7.2355   485.4    6.635      53.182
2015    3        4     3  52    7.2395   485.6    6.629      53.224
2015    3        4     3  57    7.2435   485.8    6.623      53.264
2015    3        4     4   2    7.2476   485.9    6.618      53.305
2015    3        4     4   8    7.2515   486.1    6.613      53.345
2015    3        4     4  13    7.2557   486.2    6.607      53.385
2015    3        4     4  18    7.2596   486.4    6.602      53.425
2015    3        4     4  23    7.2638   486.5    6.597      53.464
2015    3        4     4  28    7.2679   486.7    6.592      53.503
2015    3        4     4  34    7.2720   486.9    6.588      53.542
2015    3        4     4  39    7.2761   487.0    6.583      53.580
2015    3        4     4  44    7.2804   487.2    6.578      53.618
2015    3        4     4  49    7.2844   487.4    6.574      53.656
2015    3        4     4  54    7.2887   487.5    6.570      53.694
2015    3        4     5   0    7.2929   487.7    6.566      53.731
2015    3        4     5   5    7.2971   487.9    6.562      53.769
2015    3        4     5  10    7.3014   488.1    6.558      53.806
2015    3        4     5  15    7.3056   488.2    6.555      53.843
2015    3        4     5  20    7.3101   488.4    6.552      53.879
2015    3        4     5  26    7.3143   488.6    6.549      53.915
2015    3        4     5  31    7.3187   488.8    6.546      53.951
2015    3        4     5  36    7.3230   489.0    6.543      53.987
2015    3        4     5  41    7.3275   489.1    6.540      54.022
2015    3        4     5  46    7.3318   489.3    6.538      54.057
2015    3        4     5  51    7.3363   489.5    6.536      54.091
2015    3        4     5  57    7.3406   489.7    6.534      54.126
2015    3        4     6   2    7.3452   489.9    6.532      54.160
2015    3        4     6   7    7.3495   490.1    6.530      54.193
2015    3        4     6  12    7.3541   490.3    6.529      54.227
2015    3        4     6  17    7.3586   490.4    6.527      54.260
2015    3        4     6  23    7.3631   490.6    6.526      54.292
2015    3        4     6  28    7.3676   490.8    6.525      54.325
2015    3        4     6  33    7.3722   491.0    6.525      54.356
2015    3        4     6  38    7.3767   491.2    6.524      54.388
2015    3        4     6  43    7.3812   491.4    6.524      54.420
2015    3        4     6  49    7.3858   491.6    6.524      54.451
2015    3        4     6  54    7.3902   491.8    6.524      54.482
2015    3        4     6  59    7.3947   492.0    6.524      54.513
2015    3        4     7   4    7.3992   492.2    6.524      54.544
2015    3        4     7   9    7.4038   492.4    6.525      54.575
2015    3        4     7  15    7.4084   492.6    6.526      54.606
2015    3        4     7  20    7.4127   492.8    6.527      54.637
2015    3        4     7  25    7.4172   493.1    6.528      54.668
2015    3        4     7  30    7.4217   493.3    6.529      54.698
2015    3        4     7  35    7.4260   493.5    6.530      54.728
2015    3        4     7  41    7.4305   493.7    6.531      54.758
2015    3        4     7  46    7.4347   493.9    6.533      54.787
2015    3        4     7  51    7.4389   494.1    6.534      54.815
2015    3        4     7  56    7.4432   494.3    6.536      54.843
2015    3        4     8   1    7.4473   494.6    6.537      54.871
2015    3        4     8   7    7.4515   494.8    6.538      54.898
2015    3        4     8  12    7.4554   495.0    6.540      54.923
2015    3        4     8  17    7.4594   495.2    6.541      54.947
2015    3        4     8  22    7.4633   495.5    6.542      54.971
2015    3        4     8  28    7.4673   495.7    6.543      54.993
2015    3        4     8  33    7.4711   495.9    6.544      55.014
2015    3        4     8  38    7.4748   496.1    6.544      55.035
2015    3        4     8  43    7.4785   496.4    6.545      55.054
2015    3        4     8  48    7.4821   496.6    6.545      55.073
2015    3        4     8  54    7.4858   496.8    6.545      55.091
2015    3        4     8  59    7.4894   497.1    6.545      55.107
2015    3        4     9   4    7.4929   497.3    6.544      55.123
2015    3        4     9   9    7.4964   497.5    6.544      55.138
2015    3        4     9  14    7.4999   497.8    6.543      55.152
2015    3        4     9  20    7.5033   498.0    6.543      55.166
2015    3        4     9  25    7.5068   498.2    6.542      55.179
2015    3        4     9  30    7.5102   498.5    6.541      55.191
2015    3        4     9  35    7.5137   498.7    6.540      55.203
2015    3        4     9  40    7.5170   498.9    6.539      55.215
2015    3        4     9  46    7.5204   499.2    6.537      55.225
2015    3        4     9  51    7.5238   499.4    6.536      55.236
2015    3        4     9  56    7.5272   499.6    6.534      55.247
2015    3        4    10   1    7.5306   499.9    6.533      55.257
2015    3        4    10   6    7.5340   500.1    6.531      55.267
2015    3        4    10  11    7.5373   500.3    6.529      55.276
2015    3        4    10  17    7.5408   500.5    6.527      55.286
2015    3        4    10  22    7.5441   500.8    6.526      55.295
2015    3        4    10  27    7.5476   501.0    6.524      55.304
2015    3        4    10  32    7.5510   501.2    6.522      55.313
2015    3        4    10  37    7.5544   501.5    6.520      55.323
2015    3        4    10  43    7.5579   501.7    6.518      55.332
2015    3        4    10  48    7.5613   501.9    6.516      55.341
2015    3        4    10  53    7.5648   502.2    6.514      55.350
2015    3        4    10  58    7.5683   502.4    6.512      55.359
2015    3        4    11   3    7.5717   502.6    6.510      55.368
2015    3        4    11   9    7.5753   502.9    6.508      55.379
2015    3        4    11  14    7.5787   503.1    6.506      55.390
2015    3        4    11  19    7.5823   503.3    6.505      55.401
2015    3        4    11  24    7.5858   503.6    6.503      55.414
2015    3        4    11  29    7.5893   503.8    6.501      55.428
2015    3        4    11  35    7.5929   504.1    6.499      55.442
2015    3        4    11  40    7.5964   504.3    6.497      55.457
2015    3        4    11  45    7.5999   504.6    6.495      55.472
2015    3        4    11  50    7.6034   504.8    6.493      55.488
2015    3        4    11  55    7.6069   505.1    6.491      55.504
2015    3        4    12   1    7.6104   505.3    6.489      55.521
2015    3        4    12   6    7.6139   505.6    6.486      55.538
2015    3        4    12  11    7.6174   505.8    6.484      55.556
2015    3        4    12  16    7.6208   506.1    6.482      55.574
2015    3        4    12  21    7.6243   506.3    6.480      55.592
2015    3        4    12  27    7.6277   506.6    6.477      55.610
2015    3        4    12  32    7.6312   506.9    6.475      55.628
2015    3        4    12  37    7.6347   507.1    6.473      55.646
2015    3        4    12  42    7.6382   507.4    6.471      55.665
2015    3        4    12  47    7.6416   507.6    6.468      55.684
2015    3        4    12  53    7.6452   507.9    6.466      55.703
2015    3        4    12  58    7.6487   508.2    6.464      55.723
2015    3        4    13   3    7.6522   508.4    6.462      55.744
2015    3        4    13   8    7.6558   508.7    6.460      55.767
2015    3        4    13  13    7.6593   509.0    6.458      55.791
2015    3        4    13  19    7.6628   509.3    6.456      55.816
2015    3        4    13  24    7.6664   509.5    6.454      55.843
2015    3        4    13  29    7.6700   509.8    6.452      55.872
2015    3        4    13  34    7.6735   510.1    6.450      55.902
2015    3        4    13  39    7.6770   510.4    6.448      55.934
2015    3        4    13  45    7.6806   510.7    6.445      55.967
2015    3        4    13  50    7.6840   510.9    6.443      56.001
2015    3        4    13  55    7.6876   511.2    6.441      56.036
2015    3        4    14   0    7.6910   511.5    6.439      56.072
2015    3        4    14   5    7.6946   511.8    6.437      56.109
2015    3        4    14  11    7.6980   512.1    6.434      56.148
2015    3        4    14  16    7.7015   512.4    6.432      56.188
2015    3        4    14  21    7.7050   512.7    6.430      56.228
2015    3        4    14  26    7.7085   513.0    6.427      56.270
2015    3        4    14  31    7.7120   513.3    6.425      56.313
2015    3        4    14  37    7.7156   513.6    6.422      56.357
2015    3        4    14  42    7.7190   513.9    6.420      56.401
2015    3        4    14  47    7.7225   514.2    6.417      56.446
2015    3        4    14  52    7.7261   514.5    6.415      56.492
2015    3        4    14  57    7.7296   514.8    6.412      56.540
2015    3        4    15   3    7.7331   515.1    6.410      56.588
2015    3        4    15   8    7.7366   515.4    6.407      56.638
2015    3        4    15  13    7.7401   515.7    6.404      56.688
2015    3        4    15  18    7.7435   516.0    6.401      56.742
2015    3        4    15  23    7.7470   516.3    6.398      56.796
2015    3        4    15  29    7.7505   516.6    6.395      56.852
2015    3        4    15  34    7.7538   516.9    6.392      56.910
2015    3        4    15  39    7.7571   517.3    6.389      56.968
2015    3        4    15  44    7.7605   517.6    6.385      57.028
2015    3        4    15  49    7.7636   517.9    6.381      57.088
2015    3        4    15  55    7.7668   518.2    6.377      57.149
2015    3        4    16   0    7.7699   518.5    6.373      57.211
2015    3        4    16   5    7.7729   518.9    6.369      57.273
2015    3        4    16  10    7.7759   519.2    6.364      57.336
2015    3        4    16  15    7.7789   519.5    6.360      57.399
2015    3        4    16  21    7.7817   519.9    6.355      57.462
2015    3        4    16  26    7.7848   520.2    6.349      57.525
2015    3        4    16  31    7.7876   520.5    6.344      57.587
2015    3        4    16  36    7.7903   520.8    6.339      57.648
2015    3        4    16  41    7.7928   521.2    6.333      57.709
2015    3        4    16  47    7.7957   521.5    6.327      57.769
2015    3        4    16  52    7.7981   521.8    6.322      57.829
2015    3        4    16  57    7.8007   522.2    6.316      57.888
2015    3        4    17   2    7.8034   522.5    6.310      57.946
2015    3        4    17   7    7.8057   522.8    6.303      58.004
2015    3        4    17  13    7.8082   523.2    6.297      58.062
2015    3        4    17  18    7.8109   523.5    6.291      58.119
2015    3        4    17  23    7.8130   523.8    6.284      58.175
2015    3        4    17  28    7.8157   524.1    6.278      58.231
2015    3        4    17  33    7.8178   524.5    6.271      58.287
2015    3        4    17  39    7.8203   524.8    6.264      58.343
2015    3        4    17  44    7.8224   525.2    6.257      58.397
2015    3        4    17  49    7.8249   525.5    6.250      58.452
2015    3        4    17  54    7.8269   525.8    6.243      58.506
2015    3        4    17  59    7.8290   526.2    6.236      58.559
2015    3        4    18   5    7.8314   526.5    6.229      58.612
2015    3        4    18  10    7.8335   526.8    6.222      58.665
2015    3        4    18  15    7.8355   527.2    6.215      58.718
2015    3        4    18  20    7.8376   527.5    6.207      58.769
2015    3        4    18  25    7.8392   527.9    6.200      58.821
2015    3        4    18  30    7.8411   528.2    6.192      58.872
2015    3        4    18  36    7.8430   528.5    6.185      58.923
2015    3        4    18  41    7.8448   528.9    6.177      58.973
2015    3        4    18  46    7.8465   529.2    6.169      59.023
2015    3        4    18  51    7.8485   529.6    6.161      59.072
2015    3        4    18  56    7.8498   529.9    6.154      59.121
2015    3        4    19   2    7.8514   530.3    6.146      59.169
2015    3        4    19   7    7.8532   530.6    6.138      59.218
2015    3        4    19  12    7.8547   531.0    6.130      59.265
2015    3        4    19  17    7.8558   531.3    6.122      59.313
2015    3        4    19  22    7.8575   531.6    6.114      59.359
2015    3        4    19  28    7.8588   532.0    6.106      59.406
2015    3        4    19  33    7.8598   532.3    6.098      59.452
2015    3        4    19  38    7.8609   532.7    6.089      59.498
2015    3        4    19  43    7.8621   533.0    6.081      59.544
2015    3        4    19  48    7.8632   533.4    6.073      59.590
2015    3        4    19  54    7.8645   533.7    6.065      59.636
2015    3        4    19  59    7.8655   534.0    6.057      59.682
2015    3        4    20   4    7.8665   534.4    6.049      59.727
2015    3        4    20   9    7.8673   534.7    6.040      59.774
2015    3        4    20  14    7.8678   535.1    6.032      59.820
2015    3        4    20  20    7.8686   535.4    6.024      59.866
2015    3        4    20  25    7.8693   535.8    6.016      59.912
2015    3        4    20  30    7.8702   536.1    6.007      59.959
2015    3        4    20  35    7.8708   536.5    5.999      60.005
2015    3        4    20  40    7.8710   536.8    5.990      60.051
2015    3        4    20  46    7.8714   537.2    5.982      60.097
2015    3        4    20  51    7.8721   537.6    5.973      60.143
2015    3        4    20  56    7.8720   537.9    5.965      60.188
2015    3        4    21   1    7.8722   538.3    5.956      60.234
2015    3        4    21   6    7.8727   538.6    5.947      60.279
2015    3        4    21  12    7.8727   539.0    5.939      60.324
2015    3        4    21  17    7.8727   539.4    5.930      60.368
2015    3        4    21  22    7.8723   539.7    5.921      60.412
2015    3        4    21  27    7.8725   540.1    5.912      60.455
2015    3        4    21  32    7.8723   540.4    5.903      60.499
2015    3        4    21  38    7.8716   540.8    5.894      60.542
2015    3        4    21  43    7.8713   541.2    5.885      60.585
2015    3        4    21  48    7.8709   541.5    5.876      60.627
2015    3        4    21  53    7.8705   541.9    5.866      60.670
2015    3        4    21  58    7.8700   542.2    5.857      60.712
2015    3        4    22   4    7.8694   542.6    5.848      60.754
2015    3        4    22   9    7.8688   543.0    5.838      60.796
2015    3        4    22  14    7.8682   543.3    5.829      60.838
2015    3        4    22  19    7.8679   543.7    5.819      60.879
2015    3        4    22  24    7.8668   544.0    5.810      60.921
2015    3        4    22  30    7.8664   544.4    5.800      60.962
2015    3        4    22  35    7.8652   544.7    5.791      61.004
2015    3        4    22  40    7.8643   545.1    5.781      61.045
2015    3        4    22  45    7.8638   545.5    5.772      61.086
2015    3        4    22  50    7.8629   545.8    5.762      61.127
2015    3        4    22  56    7.8619   546.2    5.752      61.168
2015    3        4    23   1    7.8609   546.5    5.743      61.209
2015    3        4    23   6    7.8595   546.9    5.733      61.251
2015    3        4    23  11    7.8588   547.2    5.724      61.292
2015    3        4    23  16    7.8577   547.6    5.714      61.333
2015    3        4    23  22    7.8561   548.0    5.704      61.374
2015    3        4    23  27    7.8549   548.3    5.695      61.416
2015    3        4    23  32    7.8537   548.7    5.685      61.457
2015    3        4    23  37    7.8525   549.0    5.675      61.499
2015    3        4    23  42    7.8516   549.4    5.666      61.541
2015    3        4    23  48    7.8499   549.7    5.656      61.583
2015    3        4    23  53    7.8485   550.1    5.647      61.625
2015    3        4    23  58    7.8476   550.4    5.637      61.668
2015    3        5     0   3    7.8457   550.8    5.628      61.711
2015    3        5     0   8    7.8443   551.1    5.618      61.754
2015    3        5     0  14    7.8428   551.4    5.609      61.798
2015    3        5     0  19    7.8412   551.8    5.600      61.842
2015    3        5     0  24    7.8397   552.1    5.590      61.886
2015    3        5     0  29    7.8385   552.5    5.581      61.931
2015    3        5     0  34    7.8369   552.8    5.572      61.976
2015    3        5     0  40    7.8352   553.1    5.563      62.022
2015    3        5     0  45    7.8331   553.5    5.554      62.068
2015    3        5     0  50    7.8318   553.8    5.545      62.114
2015    3        5     0  55    7.8296   554.2    5.536      62.160
2015    3        5     1   0    7.8282   554.5    5.527      62.208
2015    3        5     1   6    7.8260   554.8    5.519      62.255
2015    3        5     1  11    7.8241   555.2    5.510      62.303
2015    3        5     1  16    7.8223   555.5    5.502      62.351
2015    3        5     1  21    7.8208   555.8    5.493      62.400
2015    3        5     1  26    7.8185   556.2    5.485      62.449
2015    3        5     1  32    7.8170   556.5    5.477      62.499
2015    3        5     1  37    7.8147   556.8    5.469      62.548
2015    3        5     1  42    7.8127   557.1    5.461      62.598
2015    3        5     1  47    7.8112   557.4    5.453      62.648
2015    3        5     1  52    7.8088   557.8    5.445      62.698
2015    3        5     1  57    7.8069   558.1    5.437      62.748
2015    3        5     2   3    7.8049   558.4    5.429      62.797
2015    3        5     2   8    7.8030   558.7    5.421      62.847
2015    3        5     2  13    7.8014   559.0    5.413      62.897
2015    3        5     2  18    7.7990   559.3    5.406      62.948
2015    3        5     2  23    7.7975   559.7    5.398      62.999
2015    3        5     2  29    7.7950   560.0    5.390      63.050
2015    3        5     2  34    7.7934   560.3    5.383      63.102
2015    3        5     2  39    7.7909   560.6    5.375      63.153
2015    3        5     2  44    7.7888   560.9    5.367      63.204
2015    3        5     2  49    7.7867   561.3    5.359      63.254
2015    3        5     2  55    7.7849   561.6    5.352      63.304
2015    3        5     3   0    7.7823   561.9    5.344      63.353
2015    3        5     3   5    7.7800   562.2    5.336      63.401
2015    3        5     3  10    7.7777   562.6    5.328      63.449
2015    3        5     3  15    7.7753   562.9    5.320      63.496
2015    3        5     3  21    7.7733   563.2    5.312      63.542
2015    3        5     3  26    7.7708   563.6    5.304      63.587
2015    3        5     3  31    7.7678   563.9    5.296      63.631
2015    3        5     3  36    7.7652   564.2    5.288      63.674
2015    3        5     3  41    7.7626   564.5    5.280      63.717
2015    3        5     3  47    7.7603   564.8    5.272      63.759
2015    3        5     3  52    7.7572   565.2    5.264      63.801
2015    3        5     3  57    7.7548   565.5    5.256      63.842
2015    3        5     4   2    7.7516   565.8    5.247      63.883
2015    3        5     4   7    7.7487   566.1    5.239      63.923
2015    3        5     4  13    7.7459   566.5    5.231      63.963
2015    3        5     4  18    7.7429   566.8    5.223      64.002
2015    3        5     4  23    7.7400   567.1    5.214      64.042
2015    3        5     4  28    7.7374   567.4    5.206      64.081
2015    3        5     4  33    7.7340   567.7    5.198      64.120
2015    3        5     4  39    7.7313   568.0    5.190      64.159
2015    3        5     4  44    7.7279   568.4    5.181      64.197
2015    3        5     4  49    7.7251   568.7    5.173      64.236
2015    3        5     4  54    7.7217   569.0    5.165      64.275
2015    3        5     4  59    7.7189   569.3    5.157      64.314
2015    3        5     5   5    7.7157   569.6    5.148      64.353
2015    3        5     5  10    7.7125   569.9    5.140      64.391
2015    3        5     5  15    7.7090   570.3    5.132      64.430
2015    3        5     5  20    7.7061   570.6    5.124      64.470
2015    3        5     5  25    7.7025   570.9    5.116      64.509
2015    3        5     5  31    7.6996   571.2    5.107      64.548
2015    3        5     5  36    7.6964   571.5    5.099      64.588
2015    3        5     5  41    7.6927   571.8    5.091      64.627
2015    3        5     5  46    7.6898   572.2    5.083      64.667
2015    3        5     5  51    7.6862   572.5    5.075      64.707
2015    3        5     5  57    7.6832   572.8    5.067      64.747
2015    3        5     6   2    7.6799   573.1    5.059      64.787
2015    3        5     6   7    7.6766   573.4    5.051      64.828
2015    3        5     6  12    7.6730   573.7    5.044      64.868
2015    3        5     6  17    7.6700   574.0    5.036      64.909
2015    3        5     6  23    7.6665   574.3    5.028      64.950
2015    3        5     6  28    7.6632   574.6    5.020      64.992
2015    3        5     6  33    7.6602   574.9    5.013      65.033
2015    3        5     6  38    7.6569   575.2    5.005      65.076
2015    3        5     6  43    7.6536   575.5    4.998      65.118
2015    3        5     6  49    7.6504   575.8    4.991      65.161
2015    3        5     6  54    7.6472   576.1    4.983      65.205
2015    3        5     6  59    7.6440   576.4    4.976      65.249
2015    3        5     7   4    7.6407   576.7    4.969      65.293
2015    3        5     7   9    7.6375   577.0    4.962      65.338
2015    3        5     7  15    7.6343   577.3    4.955      65.383
2015    3        5     7  20    7.6310   577.6    4.949      65.428
2015    3        5     7  25    7.6278   577.9    4.942      65.473
2015    3        5     7  30    7.6247   578.2    4.935      65.519
2015    3        5     7  35    7.6215   578.5    4.929      65.564
2015    3        5     7  41    7.6183   578.7    4.922      65.611
2015    3        5     7  46    7.6149   579.0    4.916      65.657
2015    3        5     7  51    7.6117   579.3    4.909      65.703
2015    3        5     7  56    7.6085   579.6    4.903      65.749
2015    3        5     8   1    7.6052   579.9    4.897      65.795
2015    3        5     8   6    7.6021   580.2    4.891      65.841
2015    3        5     8  12    7.5987   580.4    4.885      65.886
2015    3        5     8  17    7.5956   580.7    4.878      65.932
2015    3        5     8  22    7.5922   581.0    4.872      65.977
2015    3        5     8  27    7.5891   581.3    4.866      66.022
2015    3        5     8  32    7.5857   581.5    4.861      66.068
2015    3        5     8  38    7.5826   581.8    4.855      66.113
2015    3        5     8  43    7.5792   582.1    4.849      66.158
2015    3        5     8  48    7.5760   582.4    4.843      66.202
2015    3        5     8  53    7.5727   582.7    4.837      66.246
2015    3        5     8  58    7.5694   582.9    4.831      66.290
2015    3        5     9   4    7.5661   583.2    4.825      66.333
2015    3        5     9   9    7.5627   583.5    4.819      66.375
2015    3        5     9  14    7.5594   583.8    4.813      66.416
2015    3        5     9  19    7.5560   584.0    4.806      66.457
2015    3        5     9  24    7.5526   584.3    4.800      66.497
2015    3        5     9  30    7.5491   584.6    4.794      66.536
2015    3        5     9  35    7.5457   584.9    4.787      66.574
2015    3        5     9  40    7.5423   585.1    4.781      66.612
2015    3        5     9  45    7.5387   585.4    4.774      66.648
2015    3        5     9  50    7.5353   585.7    4.768      66.684
2015    3        5     9  56    7.5317   586.0    4.761      66.719
2015    3        5    10   1    7.5281   586.3    4.754      66.753
2015    3        5    10   6    7.5246   586.5    4.748      66.787
2015    3        5    10  11    7.5210   586.8    4.741      66.819
2015    3        5    10  16    7.5174   587.1    4.734      66.851
2015    3        5    10  22    7.5137   587.4    4.727      66.883
2015    3        5    10  27    7.5101   587.6    4.720      66.913
2015    3        5    10  32    7.5065   587.9    4.713      66.943
2015    3        5    10  37    7.5028   588.2    4.706      66.973
2015    3        5    10  42    7.4991   588.5    4.699      67.002
2015    3        5    10  48    7.4955   588.7    4.692      67.030
2015    3        5    10  53    7.4918   589.0    4.685      67.058
2015    3        5    10  58    7.4881   589.3    4.678      67.085
2015    3        5    11   3    7.4843   589.6    4.671      67.112
2015    3        5    11   8    7.4806   589.8    4.664      67.138
2015    3        5    11  14    7.4769   590.1    4.657      67.164
2015    3        5    11  19    7.4732   590.4    4.650      67.190
2015    3        5    11  24    7.4694   590.7    4.643      67.215
2015    3        5    11  29    7.4657   590.9    4.636      67.240
2015    3        5    11  34    7.4619   591.2    4.629      67.264
2015    3        5    11  39    7.4581   591.5    4.622      67.289
2015    3        5    11  45    7.4544   591.7    4.615      67.313
2015    3        5    11  50    7.4506   592.0    4.608      67.337
2015    3        5    11  55    7.4468   592.3    4.601      67.361
2015    3        5    12   0    7.4431   592.5    4.594      67.385
2015    3        5    12   5    7.4393   592.8    4.588      67.409
2015    3        5    12  11    7.4356   593.1    4.581      67.433
2015    3        5    12  16    7.4318   593.3    4.574      67.457
2015    3        5    12  21    7.4280   593.6    4.568      67.481
2015    3        5    12  26    7.4242   593.9    4.561      67.505
2015    3        5    12  31    7.4205   594.1    4.555      67.530
2015    3        5    12  37    7.4167   594.4    4.548      67.555
2015    3        5    12  42    7.4130   594.7    4.542      67.580
2015    3        5    12  47    7.4092   594.9    4.536      67.606
2015    3        5    12  52    7.4055   595.2    4.530      67.633
2015    3        5    12  57    7.4017   595.4    4.524      67.660
2015    3        5    13   3    7.3980   595.7    4.518      67.688
2015    3        5    13   8    7.3942   596.0    4.512      67.717
2015    3        5    13  13    7.3905   596.2    4.506      67.746
2015    3        5    13  18    7.3868   596.5    4.501      67.777
2015    3        5    13  23    7.3831   596.7    4.495      67.809
2015    3        5    13  29    7.3794   597.0    4.490      67.841
2015    3        5    13  34    7.3757   597.2    4.485      67.875
2015    3        5    13  39    7.3720   597.5    4.479      67.910
2015    3        5    13  44    7.3683   597.7    4.474      67.945
2015    3        5    13  49    7.3646   598.0    4.469      67.982
2015    3        5    13  55    7.3610   598.2    4.465      68.019
2015    3        5    14   0    7.3573   598.5    4.460      68.057
2015    3        5    14   5    7.3537   598.7    4.455      68.096
2015    3        5    14  10    7.3500   599.0    4.450      68.136
2015    3        5    14  15    7.3463   599.2    4.446      68.177
2015    3        5    14  21    7.3426   599.5    4.441      68.219
2015    3        5    14  26    7.3390   599.7    4.436      68.261
2015    3        5    14  31    7.3354   600.0    4.431      68.303
2015    3        5    14  36    7.3317   600.2    4.426      68.345
2015    3        5    14  41    7.3280   600.5    4.421      68.386
2015    3        5    14  47    7.3243   600.8    4.416      68.427
2015    3        5    14  52    7.3206   601.0    4.411      68.466
2015    3        5    14  57    7.3169   601.3    4.406      68.505
2015    3        5    15   2    7.3131   601.5    4.401      68.543
2015    3        5    15   7    7.3094   601.7    4.395      68.580
2015    3        5    15  13    7.3056   602.0    4.390      68.616
2015    3        5    15  18    7.3018   602.2    4.384      68.651
2015    3        5    15  23    7.2980   602.5    4.378      68.685
2015    3        5    15  28    7.2942   602.7    4.373      68.717
2015    3        5    15  33    7.2904   603.0    4.367      68.748
2015    3        5    15  39    7.2865   603.2    4.361      68.778
2015    3        5    15  44    7.2828   603.4    4.355      68.807
2015    3        5    15  49    7.2789   603.7    4.349      68.835
2015    3        5    15  54    7.2750   603.9    4.343      68.862
2015    3        5    15  59    7.2712   604.2    4.337      68.888
2015    3        5    16   5    7.2673   604.4    4.331      68.913
2015    3        5    16  10    7.2634   604.6    4.325      68.938
2015    3        5    16  15    7.2596   604.9    4.319      68.961
2015    3        5    16  20    7.2558   605.1    4.313      68.984
2015    3        5    16  25    7.2519   605.3    4.307      69.006
2015    3        5    16  31    7.2480   605.6    4.301      69.027
2015    3        5    16  36    7.2441   605.8    4.294      69.047
2015    3        5    16  41    7.2402   606.0    4.288      69.067
2015    3        5    16  46    7.2364   606.3    4.282      69.086
2015    3        5    16  51    7.2325   606.5    4.276      69.105
2015    3        5    16  57    7.2286   606.7    4.270      69.123
2015    3        5    17   2    7.2248   606.9    4.263      69.140
2015    3        5    17   7    7.2209   607.2    4.257      69.157
2015    3        5    17  12    7.2171   607.4    4.251      69.174
2015    3        5    17  17    7.2133   607.6    4.245      69.190
2015    3        5    17  23    7.2094   607.8    4.239      69.206
2015    3        5    17  28    7.2056   608.1    4.233      69.221
2015    3        5    17  33    7.2017   608.3    4.227      69.237
2015    3        5    17  38    7.1979   608.5    4.221      69.252
2015    3        5    17  43    7.1941   608.7    4.215      69.267
2015    3        5    17  48    7.1903   609.0    4.209      69.282
2015    3        5    17  54    7.1864   609.2    4.203      69.297
2015    3        5    17  59    7.1827   609.4    4.197      69.312
2015    3        5    18   4    7.1789   609.6    4.191      69.327
2015    3        5    18   9    7.1751   609.9    4.186      69.342
2015    3        5    18  14    7.1712   610.1    4.180      69.357
2015    3        5    18  20    7.1674   610.3    4.174      69.372
2015    3        5    18  25    7.1637   610.5    4.169      69.387
2015    3        5    18  30    7.1599   610.7    4.163      69.402
2015    3        5    18  35    7.1561   611.0    4.158      69.417
2015    3        5    18  40    7.1522   611.2    4.152      69.433
2015    3        5    18  46    7.1484   611.4    4.147      69.448
2015    3        5    18  51    7.1446   611.6    4.142      69.464
2015    3        5    18  56    7.1408   611.8    4.137      69.481
2015    3        5    19   1    7.1370   612.0    4.132      69.497
2015    3        5    19   6    7.1333   612.3    4.127      69.513
2015    3        5    19  12    7.1295   612.5    4.122      69.530
2015    3        5    19  17    7.1256   612.7    4.117      69.548
2015    3        5    19  22    7.1219   612.9    4.112      69.565
2015    3        5    19  27    7.1181   613.1    4.108      69.583
2015    3        5    19  32    7.1142   613.3    4.103      69.601
2015    3        5    19  38    7.1106   613.5    4.099      69.620
2015    3        5    19  43    7.1067   613.8    4.095      69.639
2015    3        5    19  48    7.1031   614.0    4.090      69.659
2015    3        5    19  53    7.0992   614.2    4.086      69.680
2015    3        5    19  58    7.0956   614.4    4.082      69.700
2015    3        5    20   4    7.0918   614.6    4.078      69.721
2015    3        5    20   9    7.0880   614.8    4.074      69.743
2015    3        5    20  14    7.0844   615.0    4.070      69.765
2015    3        5    20  19    7.0807   615.2    4.066      69.787
2015    3        5    20  24    7.0769   615.4    4.062      69.810
2015    3        5    20  30    7.0732   615.6    4.059      69.833
2015    3        5    20  35    7.0695   615.8    4.055      69.856
2015    3        5    20  40    7.0657   616.0    4.051      69.878
2015    3        5    20  45    7.0620   616.2    4.047      69.901
2015    3        5    20  50    7.0582   616.4    4.043      69.924
2015    3        5    20  56    7.0545   616.6    4.039      69.947
2015    3        5    21   1    7.0508   616.8    4.035      69.971
2015    3        5    21   6    7.0470   617.0    4.031      69.995
2015    3        5    21  11    7.0433   617.2    4.027      70.019
2015    3        5    21  16    7.0397   617.4    4.023      70.043
2015    3        5    21  22    7.0360   617.6    4.018      70.067
2015    3        5    21  27    7.0323   617.8    4.014      70.090
2015    3        5    21  32    7.0286   618.0    4.010      70.113
2015    3        5    21  37    7.0249   618.2    4.005      70.136
2015    3        5    21  42    7.0213   618.4    4.001      70.157
2015    3        5    21  48    7.0176   618.6    3.996      70.179
2015    3        5    21  53    7.0140   618.8    3.992      70.199
2015    3        5    21  58    7.0103   618.9    3.987      70.219
2015    3        5    22   3    7.0067   619.1    3.982      70.238
2015    3        5    22   8    7.0030   619.3    3.978      70.256
2015    3        5    22  14    6.9994   619.5    3.973      70.272
2015    3        5    22  19    6.9958   619.7    3.968      70.288
2015    3        5    22  24    6.9922   619.9    3.963      70.303
2015    3        5    22  29    6.9885   620.1    3.958      70.317
2015    3        5    22  34    6.9850   620.3    3.954      70.331
2015    3        5    22  40    6.9813   620.4    3.949      70.343
2015    3        5    22  45    6.9777   620.6    3.944      70.356
2015    3        5    22  50    6.9741   620.8    3.939      70.367
2015    3        5    22  55    6.9704   621.0    3.934      70.378
2015    3        5    23   0    6.9668   621.2    3.929      70.388
2015    3        5    23   5    6.9632   621.3    3.924      70.398
2015    3        5    23  11    6.9595   621.5    3.919      70.408
2015    3        5    23  16    6.9559   621.7    3.914      70.418
2015    3        5    23  21    6.9523   621.8    3.909      70.427
2015    3        5    23  26    6.9487   622.0    3.905      70.437
2015    3        5    23  31    6.9451   622.2    3.900      70.446
2015    3        5    23  37    6.9416   622.3    3.895      70.455
2015    3        5    23  42    6.9381   622.5    3.890      70.465
2015    3        5    23  47    6.9346   622.7    3.886      70.474
2015    3        5    23  52    6.9312   622.8    3.881      70.484
2015    3        5    23  57    6.9277   623.0    3.877      70.494
2015    3        6     0   3    6.9243   623.2    3.872      70.505
2015    3        6     0   8    6.9210   623.3    3.868      70.516
2015    3        6     0  13    6.9177   623.5    3.864      70.527
2015    3        6     0  18    6.9145   623.7    3.860      70.540
2015    3        6     0  23    6.9112   623.8    3.856      70.553
2015    3        6     0  29    6.9079   624.0    3.852      70.568
2015    3        6     0  34    6.9046   624.2    3.848      70.584
2015    3        6     0  39    6.9014   624.3    3.844      70.601
2015    3        6     0  44    6.8982   624.5    3.841      70.619
2015    3        6     0  49    6.8950   624.7    3.837      70.637
2015    3        6     0  55    6.8918   624.8    3.833      70.656
2015    3        6     1   0    6.8885   625.0    3.830      70.675
2015    3        6     1   5    6.8853   625.2    3.826      70.695
2015    3        6     1  10    6.8820   625.4    3.823      70.715
2015    3        6     1  15    6.8787   625.5    3.819      70.735
2015    3        6     1  21    6.8754   625.7    3.816      70.754
2015    3        6     1  26    6.8721   625.9    3.812      70.774
2015    3        6     1  31    6.8688   626.1    3.809      70.793
2015    3        6     1  36    6.8655   626.2    3.805      70.812
2015    3        6     1  41    6.8621   626.4    3.802      70.830
2015    3        6     1  47    6.8587   626.6    3.799      70.848
2015    3        6     1  52    6.8554   626.7    3.795      70.866
2015    3        6     1  57    6.8519   626.9    3.792      70.883
2015    3        6     2   2    6.8486   627.1    3.789      70.900
2015    3        6     2   7    6.8453   627.3    3.785      70.918
2015    3        6     2  12    6.8418   627.4    3.782      70.935
2015    3        6     2  18    6.8384   627.6    3.779      70.952
2015    3        6     2  23    6.8351   627.7    3.775      70.969
2015    3        6     2  28    6.8318   627.9    3.772      70.986
2015    3        6     2  33    6.8284   628.1    3.769      71.002
2015    3        6     2  38    6.8250   628.2    3.765      71.018
2015    3        6     2  44    6.8216   628.4    3.762      71.034
2015    3        6     2  49    6.8182   628.6    3.759      71.050
2015    3        6     2  54    6.8149   628.7    3.755      71.066
2015    3        6     2  59    6.8114   628.9    3.752      71.082
2015    3        6     3   4    6.8080   629.0    3.749      71.097
2015    3        6     3  10    6.8046   629.2    3.745      71.111
2015    3        6     3  15    6.8012   629.4    3.742      71.124
2015    3        6     3  20    6.7977   629.5    3.738      71.136
2015    3        6     3  25    6.7943   629.7    3.734      71.147
2015    3        6     3  30    6.7908   629.9    3.731      71.158
2015    3        6     3  36    6.7873   630.0    3.727      71.167
2015    3        6     3  41    6.7838   630.2    3.723      71.175
2015    3        6     3  46    6.7803   630.3    3.719      71.183
2015    3        6     3  51    6.7768   630.5    3.715      71.189
2015    3        6     3  56    6.7733   630.6    3.711      71.194
2015    3        6     4   2    6.7698   630.8    3.707      71.198
2015    3        6     4   7    6.7662   630.9    3.703      71.202
2015    3        6     4  12    6.7628   631.1    3.699      71.205
2015    3        6     4  17    6.7592   631.2    3.695      71.207
2015    3        6     4  22    6.7557   631.4    3.691      71.209
2015    3        6     4  28    6.7522   631.5    3.687      71.210
2015    3        6     4  33    6.7486   631.7    3.682      71.210
2015    3        6     4  38    6.7452   631.8    3.678      71.210
2015    3        6     4  43    6.7417   632.0    3.674      71.210
2015    3        6     4  48    6.7381   632.1    3.670      71.210
2015    3        6     4  54    6.7347   632.3    3.666      71.208
2015    3        6     4  59    6.7312   632.4    3.661      71.207
2015    3        6     5   4    6.7276   632.5    3.657      71.205
2015    3        6     5   9    6.7242   632.7    3.653      71.203
2015    3        6     5  14    6.7207   632.8    3.649      71.200
2015    3        6     5  20    6.7172   632.9    3.645      71.197
2015    3        6     5  25    6.7137   633.1    3.641      71.194
2015    3        6     5  30    6.7102   633.2    3.637      71.190
2015    3        6     5  35    6.7068   633.3    3.633      71.186
2015    3        6     5  40    6.7032   633.5    3.629      71.182
2015    3        6     5  46    6.6998   633.6    3.625      71.178
2015    3        6     5  51    6.6963   633.7    3.621      71.174
2015    3        6     5  56    6.6929   633.8    3.617      71.169
2015    3        6     6   1    6.6895   633.9    3.613      71.165
2015    3        6     6   6    6.6860   634.1    3.610      71.161
2015    3        6     6  12    6.6826   634.2    3.606      71.158
2015    3        6     6  17    6.6793   634.3    3.603      71.155
2015    3        6     6  22    6.6760   634.4    3.599      71.153
2015    3        6     6  27    6.6728   634.5    3.596      71.151
2015    3        6     6  32    6.6695   634.6    3.593      71.151
2015    3        6     6  38    6.6663   634.7    3.590      71.153
2015    3        6     6  43    6.6633   634.8    3.587      71.158
2015    3        6     6  48    6.6602   635.0    3.585      71.165
2015    3        6     6  53    6.6572   635.1    3.582      71.175
2015    3        6     6  58    6.6543   635.2    3.579      71.187
2015    3        6     7   3    6.6514   635.3    3.577      71.201
2015    3        6     7   9    6.6485   635.4    3.575      71.216
2015    3        6     7  14    6.6457   635.6    3.572      71.232
2015    3        6     7  19    6.6427   635.7    3.570      71.249
2015    3        6     7  24    6.6399   635.8    3.568      71.268
2015    3        6     7  29    6.6370   635.9    3.566      71.288
2015    3        6     7  35    6.6341   636.1    3.563      71.309
2015    3        6     7  40    6.6312   636.2    3.561      71.331
2015    3        6     7  45    6.6282   636.4    3.559      71.352
2015    3        6     7  50    6.6253   636.5    3.556      71.372
2015    3        6     7  55    6.6222   636.6    3.554      71.392
2015    3        6     8   1    6.6192   636.8    3.551      71.412
2015    3        6     8   6    6.6160   636.9    3.549      71.430
2015    3        6     8  11    6.6130   637.0    3.546      71.447
2015    3        6     8  16    6.6098   637.2    3.544      71.464
2015    3        6     8  21    6.6066   637.3    3.541      71.479
2015    3        6     8  27    6.6034   637.4    3.538      71.493
2015    3        6     8  32    6.6002   637.6    3.535      71.505
2015    3        6     8  37    6.5970   637.7    3.532      71.516
2015    3        6     8  42    6.5937   637.8    3.529      71.526
2015    3        6     8  47    6.5905   637.9    3.526      71.534
2015    3        6     8  53    6.5872   638.1    3.523      71.541
2015    3        6     8  58    6.5840   638.2    3.520      71.548
2015    3        6     9   3    6.5807   638.3    3.517      71.554
2015    3        6     9   8    6.5774   638.4    3.514      71.559
2015    3        6     9  13    6.5742   638.5    3.511      71.564
2015    3        6     9  19    6.5709   638.6    3.508      71.569
2015    3        6     9  24    6.5677   638.7    3.505      71.574
2015    3        6     9  29    6.5645   638.9    3.502      71.579
2015    3        6     9  34    6.5613   639.0    3.499      71.583
2015    3        6     9  39    6.5580   639.1    3.495      71.586
2015    3        6     9  45    6.5547   639.2    3.492      71.589
2015    3        6     9  50    6.5515   639.3    3.489      71.592
2015    3        6     9  55    6.5482   639.4    3.486      71.593
2015    3        6    10   0    6.5449   639.5    3.482      71.593
2015    3        6    10   5    6.5415   639.7    3.479      71.593
2015    3        6    10  11    6.5382   639.8    3.475      71.591
2015    3        6    10  16    6.5349   639.9    3.472      71.588
2015    3        6    10  21    6.5315   640.0    3.468      71.583
2015    3        6    10  26    6.5281   640.1    3.464      71.577
2015    3        6    10  31    6.5247   640.2    3.461      71.570
2015    3        6    10  37    6.5212   640.3    3.457      71.562
2015    3        6    10  42    6.5179   640.4    3.453      71.553
2015    3        6    10  47    6.5144   640.5    3.450      71.543
2015    3        6    10  52    6.5110   640.6    3.446      71.533
2015    3        6    10  57    6.5076   640.7    3.442      71.522
2015    3        6    11   2    6.5042   640.8    3.439      71.510
2015    3        6    11   8    6.5007   640.9    3.435      71.498
2015    3        6    11  13    6.4974   641.0    3.431      71.486
2015    3        6    11  18    6.4940   641.1    3.428      71.473
2015    3        6    11  23    6.4906   641.1    3.424      71.460
2015    3        6    11  28    6.4872   641.2    3.421      71.448
2015    3        6    11  34    6.4839   641.3    3.417      71.435
2015    3        6    11  39    6.4806   641.4    3.414      71.422
2015    3        6    11  44    6.4772   641.5    3.410      71.410
2015    3        6    11  49    6.4739   641.6    3.407      71.397
2015    3        6    11  54    6.4706   641.6    3.404      71.385
2015    3        6    12   0    6.4673   641.7    3.401      71.373
2015    3        6    12   5    6.4639   641.8    3.398      71.361
2015    3        6    12  10    6.4606   641.9    3.395      71.349
2015    3        6    12  15    6.4573   642.0    3.392      71.337
2015    3        6    12  20    6.4540   642.0    3.389      71.325
2015    3        6    12  26    6.4507   642.1    3.386      71.313
2015    3        6    12  31    6.4473   642.2    3.383      71.301
2015    3        6    12  36    6.4441   642.2    3.380      71.289
2015    3        6    12  41    6.4407   642.3    3.377      71.277
2015    3        6    12  46    6.4374   642.3    3.375      71.266
2015    3        6    12  52    6.4341   642.4    3.372      71.254
2015    3        6    12  57    6.4309   642.5    3.370      71.243
2015    3        6    13   2    6.4276   642.5    3.367      71.233
2015    3        6    13   7    6.4244   642.6    3.365      71.224
2015    3        6    13  12    6.4212   642.6    3.362      71.216
2015    3        6    13  18    6.4181   642.7    3.360      71.210
2015    3        6    13  23    6.4150   642.7    3.358      71.206
2015    3        6    13  28    6.4119   642.8    3.356      71.204
2015    3        6    13  33    6.4090   642.8    3.354      71.203
2015    3        6    13  38    6.4060   642.8    3.353      71.203
2015    3        6    13  44    6.4032   642.9    3.351      71.205
2015    3        6    13  49    6.4004   643.0    3.349      71.210
2015    3        6    13  54    6.3977   643.0    3.348      71.218
2015    3        6    13  59    6.3950   643.1    3.347      71.228
2015    3        6    14   4    6.3922   643.1    3.345      71.240
2015    3        6    14  10    6.3896   643.2    3.344      71.254
2015    3        6    14  15    6.3870   643.3    3.342      71.269
2015    3        6    14  20    6.3844   643.4    3.341      71.285
2015    3        6    14  25    6.3817   643.4    3.339      71.300
2015    3        6    14  30    6.3790   643.5    3.338      71.316
2015    3        6    14  36    6.3764   643.6    3.336      71.331
2015    3        6    14  41    6.3736   643.7    3.335      71.346
2015    3        6    14  46    6.3709   643.8    3.333      71.360
2015    3        6    14  51    6.3680   643.8    3.331      71.372
2015    3        6    14  56    6.3652   643.9    3.329      71.382
2015    3        6    15   1    6.3624   644.0    3.327      71.391
2015    3        6    15   7    6.3595   644.1    3.325      71.398
2015    3        6    15  12    6.3566   644.2    3.323      71.404
2015    3        6    15  17    6.3536   644.2    3.320      71.408
2015    3        6    15  22    6.3506   644.3    3.318      71.410
2015    3        6    15  27    6.3477   644.4    3.316      71.411
2015    3        6    15  33    6.3446   644.5    3.313      71.410
2015    3        6    15  38    6.3416   644.5    3.311      71.408
2015    3        6    15  43    6.3385   644.6    3.308      71.405
2015    3        6    15  48    6.3355   644.7    3.305      71.400
2015    3        6    15  53    6.3324   644.7    3.303      71.394
2015    3        6    15  59    6.3294   644.8    3.300      71.386
2015    3        6    16   4    6.3264   644.9    3.297      71.378
2015    3        6    16   9    6.3233   644.9    3.295      71.368
2015    3        6    16  14    6.3202   645.0    3.292      71.357
2015    3        6    16  19    6.3171   645.0    3.289      71.346
2015    3        6    16  25    6.3141   645.1    3.286      71.334
2015    3        6    16  30    6.3111   645.1    3.283      71.322
2015    3        6    16  35    6.3079   645.2    3.280      71.309
2015    3        6    16  40    6.3049   645.2    3.277      71.295
2015    3        6    16  45    6.3018   645.3    3.275      71.280
2015    3        6    16  51    6.2987   645.3    3.272      71.264
2015    3        6    16  56    6.2956   645.4    3.269      71.248
2015    3        6    17   1    6.2925   645.4    3.265      71.231
2015    3        6    17   6    6.2893   645.5    3.262      71.213
2015    3        6    17  11    6.2862   645.5    3.259      71.194
2015    3        6    17  17    6.2830   645.6    3.256      71.174
2015    3        6    17  22    6.2799   645.6    3.253      71.153
2015    3        6    17  27    6.2768   645.7    3.250      71.132
2015    3        6    17  32    6.2736   645.7    3.247      71.109
2015    3        6    17  37    6.2703   645.7    3.244      71.087
2015    3        6    17  43    6.2672   645.8    3.241      71.064
2015    3        6    17  48    6.2641   645.8    3.238      71.041
2015    3        6    17  53    6.2609   645.8    3.235      71.018
2015    3        6    17  58    6.2578   645.8    3.232      70.996
2015    3        6    18   3    6.2546   645.9    3.229      70.973
2015    3        6    18   9    6.2516   645.9    3.226      70.952
2015    3        6    18  14    6.2485   645.9    3.223      70.931
2015    3        6    18  19    6.2455   645.9    3.221      70.911
2015    3        6    18  24    6.2424   646.0    3.218      70.891
2015    3        6    18  29    6.2394   646.0    3.216      70.873
2015    3        6    18  35    6.2364   646.0    3.214      70.856
2015    3        6    18  40    6.2335   646.0    3.211      70.840
2015    3        6    18  45    6.2306   646.0    3.209      70.825
2015    3        6    18  50    6.2276   646.1    3.207      70.812
2015    3        6    18  55    6.2248   646.1    3.205      70.799
2015    3        6    19   1    6.2218   646.1    3.204      70.787
2015    3        6    19   6    6.2190   646.1    3.202      70.776
2015    3        6    19  11    6.2161   646.1    3.200      70.765
2015    3        6    19  16    6.2133   646.2    3.198      70.755
2015    3        6    19  21    6.2104   646.2    3.197      70.746
2015    3        6    19  26    6.2074   646.2    3.195      70.738
2015    3        6    19  32    6.2046   646.2    3.194      70.730
2015    3        6    19  37    6.2017   646.2    3.192      70.722
2015    3        6    19  42    6.1989   646.2    3.190      70.715
2015    3        6    19  47    6.1960   646.2    3.189      70.707
2015    3        6    19  52    6.1931   646.2    3.187      70.700
2015    3        6    19  58    6.1901   646.2    3.186      70.693
2015    3        6    20   3    6.1873   646.2    3.184      70.687
2015    3        6    20   8    6.1846   646.2    3.183      70.680
2015    3        6    20  13    6.1818   646.2    3.181      70.674
2015    3        6    20  18    6.1790   646.2    3.180      70.668
2015    3        6    20  24    6.1762   646.2    3.179      70.664
2015    3        6    20  29    6.1735   646.2    3.177      70.660
2015    3        6    20  34    6.1708   646.2    3.176      70.658
2015    3        6    20  39    6.1683   646.2    3.175      70.656
2015    3        6    20  44    6.1657   646.2    3.173      70.655
2015    3        6    20  50    6.1631   646.2    3.172      70.655
2015    3        6    20  55    6.1606   646.2    3.171      70.655
2015    3        6    21   0    6.1582   646.2    3.169      70.655
2015    3        6    21   5    6.1558   646.2    3.168      70.655
2015    3        6    21  10    6.1534   646.2    3.167      70.655
2015    3        6    21  16    6.1511   646.2    3.166      70.656
2015    3        6    21  21    6.1487   646.2    3.164      70.656
2015    3        6    21  26    6.1464   646.2    3.163      70.655
2015    3        6    21  31    6.1441   646.2    3.162      70.654
2015    3        6    21  36    6.1418   646.2    3.160      70.652
2015    3        6    21  42    6.1395   646.2    3.159      70.650
2015    3        6    21  47    6.1373   646.3    3.158      70.647
2015    3        6    21  52    6.1350   646.3    3.157      70.644
2015    3        6    21  57    6.1327   646.3    3.155      70.640
2015    3        6    22   2    6.1302   646.3    3.154      70.635
2015    3        6    22   8    6.1279   646.3    3.153      70.631
2015    3        6    22  13    6.1255   646.3    3.151      70.625
2015    3        6    22  18    6.1232   646.3    3.150      70.620
2015    3        6    22  23    6.1207   646.3    3.149      70.614
2015    3        6    22  28    6.1183   646.3    3.147      70.607
2015    3        6    22  34    6.1158   646.3    3.146      70.600
2015    3        6    22  39    6.1133   646.3    3.144      70.593
2015    3        6    22  44    6.1108   646.3    3.143      70.585
2015    3        6    22  49    6.1083   646.4    3.141      70.577
2015    3        6    22  54    6.1059   646.4    3.139      70.567
2015    3        6    22  59    6.1032   646.4    3.138      70.557
2015    3        6    23   5    6.1007   646.4    3.136      70.547
2015    3        6    23  10    6.0981   646.4    3.134      70.535
2015    3        6    23  15    6.0956   646.4    3.132      70.523
2015    3        6    23  20    6.0930   646.4    3.130      70.510
2015    3        6    23  25    6.0904   646.4    3.129      70.495
2015    3        6    23  31    6.0879   646.4    3.127      70.480
2015    3        6    23  36    6.0852   646.4    3.125      70.464
2015    3        6    23  41    6.0825   646.4    3.123      70.448
2015    3        6    23  46    6.0799   646.4    3.121      70.430
2015    3        6    23  51    6.0773   646.4    3.119      70.411
2015    3        6    23  57    6.0746   646.4    3.116      70.392
2015    3        7     0   2    6.0721   646.4    3.114      70.372
2015    3        7     0   7    6.0693   646.3    3.112      70.351
2015    3        7     0  12    6.0668   646.3    3.110      70.330
2015    3        7     0  17    6.0640   646.3    3.108      70.308
2015    3        7     0  23    6.0614   646.3    3.106      70.285
2015    3        7     0  28    6.0588   646.3    3.103      70.261
2015    3        7     0  33    6.0561   646.3    3.101      70.238
2015    3        7     0  38    6.0535   646.3    3.099      70.214
2015    3        7     0  43    6.0508   646.2    3.097      70.189
2015    3        7     0  49    6.0482   646.2    3.095      70.165
2015    3        7     0  54    6.0455   646.2    3.093      70.140
2015    3        7     0  59    6.0428   646.1    3.091      70.116
2015    3        7     1   4    6.0402   646.1    3.089      70.092
2015    3        7     1   9    6.0377   646.1    3.087      70.068
2015    3        7     1  15    6.0351   646.1    3.085      70.044
2015    3        7     1  20    6.0325   646.0    3.083      70.022
2015    3        7     1  25    6.0299   646.0    3.081      69.999
2015    3        7     1  30    6.0274   646.0    3.080      69.978
2015    3        7     1  35    6.0249   645.9    3.078      69.958
2015    3        7     1  41    6.0224   645.9    3.076      69.938
2015    3        7     1  46    6.0199   645.8    3.075      69.920
2015    3        7     1  51    6.0174   645.8    3.074      69.903
2015    3        7     1  56    6.0150   645.8    3.072      69.886
2015    3        7     2   1    6.0126   645.7    3.071      69.871
2015    3        7     2   7    6.0102   645.7    3.070      69.857
2015    3        7     2  12    6.0078   645.7    3.069      69.844
2015    3        7     2  17    6.0055   645.6    3.068      69.832
2015    3        7     2  22    6.0032   645.6    3.067      69.821
2015    3        7     2  27    6.0009   645.5    3.066      69.811
2015    3        7     2  33    5.9986   645.5    3.065      69.801
2015    3        7     2  38    5.9964   645.5    3.064      69.793
2015    3        7     2  43    5.9941   645.4    3.064      69.785
2015    3        7     2  48    5.9919   645.4    3.063      69.778
2015    3        7     2  53    5.9897   645.4    3.062      69.771
2015    3        7     2  59    5.9875   645.3    3.062      69.765
2015    3        7     3   4    5.9852   645.3    3.061      69.759
2015    3        7     3   9    5.9830   645.2    3.060      69.754
2015    3        7     3  14    5.9809   645.2    3.060      69.748
2015    3        7     3  19    5.9788   645.1    3.059      69.743
2015    3        7     3  25    5.9767   645.1    3.058      69.739
2015    3        7     3  30    5.9746   645.0    3.058      69.734
2015    3        7     3  35    5.9724   645.0    3.057      69.729
2015    3        7     3  40    5.9703   644.9    3.057      69.724
2015    3        7     3  45    5.9683   644.9    3.056      69.719
2015    3        7     3  50    5.9662   644.8    3.055      69.714
2015    3        7     3  56    5.9643   644.8    3.055      69.709
2015    3        7     4   1    5.9622   644.7    3.054      69.704
2015    3        7     4   6    5.9602   644.7    3.054      69.699
2015    3        7     4  11    5.9582   644.6    3.053      69.694
2015    3        7     4  16    5.9563   644.6    3.052      69.688
2015    3        7     4  22    5.9543   644.5    3.052      69.683
2015    3        7     4  27    5.9524   644.5    3.051      69.677
2015    3        7     4  32    5.9506   644.4    3.050      69.671
2015    3        7     4  37    5.9487   644.4    3.050      69.665
2015    3        7     4  42    5.9468   644.3    3.049      69.659
2015    3        7     4  48    5.9450   644.3    3.049      69.652
2015    3        7     4  53    5.9431   644.2    3.048      69.646
2015    3        7     4  58    5.9413   644.2    3.047      69.640
2015    3        7     5   3    5.9395   644.1    3.047      69.634
2015    3        7     5   8    5.9377   644.1    3.046      69.628
2015    3        7     5  14    5.9359   644.0    3.046      69.622
2015    3        7     5  19    5.9340   644.0    3.045      69.616
2015    3        7     5  24    5.9322   643.9    3.044      69.610
2015    3        7     5  29    5.9303   643.9    3.044      69.604
2015    3        7     5  34    5.9286   643.9    3.043      69.598
2015    3        7     5  40    5.9266   643.8    3.042      69.592
2015    3        7     5  45    5.9248   643.8    3.042      69.587
2015    3        7     5  50    5.9229   643.7    3.041      69.580
2015    3        7     5  55    5.9210   643.7    3.040      69.574
2015    3        7     6   0    5.9192   643.6    3.040      69.568
2015    3        7     6   6    5.9173   643.6    3.039      69.561
2015    3        7     6  11    5.9154   643.5    3.038      69.554
2015    3        7     6  16    5.9134   643.5    3.038      69.546
2015    3        7     6  21    5.9115   643.5    3.037      69.539
2015    3        7     6  26    5.9095   643.4    3.036      69.530
2015    3        7     6  32    5.9076   643.4    3.035      69.522
2015    3        7     6  37    5.9057   643.3    3.034      69.512
2015    3        7     6  42    5.9036   643.3    3.033      69.502
2015    3        7     6  47    5.9017   643.2    3.032      69.492
2015    3        7     6  52    5.8997   643.2    3.031      69.480
2015    3        7     6  58    5.8978   643.2    3.030      69.469
2015    3        7     7   3    5.8957   643.1    3.029      69.456
2015    3        7     7   8    5.8937   643.1    3.028      69.443
2015    3        7     7  13    5.8917   643.0    3.027      69.429
2015    3        7     7  18    5.8897   643.0    3.026      69.415
2015    3        7     7  23    5.8877   642.9    3.025      69.400
2015    3        7     7  29    5.8857   642.9    3.023      69.385
2015    3        7     7  34    5.8837   642.8    3.022      69.369
2015    3        7     7  39    5.8817   642.8    3.021      69.352
2015    3        7     7  44    5.8796   642.7    3.020      69.335
2015    3        7     7  49    5.8776   642.7    3.018      69.317
2015    3        7     7  55    5.8756   642.6    3.017      69.299
2015    3        7     8   0    5.8735   642.6    3.016      69.280
2015    3        7     8   5    5.8715   642.5    3.015      69.261
2015    3        7     8  10    5.8695   642.5    3.013      69.241
2015    3        7     8  15    5.8675   642.4    3.012      69.221
2015    3        7     8  21    5.8655   642.3    3.011      69.201
2015    3        7     8  26    5.8635   642.3    3.009      69.181
2015    3        7     8  31    5.8615   642.2    3.008      69.161
2015    3        7     8  36    5.8595   642.1    3.007      69.140
2015    3        7     8  41    5.8576   642.1    3.006      69.120
2015    3        7     8  47    5.8556   642.0    3.004      69.099
2015    3        7     8  52    5.8537   641.9    3.003      69.079
2015    3        7     8  57    5.8518   641.9    3.002      69.059
2015    3        7     9   2    5.8498   641.8    3.001      69.040
2015    3        7     9   7    5.8480   641.7    3.000      69.021
2015    3        7     9  13    5.8462   641.7    2.999      69.003
2015    3        7     9  18    5.8443   641.6    2.998      68.985
2015    3        7     9  23    5.8425   641.5    2.997      68.968
2015    3        7     9  28    5.8407   641.5    2.997      68.952
2015    3        7     9  33    5.8390   641.4    2.996      68.936
2015    3        7     9  39    5.8372   641.3    2.995      68.922
2015    3        7     9  44    5.8355   641.2    2.995      68.908
2015    3        7     9  49    5.8338   641.2    2.994      68.896
2015    3        7     9  54    5.8321   641.1    2.994      68.884
2015    3        7     9  59    5.8305   641.0    2.994      68.873
2015    3        7    10   5    5.8289   641.0    2.994      68.863
2015    3        7    10  10    5.8273   640.9    2.993      68.854
2015    3        7    10  15    5.8257   640.8    2.993      68.846
2015    3        7    10  20    5.8241   640.8    2.993      68.839
2015    3        7    10  25    5.8226   640.7    2.993      68.833
2015    3        7    10  31    5.8210   640.6    2.993      68.827
2015    3        7    10  36    5.8195   640.5    2.994      68.823
2015    3        7    10  41    5.8180   640.5    2.994      68.819
2015    3        7    10  46    5.8165   640.4    2.994      68.816
2015    3        7    10  51    5.8150   640.3    2.994      68.813
2015    3        7    10  57    5.8135   640.3    2.994      68.811
2015    3        7    11   2    5.8120   640.2    2.995      68.810
2015    3        7    11   7    5.8105   640.1    2.995      68.809
2015    3        7    11  12    5.8090   640.1    2.995      68.810
2015    3        7    11  17    5.8075   640.0    2.996      68.811
2015    3        7    11  23    5.8060   639.9    2.996      68.813
2015    3        7    11  28    5.8045   639.8    2.996      68.815
2015    3        7    11  33    5.8030   639.8    2.997      68.817
2015    3        7    11  38    5.8015   639.7    2.997      68.820
2015    3        7    11  43    5.8000   639.6    2.997      68.822
2015    3        7    11  48    5.7985   639.6    2.997      68.825
2015    3        7    11  54    5.7969   639.5    2.998      68.827
2015    3        7    11  59    5.7955   639.4    2.998      68.829
2015    3        7    12   4    5.7939   639.4    2.998      68.831
2015    3        7    12   9    5.7925   639.3    2.998      68.833
2015    3        7    12  14    5.7910   639.2    2.998      68.833
2015    3        7    12  20    5.7894   639.2    2.998      68.834
2015    3        7    12  25    5.7880   639.1    2.998      68.833
2015    3        7    12  30    5.7866   639.0    2.998      68.832
2015    3        7    12  35    5.7850   638.9    2.998      68.831
2015    3        7    12  40    5.7836   638.9    2.998      68.829
2015    3        7    12  46    5.7822   638.8    2.997      68.827
2015    3        7    12  51    5.7807   638.7    2.997      68.824
2015    3        7    12  56    5.7793   638.7    2.997      68.821
2015    3        7    13   1    5.7778   638.6    2.997      68.818
2015    3        7    13   6    5.7765   638.5    2.997      68.814
2015    3        7    13  12    5.7750   638.4    2.996      68.810
2015    3        7    13  17    5.7736   638.4    2.996      68.805
2015    3        7    13  22    5.7722   638.3    2.996      68.800
2015    3        7    13  27    5.7708   638.2    2.995      68.794
2015    3        7    13  32    5.7694   638.2    2.995      68.789
2015    3        7    13  38    5.7680   638.1    2.995      68.782
2015    3        7    13  43    5.7666   638.0    2.994      68.776
2015    3        7    13  48    5.7652   637.9    2.994      68.769
2015    3        7    13  53    5.7638   637.9    2.993      68.761
2015    3        7    13  58    5.7625   637.8    2.993      68.754
2015    3        7    14   4    5.7611   637.7    2.992      68.746
2015    3        7    14   9    5.7598   637.7    2.992      68.738
2015    3        7    14  14    5.7584   637.6    2.991      68.730
2015    3        7    14  19    5.7571   637.5    2.991      68.721
2015    3        7    14  24    5.7558   637.5    2.990      68.713
2015    3        7    14  30    5.7544   637.4    2.990      68.704
2015    3        7    14  35    5.7531   637.3    2.989      68.695
2015    3        7    14  40    5.7518   637.3    2.989      68.686
2015    3        7    14  45    5.7504   637.2    2.988      68.677
2015    3        7    14  50    5.7491   637.1    2.988      68.667
2015    3        7    14  55    5.7477   637.1    2.987      68.658
2015    3        7    15   1    5.7464   637.0    2.987      68.648
2015    3        7    15   6    5.7450   637.0    2.986      68.639
2015    3        7    15  11    5.7437   636.9    2.986      68.629
2015    3        7    15  16    5.7424   636.8    2.985      68.619
2015    3        7    15  21    5.7409   636.8    2.985      68.609
2015    3        7    15  27    5.7396   636.7    2.984      68.599
2015    3        7    15  32    5.7383   636.6    2.984      68.588
2015    3        7    15  37    5.7369   636.6    2.983      68.578
2015    3        7    15  42    5.7355   636.5    2.983      68.567
2015    3        7    15  47    5.7341   636.5    2.982      68.556
2015    3        7    15  53    5.7328   636.4    2.981      68.545
2015    3        7    15  58    5.7314   636.3    2.981      68.534
2015    3        7    16   3    5.7300   636.3    2.980      68.523
2015    3        7    16   8    5.7286   636.2    2.980      68.511
2015    3        7    16  13    5.7271   636.1    2.979      68.499
2015    3        7    16  19    5.7257   636.1    2.979      68.488
2015    3        7    16  24    5.7243   636.0    2.978      68.476
2015    3        7    16  29    5.7229   636.0    2.978      68.464
2015    3        7    16  34    5.7214   635.9    2.977      68.452
2015    3        7    16  39    5.7200   635.8    2.977      68.440
2015    3        7    16  45    5.7185   635.8    2.977      68.428
2015    3        7    16  50    5.7171   635.7    2.976      68.416
2015    3        7    16  55    5.7156   635.6    2.976      68.404
2015    3        7    17   0    5.7142   635.6    2.976      68.393
2015    3        7    17   5    5.7127   635.5    2.975      68.382
2015    3        7    17  11    5.7113   635.4    2.975      68.371
2015    3        7    17  16    5.7099   635.3    2.975      68.361
2015    3        7    17  21    5.7085   635.3    2.975      68.352
2015    3        7    17  26    5.7071   635.2    2.975      68.342
2015    3        7    17  31    5.7057   635.1    2.974      68.334
2015    3        7    17  37    5.7043   635.1    2.974      68.327
2015    3        7    17  42    5.7029   635.0    2.975      68.320
2015    3        7    17  47    5.7016   634.9    2.975      68.314
2015    3        7    17  52    5.7003   634.8    2.975      68.309
2015    3        7    17  57    5.6990   634.8    2.975      68.305
2015    3        7    18   3    5.6978   634.7    2.975      68.303
2015    3        7    18   8    5.6965   634.6    2.976      68.301
2015    3        7    18  13    5.6953   634.6    2.976      68.300
2015    3        7    18  18    5.6941   634.5    2.977      68.300
2015    3        7    18  23    5.6929   634.4    2.977      68.301
2015    3        7    18  29    5.6918   634.4    2.978      68.304
2015    3        7    18  34    5.6907   634.3    2.979      68.307
2015    3        7    18  39    5.6896   634.2    2.979      68.311
2015    3        7    18  44    5.6885   634.2    2.980      68.317
2015    3        7    18  49    5.6874   634.1    2.981      68.323
2015    3        7    18  55    5.6863   634.0    2.982      68.330
2015    3        7    19   0    5.6852   634.0    2.983      68.338
2015    3        7    19   5    5.6842   633.9    2.984      68.348
2015    3        7    19  10    5.6832   633.9    2.985      68.359
2015    3        7    19  15    5.6820   633.8    2.986      68.370
2015    3        7    19  21    5.6810   633.8    2.986      68.382
2015    3        7    19  26    5.6799   633.7    2.987      68.393
2015    3        7    19  31    5.6788   633.6    2.988      68.405
2015    3        7    19  36    5.6776   633.6    2.989      68.416
2015    3        7    19  41    5.6766   633.5    2.989      68.427
2015    3        7    19  46    5.6754   633.5    2.990      68.438
2015    3        7    19  52    5.6743   633.4    2.990      68.448
2015    3        7    19  57    5.6731   633.4    2.991      68.456
2015    3        7    20   2    5.6720   633.3    2.991      68.464
2015    3        7    20   7    5.6708   633.3    2.992      68.470
2015    3        7    20  12    5.6696   633.2    2.992      68.475
2015    3        7    20  18    5.6684   633.2    2.992      68.479
2015    3        7    20  23    5.6672   633.1    2.992      68.482
2015    3        7    20  28    5.6660   633.0    2.992      68.485
2015    3        7    20  33    5.6649   633.0    2.992      68.486
2015    3        7    20  38    5.6637   632.9    2.992      68.486
2015    3        7    20  44    5.6625   632.9    2.992      68.486
2015    3        7    20  49    5.6613   632.8    2.992      68.485
2015    3        7    20  54    5.6601   632.8    2.992      68.483
2015    3        7    20  59    5.6589   632.7    2.992      68.481
2015    3        7    21   4    5.6577   632.6    2.992      68.478
2015    3        7    21  10    5.6565   632.6    2.991      68.474
2015    3        7    21  15    5.6553   632.5    2.991      68.470
2015    3        7    21  20    5.6541   632.5    2.991      68.466
2015    3        7    21  25    5.6529   632.4    2.991      68.461
2015    3        7    21  30    5.6517   632.3    2.990      68.456
2015    3        7    21  36    5.6505   632.3    2.990      68.450
2015    3        7    21  41    5.6492   632.2    2.990      68.445
2015    3        7    21  46    5.6480   632.2    2.989      68.439
2015    3        7    21  51    5.6468   632.1    2.989      68.432
2015    3        7    21  56    5.6456   632.0    2.989      68.425
2015    3        7    22   2    5.6443   632.0    2.988      68.418
2015    3        7    22   7    5.6431   631.9    2.988      68.411
2015    3        7    22  12    5.6419   631.9    2.988      68.403
2015    3        7    22  17    5.6406   631.8    2.987      68.395
2015    3        7    22  22    5.6394   631.8    2.987      68.386
2015    3        7    22  28    5.6381   631.7    2.986      68.377
2015    3        7    22  33    5.6368   631.6    2.986      68.368
2015    3        7    22  38    5.6356   631.6    2.985      68.358
2015    3        7    22  43    5.6343   631.5    2.985      68.348
2015    3        7    22  48    5.6330   631.5    2.984      68.338
2015    3        7    22  54    5.6317   631.4    2.984      68.326
2015    3        7    22  59    5.6304   631.3    2.983      68.315
2015    3        7    23   4    5.6290   631.3    2.983      68.303
2015    3        7    23   9    5.6277   631.2    2.982      68.290
2015    3        7    23  14    5.6264   631.2    2.981      68.277
2015    3        7    23  20    5.6251   631.1    2.981      68.264
2015    3        7    23  25    5.6238   631.0    2.980      68.250
2015    3        7    23  30    5.6224   631.0    2.980      68.236
2015    3        7    23  35    5.6211   630.9    2.979      68.221
2015    3        7    23  40    5.6197   630.8    2.978      68.206
2015    3        7    23  45    5.6184   630.8    2.978      68.191
2015    3        7    23  51    5.6170   630.7    2.977      68.176
2015    3        7    23  56    5.6158   630.6    2.976      68.160
2015    3        8     0   1    5.6144   630.6    2.976      68.145
2015    3        8     0   6    5.6131   630.5    2.975      68.130
2015    3        8     0  11    5.6118   630.4    2.975      68.114
2015    3        8     0  17    5.6105   630.4    2.974      68.099
2015    3        8     0  22    5.6092   630.3    2.973      68.085
2015    3        8     0  27    5.6079   630.2    2.973      68.070
2015    3        8     0  32    5.6067   630.2    2.972      68.056
2015    3        8     0  37    5.6054   630.1    2.972      68.043
2015    3        8     0  43    5.6042   630.0    2.972      68.029
2015    3        8     0  48    5.6029   630.0    2.971      68.017
2015    3        8     0  53    5.6017   629.9    2.971      68.005
2015    3        8     0  58    5.6005   629.8    2.971      67.994
2015    3        8     1   3    5.5993   629.7    2.971      67.984
2015    3        8     1   9    5.5982   629.7    2.971      67.975
2015    3        8     1  14    5.5970   629.6    2.971      67.966
2015    3        8     1  19    5.5959   629.5    2.971      67.958
2015    3        8     1  24    5.5948   629.5    2.971      67.952
2015    3        8     1  29    5.5936   629.4    2.971      67.946
2015    3        8     1  35    5.5925   629.3    2.971      67.941
2015    3        8     1  40    5.5915   629.3    2.972      67.938
2015    3        8     1  45    5.5904   629.2    2.972      67.935
2015    3        8     1  50    5.5894   629.1    2.972      67.933
2015    3        8     1  55    5.5884   629.0    2.973      67.933
2015    3        8     2   1    5.5874   629.0    2.974      67.934
2015    3        8     2   6    5.5864   628.9    2.974      67.936
2015    3        8     2  11    5.5854   628.8    2.975      67.939
2015    3        8     2  16    5.5844   628.8    2.976      67.944
2015    3        8     2  21    5.5835   628.7    2.977      67.951
2015    3        8     2  27    5.5825   628.7    2.978      67.960
2015    3        8     2  32    5.5815   628.6    2.979      67.969
2015    3        8     2  37    5.5805   628.6    2.980      67.980
2015    3        8     2  42    5.5795   628.5    2.981      67.992
2015    3        8     2  47    5.5785   628.5    2.982      68.004
2015    3        8     2  53    5.5775   628.4    2.983      68.017
2015    3        8     2  58    5.5764   628.4    2.984      68.030
2015    3        8     3   3    5.5753   628.3    2.985      68.043
2015    3        8     3   8    5.5742   628.3    2.986      68.055
2015    3        8     3  13    5.5731   628.2    2.986      68.068
2015    3        8     3  19    5.5719   628.2    2.987      68.079
2015    3        8     3  24    5.5707   628.1    2.988      68.090
2015    3        8     3  29    5.5694   628.1    2.989      68.099
2015    3        8     3  34    5.5682   628.0    2.989      68.108
2015    3        8     3  39    5.5669   628.0    2.990      68.117
2015    3        8     3  44    5.5656   627.9    2.990      68.124
2015    3        8     3  50    5.5643   627.9    2.991      68.130
2015    3        8     3  55    5.5630   627.8    2.991      68.136
2015    3        8     4   0    5.5616   627.7    2.991      68.140
2015    3        8     4   5    5.5602   627.7    2.992      68.144
2015    3        8     4  10    5.5589   627.6    2.992      68.147
2015    3        8     4  16    5.5575   627.6    2.992      68.149
2015    3        8     4  21    5.5561   627.5    2.993      68.151
2015    3        8     4  26    5.5547   627.5    2.993      68.151
2015    3        8     4  31    5.5533   627.4    2.993      68.151
2015    3        8     4  36    5.5518   627.3    2.993      68.150
2015    3        8     4  42    5.5504   627.3    2.993      68.148
2015    3        8     4  47    5.5490   627.2    2.993      68.146
2015    3        8     4  52    5.5475   627.1    2.993      68.142
2015    3        8     4  57    5.5461   627.1    2.993      68.139
2015    3        8     5   2    5.5446   627.0    2.993      68.134
2015    3        8     5   8    5.5432   627.0    2.993      68.129
2015    3        8     5  13    5.5417   626.9    2.993      68.123
2015    3        8     5  18    5.5403   626.8    2.993      68.117
2015    3        8     5  23    5.5388   626.8    2.993      68.110
2015    3        8     5  28    5.5374   626.7    2.992      68.102
2015    3        8     5  34    5.5359   626.6    2.992      68.094
2015    3        8     5  39    5.5345   626.6    2.992      68.086
2015    3        8     5  44    5.5331   626.5    2.992      68.078
2015    3        8     5  49    5.5316   626.4    2.992      68.069
2015    3        8     5  54    5.5302   626.3    2.991      68.059
2015    3        8     6   0    5.5288   626.3    2.991      68.050
2015    3        8     6   5    5.5274   626.2    2.991      68.041
2015    3        8     6  10    5.5260   626.1    2.991      68.031
2015    3        8     6  15    5.5246   626.1    2.991      68.021
2015    3        8     6  20    5.5233   626.0    2.990      68.012
2015    3        8     6  26    5.5219   625.9    2.990      68.002
2015    3        8     6  31    5.5206   625.9    2.990      67.992
2015    3        8     6  36    5.5192   625.8    2.990      67.983
2015    3        8     6  41    5.5179   625.7    2.990      67.973
2015    3        8     6  46    5.5166   625.7    2.990      67.964
2015    3        8     6  52    5.5153   625.6    2.989      67.954
2015    3        8     6  57    5.5141   625.5    2.989      67.945
2015    3        8     7   2    5.5128   625.5    2.989      67.935
2015    3        8     7   7    5.5115   625.4    2.989      67.925
2015    3        8     7  12    5.5102   625.3    2.989      67.916
2015    3        8     7  18    5.5089   625.3    2.989      67.906
2015    3        8     7  23    5.5077   625.2    2.988      67.896
2015    3        8     7  28    5.5064   625.2    2.988      67.886
2015    3        8     7  33    5.5052   625.1    2.988      67.876
2015    3        8     7  38    5.5039   625.0    2.988      67.865
2015    3        8     7  43    5.5027   625.0    2.988      67.855
2015    3        8     7  49    5.5014   624.9    2.988      67.844
2015    3        8     7  54    5.5002   624.8    2.988      67.833
2015    3        8     7  59    5.4989   624.8    2.988      67.822
2015    3        8     8   4    5.4977   624.7    2.987      67.811
2015    3        8     8   9    5.4964   624.6    2.987      67.800
2015    3        8     8  15    5.4952   624.6    2.987      67.788
2015    3        8     8  20    5.4939   624.5    2.987      67.777
2015    3        8     8  25    5.4927   624.5    2.987      67.765
2015    3        8     8  30    5.4914   624.4    2.987      67.754
2015    3        8     8  35    5.4901   624.3    2.987      67.742
2015    3        8     8  41    5.4889   624.3    2.987      67.730
2015    3        8     8  46    5.4876   624.2    2.987      67.719
2015    3        8     8  51    5.4863   624.1    2.987      67.707
2015    3        8     8  56    5.4851   624.0    2.986      67.695
2015    3        8     9   1    5.4838   624.0    2.986      67.684
2015    3        8     9   7    5.4825   623.9    2.986      67.673
2015    3        8     9  12    5.4812   623.8    2.986      67.662
2015    3        8     9  17    5.4799   623.8    2.986      67.652
2015    3        8     9  22    5.4787   623.7    2.986      67.642
2015    3        8     9  27    5.4774   623.6    2.986      67.632
2015    3        8     9  33    5.4761   623.5    2.986      67.623
2015    3        8     9  38    5.4748   623.5    2.986      67.615
2015    3        8     9  43    5.4735   623.4    2.986      67.606
2015    3        8     9  48    5.4722   623.3    2.987      67.599
2015    3        8     9  53    5.4710   623.2    2.987      67.592
2015    3        8     9  59    5.4697   623.2    2.987      67.586
2015    3        8    10   4    5.4683   623.1    2.987      67.581
2015    3        8    10   9    5.4671   623.0    2.987      67.576
2015    3        8    10  14    5.4657   622.9    2.987      67.571
2015    3        8    10  19    5.4645   622.9    2.988      67.567
2015    3        8    10  25    5.4631   622.8    2.988      67.564
2015    3        8    10  30    5.4618   622.7    2.988      67.562
2015    3        8    10  35    5.4605   622.6    2.988      67.559
2015    3        8    10  40    5.4592   622.5    2.989      67.558
2015    3        8    10  45    5.4577   622.5    2.989      67.556
2015    3        8    10  51    5.4564   622.4    2.989      67.555
2015    3        8    10  56    5.4550   622.3    2.990      67.555
2015    3        8    11   1    5.4536   622.2    2.990      67.554
2015    3        8    11   6    5.4522   622.1    2.990      67.553
2015    3        8    11  11    5.4508   622.1    2.990      67.553
2015    3        8    11  17    5.4493   622.0    2.991      67.552
2015    3        8    11  22    5.4479   621.9    2.991      67.551
2015    3        8    11  27    5.4465   621.8    2.991      67.550
2015    3        8    11  32    5.4450   621.7    2.992      67.550
2015    3        8    11  37    5.4435   621.6    2.992      67.548
2015    3        8    11  42    5.4421   621.6    2.992      67.547
2015    3        8    11  48    5.4406   621.5    2.992      67.545
2015    3        8    11  53    5.4391   621.4    2.993      67.543
2015    3        8    11  58    5.4376   621.3    2.993      67.541
2015    3        8    12   3    5.4361   621.2    2.993      67.539
2015    3        8    12   8    5.4346   621.1    2.994      67.536
2015    3        8    12  14    5.4332   621.1    2.994      67.533
2015    3        8    12  19    5.4317   621.0    2.994      67.530
2015    3        8    12  24    5.4302   620.9    2.995      67.526
2015    3        8    12  29    5.4287   620.8    2.995      67.522
2015    3        8    12  34    5.4272   620.7    2.995      67.518
2015    3        8    12  40    5.4257   620.6    2.995      67.514
2015    3        8    12  45    5.4242   620.6    2.996      67.509
2015    3        8    12  50    5.4228   620.5    2.996      67.504
2015    3        8    12  55    5.4213   620.4    2.996      67.499
2015    3        8    13   0    5.4198   620.3    2.997      67.493
2015    3        8    13   6    5.4183   620.2    2.997      67.487
2015    3        8    13  11    5.4168   620.2    2.997      67.480
2015    3        8    13  16    5.4154   620.1    2.998      67.474
2015    3        8    13  21    5.4139   620.0    2.998      67.466
2015    3        8    13  26    5.4124   619.9    2.998      67.459
2015    3        8    13  32    5.4109   619.9    2.998      67.451
2015    3        8    13  37    5.4094   619.8    2.999      67.443
2015    3        8    13  42    5.4079   619.7    2.999      67.434
2015    3        8    13  47    5.4065   619.6    2.999      67.424
2015    3        8    13  52    5.4050   619.5    2.999      67.414
2015    3        8    13  58    5.4035   619.5    3.000      67.404
2015    3        8    14   3    5.4020   619.4    3.000      67.393
2015    3        8    14   8    5.4005   619.3    3.000      67.382
2015    3        8    14  13    5.3990   619.2    3.000      67.370
2015    3        8    14  18    5.3975   619.2    3.000      67.358
2015    3        8    14  24    5.3960   619.1    3.000      67.344
2015    3        8    14  29    5.3945   619.0    3.000      67.331
2015    3        8    14  34    5.3930   618.9    3.001      67.317
2015    3        8    14  39    5.3915   618.9    3.001      67.303
2015    3        8    14  44    5.3900   618.8    3.001      67.288
2015    3        8    14  50    5.3885   618.7    3.001      67.273
2015    3        8    14  55    5.3870   618.6    3.001      67.257
2015    3        8    15   0    5.3855   618.5    3.001      67.242
2015    3        8    15   5    5.3840   618.4    3.001      67.226
2015    3        8    15  10    5.3825   618.4    3.001      67.210
2015    3        8    15  16    5.3810   618.3    3.001      67.193
2015    3        8    15  21    5.3795   618.2    3.001      67.177
2015    3        8    15  26    5.3780   618.1    3.001      67.160
2015    3        8    15  31    5.3765   618.0    3.001      67.144
2015    3        8    15  36    5.3750   617.9    3.001      67.127
2015    3        8    15  41    5.3735   617.9    3.001      67.111
2015    3        8    15  47    5.3720   617.8    3.001      67.094
2015    3        8    15  52    5.3705   617.7    3.001      67.078
2015    3        8    15  57    5.3691   617.6    3.001      67.062
2015    3        8    16   2    5.3676   617.5    3.001      67.046
2015    3        8    16   7    5.3661   617.4    3.002      67.031
2015    3        8    16  13    5.3646   617.3    3.002      67.016
2015    3        8    16  18    5.3631   617.2    3.002      67.001
2015    3        8    16  23    5.3617   617.2    3.002      66.986
2015    3        8    16  28    5.3602   617.1    3.002      66.972
2015    3        8    16  33    5.3587   617.0    3.003      66.958
2015    3        8    16  39    5.3572   616.9    3.003      66.945
2015    3        8    16  44    5.3557   616.8    3.003      66.933
2015    3        8    16  49    5.3542   616.7    3.004      66.921
2015    3        8    16  54    5.3527   616.6    3.004      66.910
2015    3        8    16  59    5.3512   616.5    3.004      66.900
2015    3        8    17   5    5.3497   616.4    3.005      66.890
2015    3        8    17  10    5.3482   616.3    3.005      66.881
2015    3        8    17  15    5.3467   616.2    3.005      66.873
2015    3        8    17  20    5.3452   616.1    3.006      66.864
2015    3        8    17  25    5.3436   616.1    3.006      66.857
2015    3        8    17  31    5.3421   616.0    3.007      66.850
2015    3        8    17  36    5.3406   615.9    3.007      66.843
2015    3        8    17  41    5.3390   615.8    3.007      66.836
2015    3        8    17  46    5.3374   615.7    3.008      66.830
2015    3        8    17  51    5.3359   615.6    3.008      66.824
2015    3        8    17  57    5.3343   615.5    3.008      66.817
2015    3        8    18   2    5.3327   615.4    3.009      66.811
2015    3        8    18   7    5.3312   615.3    3.009      66.805
2015    3        8    18  12    5.3296   615.2    3.009      66.799
2015    3        8    18  17    5.3280   615.1    3.010      66.792
2015    3        8    18  23    5.3264   615.0    3.010      66.785
2015    3        8    18  28    5.3249   614.9    3.010      66.779
2015    3        8    18  33    5.3233   614.8    3.011      66.772
2015    3        8    18  38    5.3217   614.7    3.011      66.764
2015    3        8    18  43    5.3201   614.6    3.011      66.757
2015    3        8    18  49    5.3185   614.5    3.011      66.750
2015    3        8    18  54    5.3169   614.4    3.012      66.742
2015    3        8    18  59    5.3153   614.3    3.012      66.734
2015    3        8    19   4    5.3137   614.1    3.012      66.726
2015    3        8    19   9    5.3121   614.0    3.012      66.718
2015    3        8    19  14    5.3105   613.9    3.012      66.709
2015    3        8    19  20    5.3089   613.8    3.013      66.700
2015    3        8    19  25    5.3073   613.7    3.013      66.691
2015    3        8    19  30    5.3057   613.6    3.013      66.682
2015    3        8    19  35    5.3041   613.5    3.013      66.672
2015    3        8    19  40    5.3025   613.4    3.013      66.662
2015    3        8    19  46    5.3009   613.3    3.013      66.652
2015    3        8    19  51    5.2993   613.2    3.013      66.641
2015    3        8    19  56    5.2978   613.1    3.013      66.630
2015    3        8    20   1    5.2962   613.0    3.014      66.619
2015    3        8    20   6    5.2947   612.9    3.014      66.608
2015    3        8    20  12    5.2931   612.8    3.014      66.596
2015    3        8    20  17    5.2916   612.7    3.014      66.584
2015    3        8    20  22    5.2901   612.6    3.014      66.571
2015    3        8    20  27    5.2885   612.5    3.014      66.558
2015    3        8    20  32    5.2870   612.4    3.015      66.544
2015    3        8    20  38    5.2854   612.3    3.015      66.530
2015    3        8    20  43    5.2839   612.2    3.015      66.516
2015    3        8    20  48    5.2824   612.0    3.015      66.501
2015    3        8    20  53    5.2809   611.9    3.015      66.485
2015    3        8    20  58    5.2793   611.8    3.015      66.469
2015    3        8    21   4    5.2778   611.7    3.016      66.453
2015    3        8    21   9    5.2763   611.6    3.016      66.436
2015    3        8    21  14    5.2747   611.5    3.016      66.418
2015    3        8    21  19    5.2732   611.4    3.016      66.400
2015    3        8    21  24    5.2716   611.3    3.016      66.382
2015    3        8    21  30    5.2701   611.2    3.016      66.362
2015    3        8    21  35    5.2685   611.1    3.017      66.343
2015    3        8    21  40    5.2669   611.0    3.017      66.323
2015    3        8    21  45    5.2653   610.9    3.017      66.302
2015    3        8    21  50    5.2637   610.8    3.017      66.281
2015    3        8    21  56    5.2622   610.6    3.017      66.260
2015    3        8    22   1    5.2606   610.5    3.017      66.237
2015    3        8    22   6    5.2590   610.4    3.017      66.215
2015    3        8    22  11    5.2574   610.3    3.018      66.192
2015    3        8    22  16    5.2558   610.2    3.018      66.170
2015    3        8    22  22    5.2542   610.1    3.018      66.146
2015    3        8    22  27    5.2526   609.9    3.018      66.123
2015    3        8    22  32    5.2510   609.8    3.018      66.100
2015    3        8    22  37    5.2494   609.7    3.018      66.076
2015    3        8    22  42    5.2478   609.6    3.018      66.052
2015    3        8    22  48    5.2463   609.5    3.019      66.029
2015    3        8    22  53    5.2447   609.3    3.019      66.005
2015    3        8    22  58    5.2431   609.2    3.019      65.982
2015    3        8    23   3    5.2416   609.1    3.019      65.959
2015    3        8    23   8    5.2400   609.0    3.020      65.936
2015    3        8    23  14    5.2385   608.9    3.020      65.913
2015    3        8    23  19    5.2369   608.7    3.020      65.891
2015    3        8    23  24    5.2354   608.6    3.021      65.869
2015    3        8    23  29    5.2338   608.5    3.021      65.847
2015    3        8    23  34    5.2322   608.4    3.022      65.826
2015    3        8    23  39    5.2307   608.2    3.022      65.805
2015    3        8    23  45    5.2292   608.1    3.023      65.785
2015    3        8    23  50    5.2276   608.0    3.023      65.765
2015    3        8    23  55    5.2260   607.9    3.024      65.745
2015    3        9     0   0    5.2245   607.7    3.024      65.726
2015    3        9     0   5    5.2229   607.6    3.025      65.708
2015    3        9     0  11    5.2213   607.5    3.025      65.690
2015    3        9     0  16    5.2197   607.4    3.026      65.672
2015    3        9     0  21    5.2181   607.2    3.027      65.655
2015    3        9     0  26    5.2165   607.1    3.027      65.638
2015    3        9     0  31    5.2149   607.0    3.028      65.622
2015    3        9     0  37    5.2133   606.9    3.029      65.606
2015    3        9     0  42    5.2116   606.7    3.030      65.591
2015    3        9     0  47    5.2100   606.6    3.030      65.576
2015    3        9     0  52    5.2083   606.5    3.031      65.562
2015    3        9     0  57    5.2066   606.3    3.032      65.548
2015    3        9     1   3    5.2050   606.2    3.033      65.535
2015    3        9     1   8    5.2033   606.1    3.034      65.522
2015    3        9     1  13    5.2016   606.0    3.035      65.510
2015    3        9     1  18    5.1999   605.8    3.035      65.498
2015    3        9     1  23    5.1982   605.7    3.036      65.486
2015    3        9     1  29    5.1966   605.6    3.037      65.475
2015    3        9     1  34    5.1949   605.4    3.038      65.464
2015    3        9     1  39    5.1932   605.3    3.039      65.454
2015    3        9     1  44    5.1915   605.2    3.040      65.444
2015    3        9     1  49    5.1898   605.0    3.041      65.434
2015    3        9     1  55    5.1882   604.9    3.042      65.425
2015    3        9     2   0    5.1865   604.8    3.043      65.416
2015    3        9     2   5    5.1848   604.6    3.043      65.408
2015    3        9     2  10    5.1831   604.5    3.044      65.399
2015    3        9     2  15    5.1815   604.4    3.045      65.391
2015    3        9     2  21    5.1798   604.2    3.046      65.382
2015    3        9     2  26    5.1781   604.1    3.047      65.374
2015    3        9     2  31    5.1765   604.0    3.048      65.366
2015    3        9     2  36    5.1748   603.8    3.049      65.358
2015    3        9     2  41    5.1732   603.7    3.050      65.349
2015    3        9     2  46    5.1716   603.6    3.051      65.341
2015    3        9     2  52    5.1700   603.4    3.051      65.332
2015    3        9     2  57    5.1683   603.3    3.052      65.323
2015    3        9     3   2    5.1667   603.2    3.053      65.314
2015    3        9     3   7    5.1651   603.0    3.054      65.305
2015    3        9     3  12    5.1636   602.9    3.055      65.295
2015    3        9     3  18    5.1620   602.7    3.056      65.285
2015    3        9     3  23    5.1604   602.6    3.056      65.274
2015    3        9     3  28    5.1589   602.5    3.057      65.263
2015    3        9     3  33    5.1574   602.3    3.058      65.252
2015    3        9     3  38    5.1558   602.2    3.058      65.240
2015    3        9     3  44    5.1543   602.0    3.059      65.227
2015    3        9     3  49    5.1528   601.9    3.060      65.214
2015    3        9     3  54    5.1513   601.7    3.060      65.200
2015    3        9     3  59    5.1498   601.6    3.061      65.185
2015    3        9     4   4    5.1483   601.5    3.062      65.170
2015    3        9     4  10    5.1469   601.3    3.062      65.154
2015    3        9     4  15    5.1455   601.2    3.063      65.138
2015    3        9     4  20    5.1441   601.0    3.063      65.121
2015    3        9     4  25    5.1426   600.9    3.064      65.103
2015    3        9     4  30    5.1413   600.7    3.064      65.085
2015    3        9     4  36    5.1399   600.6    3.065      65.066
2015    3        9     4  41    5.1385   600.4    3.065      65.046
2015    3        9     4  46    5.1371   600.3    3.066      65.025
2015    3        9     4  51    5.1358   600.2    3.066      65.004
2015    3        9     4  56    5.1344   600.0    3.067      64.983
2015    3        9     5   2    5.1330   599.9    3.067      64.960
2015    3        9     5   7    5.1317   599.7    3.068      64.937
2015    3        9     5  12    5.1303   599.6    3.068      64.914
2015    3        9     5  17    5.1290   599.4    3.068      64.890
2015    3        9     5  22    5.1276   599.3    3.069      64.865
2015    3        9     5  28    5.1263   599.1    3.069      64.840
2015    3        9     5  33    5.1249   599.0    3.069      64.814
2015    3        9     5  38    5.1235   598.9    3.070      64.788
2015    3        9     5  43    5.1221   598.7    3.070      64.761
2015    3        9     5  48    5.1207   598.6    3.070      64.734
2015    3        9     5  54    5.1193   598.4    3.071      64.707
2015    3        9     5  59    5.1178   598.3    3.071      64.678
2015    3        9     6   4    5.1164   598.1    3.071      64.650
2015    3        9     6   9    5.1149   598.0    3.072      64.621
2015    3        9     6  14    5.1134   597.8    3.072      64.592
2015    3        9     6  20    5.1119   597.7    3.072      64.562
2015    3        9     6  25    5.1104   597.5    3.072      64.532
2015    3        9     6  30    5.1089   597.4    3.073      64.502
2015    3        9     6  35    5.1074   597.2    3.073      64.472
2015    3        9     6  40    5.1059   597.1    3.073      64.442
2015    3        9     6  46    5.1043   596.9    3.073      64.412
2015    3        9     6  51    5.1028   596.8    3.074      64.382
2015    3        9     6  56    5.1012   596.6    3.074      64.352
2015    3        9     7   1    5.0996   596.5    3.074      64.322
2015    3        9     7   6    5.0980   596.3    3.075      64.292
2015    3        9     7  12    5.0964   596.2    3.075      64.262
2015    3        9     7  17    5.0949   596.0    3.075      64.233
2015    3        9     7  22    5.0932   595.8    3.076      64.204
2015    3        9     7  27    5.0916   595.7    3.076      64.176
2015    3        9     7  32    5.0900   595.5    3.077      64.147
2015    3        9     7  37    5.0884   595.4    3.077      64.120
2015    3        9     7  43    5.0868   595.2    3.078      64.093
2015    3        9     7  48    5.0851   595.1    3.079      64.067
2015    3        9     7  53    5.0835   594.9    3.080      64.041
2015    3        9     7  58    5.0819   594.7    3.080      64.016
2015    3        9     8   3    5.0802   594.6    3.081      63.991
2015    3        9     8   9    5.0786   594.4    3.082      63.968
2015    3        9     8  14    5.0770   594.2    3.083      63.945
2015    3        9     8  19    5.0753   594.1    3.084      63.922
2015    3        9     8  24    5.0737   593.9    3.085      63.901
2015    3        9     8  29    5.0720   593.8    3.086      63.880
2015    3        9     8  35    5.0704   593.6    3.087      63.860
2015    3        9     8  40    5.0688   593.4    3.089      63.841
2015    3        9     8  45    5.0671   593.3    3.090      63.822
2015    3        9     8  50    5.0655   593.1    3.091      63.804
2015    3        9     8  55    5.0639   592.9    3.093      63.787
2015    3        9     9   1    5.0622   592.8    3.094      63.770
2015    3        9     9   6    5.0606   592.6    3.095      63.754
2015    3        9     9  11    5.0590   592.4    3.097      63.739
2015    3        9     9  16    5.0573   592.3    3.098      63.723
2015    3        9     9  21    5.0557   592.1    3.100      63.709
2015    3        9     9  27    5.0541   591.9    3.101      63.694
2015    3        9     9  32    5.0525   591.7    3.103      63.680
2015    3        9     9  37    5.0509   591.6    3.105      63.667
2015    3        9     9  42    5.0493   591.4    3.106      63.653
2015    3        9     9  47    5.0477   591.2    3.108      63.640
2015    3        9     9  53    5.0461   591.1    3.109      63.627
2015    3        9     9  58    5.0446   590.9    3.111      63.614
2015    3        9    10   3    5.0430   590.7    3.112      63.601
2015    3        9    10   8    5.0415   590.5    3.114      63.589
2015    3        9    10  13    5.0400   590.4    3.116      63.576
2015    3        9    10  19    5.0384   590.2    3.117      63.563
2015    3        9    10  24    5.0370   590.0    3.119      63.550
2015    3        9    10  29    5.0355   589.8    3.120      63.537
2015    3        9    10  34    5.0340   589.6    3.122      63.523
2015    3        9    10  39    5.0326   589.5    3.123      63.510
2015    3        9    10  44    5.0311   589.3    3.125      63.496
2015    3        9    10  50    5.0297   589.1    3.126      63.482
2015    3        9    10  55    5.0283   588.9    3.127      63.467
2015    3        9    11   0    5.0269   588.7    3.129      63.452
2015    3        9    11   5    5.0256   588.6    3.130      63.437
2015    3        9    11  10    5.0242   588.4    3.132      63.421
2015    3        9    11  16    5.0229   588.2    3.133      63.405
2015    3        9    11  21    5.0216   588.0    3.134      63.389
2015    3        9    11  26    5.0203   587.8    3.135      63.372
2015    3        9    11  31    5.0190   587.7    3.137      63.354
2015    3        9    11  36    5.0178   587.5    3.138      63.336
2015    3        9    11  42    5.0165   587.3    3.139      63.318
2015    3        9    11  47    5.0153   587.1    3.140      63.299
2015    3        9    11  52    5.0141   586.9    3.141      63.279
2015    3        9    11  57    5.0129   586.8    3.142      63.259
2015    3        9    12   2    5.0117   586.6    3.143      63.238
2015    3        9    12   8    5.0105   586.4    3.144      63.217
2015    3        9    12  13    5.0093   586.2    3.145      63.195
2015    3        9    12  18    5.0081   586.1    3.146      63.172
2015    3        9    12  23    5.0069   585.9    3.147      63.149
2015    3        9    12  28    5.0057   585.7    3.148      63.125
2015    3        9    12  34    5.0044   585.5    3.149      63.101
2015    3        9    12  39    5.0032   585.3    3.150      63.076
2015    3        9    12  44    5.0019   585.2    3.151      63.051
2015    3        9    12  49    5.0007   585.0    3.152      63.025
2015    3        9    12  54    4.9994   584.8    3.153      62.998
2015    3        9    13   0    4.9981   584.6    3.153      62.971
2015    3        9    13   5    4.9968   584.4    3.154      62.944
2015    3        9    13  10    4.9955   584.3    3.155      62.916
2015    3        9    13  15    4.9941   584.1    3.156      62.887
2015    3        9    13  20    4.9928   583.9    3.156      62.858
2015    3        9    13  26    4.9915   583.7    3.157      62.829
2015    3        9    13  31    4.9901   583.5    3.158      62.799
2015    3        9    13  36    4.9887   583.3    3.158      62.768
2015    3        9    13  41    4.9873   583.2    3.159      62.738
2015    3        9    13  46    4.9859   583.0    3.160      62.707
2015    3        9    13  52    4.9845   582.8    3.160      62.675
2015    3        9    13  57    4.9831   582.6    3.161      62.643
2015    3        9    14   2    4.9817   582.4    3.162      62.611
2015    3        9    14   7    4.9803   582.3    3.162      62.579
2015    3        9    14  12    4.9788   582.1    3.163      62.547
2015    3        9    14  18    4.9774   581.9    3.163      62.514
2015    3        9    14  23    4.9759   581.7    3.164      62.482
2015    3        9    14  28    4.9745   581.5    3.165      62.449
2015    3        9    14  33    4.9730   581.3    3.166      62.417
2015    3        9    14  38    4.9715   581.1    3.166      62.384
2015    3        9    14  44    4.9701   581.0    3.167      62.352
2015    3        9    14  49    4.9686   580.8    3.168      62.319
2015    3        9    14  54    4.9671   580.6    3.169      62.287
2015    3        9    14  59    4.9656   580.4    3.169      62.255
2015    3        9    15   4    4.9642   580.2    3.170      62.224
2015    3        9    15   9    4.9627   580.0    3.171      62.193
2015    3        9    15  15    4.9612   579.8    3.172      62.162
2015    3        9    15  20    4.9597   579.6    3.173      62.132
2015    3        9    15  25    4.9582   579.4    3.174      62.102
2015    3        9    15  30    4.9567   579.3    3.176      62.073
2015    3        9    15  35    4.9553   579.1    3.177      62.044
2015    3        9    15  41    4.9538   578.9    3.178      62.016
2015    3        9    15  46    4.9524   578.7    3.179      61.988
2015    3        9    15  51    4.9509   578.5    3.181      61.961
2015    3        9    15  56    4.9495   578.3    3.182      61.935
2015    3        9    16   1    4.9480   578.1    3.184      61.909
2015    3        9    16   7    4.9466   577.9    3.185      61.884
2015    3        9    16  12    4.9452   577.7    3.187      61.859
2015    3        9    16  17    4.9438   577.5    3.189      61.835
2015    3        9    16  22    4.9424   577.3    3.190      61.812
2015    3        9    16  27    4.9410   577.1    3.192      61.789
2015    3        9    16  33    4.9396   576.9    3.194      61.767
2015    3        9    16  38    4.9382   576.7    3.196      61.745
2015    3        9    16  43    4.9368   576.5    3.197      61.723
2015    3        9    16  48    4.9355   576.4    3.199      61.702
2015    3        9    16  53    4.9341   576.2    3.201      61.681
2015    3        9    16  59    4.9327   576.0    3.203      61.661
2015    3        9    17   4    4.9314   575.8    3.205      61.641
2015    3        9    17   9    4.9301   575.6    3.207      61.621
2015    3        9    17  14    4.9287   575.4    3.209      61.601
2015    3        9    17  19    4.9274   575.2    3.211      61.581
2015    3        9    17  25    4.9260   575.0    3.213      61.561
2015    3        9    17  30    4.9247   574.8    3.214      61.542
2015    3        9    17  35    4.9234   574.6    3.216      61.522
2015    3        9    17  40    4.9221   574.4    3.218      61.503
2015    3        9    17  45    4.9208   574.1    3.220      61.483
2015    3        9    17  51    4.9195   573.9    3.222      61.463
2015    3        9    17  56    4.9182   573.7    3.224      61.444
2015    3        9    18   1    4.9169   573.5    3.225      61.424
2015    3        9    18   6    4.9157   573.3    3.227      61.404
2015    3        9    18  11    4.9145   573.1    3.229      61.385
2015    3        9    18  17    4.9132   572.9    3.231      61.365
2015    3        9    18  22    4.9120   572.7    3.233      61.345
2015    3        9    18  27    4.9108   572.5    3.234      61.325
2015    3        9    18  32    4.9096   572.3    3.236      61.305
2015    3        9    18  37    4.9084   572.1    3.238      61.285
2015    3        9    18  42    4.9072   571.9    3.239      61.264
2015    3        9    18  48    4.9061   571.7    3.241      61.243
2015    3        9    18  53    4.9049   571.5    3.243      61.223
2015    3        9    18  58    4.9038   571.3    3.244      61.202
2015    3        9    19   3    4.9027   571.0    3.246      61.181
2015    3        9    19   8    4.9016   570.8    3.248      61.159
2015    3        9    19  14    4.9005   570.6    3.249      61.137
2015    3        9    19  19    4.8994   570.4    3.251      61.115
2015    3        9    19  24    4.8983   570.2    3.252      61.093
2015    3        9    19  29    4.8972   570.0    3.254      61.070
2015    3        9    19  34    4.8961   569.8    3.256      61.047
2015    3        9    19  40    4.8951   569.6    3.257      61.024
2015    3        9    19  45    4.8940   569.4    3.259      61.001
2015    3        9    19  50    4.8929   569.2    3.260      60.977
2015    3        9    19  55    4.8918   569.0    3.262      60.953
2015    3        9    20   0    4.8908   568.8    3.263      60.928
2015    3        9    20   6    4.8897   568.5    3.265      60.904
2015    3        9    20  11    4.8886   568.3    3.266      60.879
2015    3        9    20  16    4.8875   568.1    3.268      60.853
2015    3        9    20  21    4.8864   567.9    3.269      60.827
2015    3        9    20  26    4.8854   567.7    3.271      60.801
2015    3        9    20  32    4.8842   567.5    3.272      60.775
2015    3        9    20  37    4.8832   567.3    3.274      60.748
2015    3        9    20  42    4.8821   567.1    3.275      60.721
2015    3        9    20  47    4.8809   566.9    3.277      60.694
2015    3        9    20  52    4.8798   566.7    3.278      60.666
2015    3        9    20  58    4.8787   566.5    3.280      60.638
2015    3        9    21   3    4.8776   566.2    3.281      60.610
2015    3        9    21   8    4.8765   566.0    3.282      60.581
2015    3        9    21  13    4.8753   565.8    3.284      60.552
2015    3        9    21  18    4.8742   565.6    3.285      60.523
2015    3        9    21  24    4.8730   565.4    3.287      60.493
2015    3        9    21  29    4.8719   565.2    3.288      60.463
2015    3        9    21  34    4.8708   565.0    3.290      60.433
2015    3        9    21  39    4.8696   564.8    3.291      60.403
2015    3        9    21  44    4.8685   564.5    3.292      60.373
2015    3        9    21  50    4.8673   564.3    3.294      60.343
2015    3        9    21  55    4.8662   564.1    3.295      60.312
2015    3        9    22   0    4.8651   563.9    3.297      60.282
2015    3        9    22   5    4.8639   563.7    3.298      60.251
2015    3        9    22  10    4.8628   563.5    3.300      60.221
2015    3        9    22  16    4.8617   563.3    3.301      60.190
2015    3        9    22  21    4.8606   563.1    3.302      60.160
2015    3        9    22  26    4.8594   562.8    3.304      60.130
2015    3        9    22  31    4.8584   562.6    3.305      60.099
2015    3        9    22  36    4.8572   562.4    3.307      60.069
2015    3        9    22  41    4.8561   562.2    3.309      60.039
2015    3        9    22  47    4.8551   562.0    3.310      60.009
2015    3        9    22  52    4.8540   561.8    3.312      59.980
2015    3        9    22  57    4.8528   561.6    3.313      59.950
2015    3        9    23   2    4.8518   561.3    3.315      59.921
2015    3        9    23   7    4.8507   561.1    3.317      59.892
2015    3        9    23  13    4.8496   560.9    3.318      59.863
2015    3        9    23  18    4.8486   560.7    3.320      59.834
2015    3        9    23  23    4.8475   560.5    3.322      59.806
2015    3        9    23  28    4.8465   560.3    3.323      59.777
2015    3        9    23  33    4.8454   560.1    3.325      59.749
2015    3        9    23  39    4.8444   559.8    3.327      59.722
2015    3        9    23  44    4.8434   559.6    3.329      59.694
2015    3        9    23  49    4.8424   559.4    3.330      59.667
2015    3        9    23  54    4.8414   559.2    3.332      59.640
2015    3        9    23  59    4.8404   559.0    3.334      59.614
2015    3       10     0   5    4.8394   558.8    3.336      59.587
