year    month   day   hour  minute  B_enl V_enl   n_enl       T_enl
[year] [month] [day] [hour][minute] [nT]  [km/s]  [cm-3]      [kK]
2015    2       28     0   5    5.1815   657.4    2.834      61.572
2015    2       28     0  10    5.1795   657.3    2.834      61.539
2015    2       28     0  15    5.1774   657.2    2.833      61.506
2015    2       28     0  20    5.1753   657.1    2.832      61.474
2015    2       28     0  25    5.1733   657.0    2.832      61.441
2015    2       28     0  31    5.1713   656.9    2.831      61.409
2015    2       28     0  36    5.1692   656.8    2.830      61.377
2015    2       28     0  41    5.1671   656.7    2.830      61.345
2015    2       28     0  46    5.1651   656.6    2.829      61.313
2015    2       28     0  51    5.1631   656.5    2.828      61.281
2015    2       28     0  57    5.1611   656.4    2.828      61.250
2015    2       28     1   2    5.1590   656.2    2.827      61.218
2015    2       28     1   7    5.1570   656.1    2.827      61.187
2015    2       28     1  12    5.1550   656.0    2.826      61.156
2015    2       28     1  17    5.1529   655.9    2.825      61.124
2015    2       28     1  23    5.1509   655.8    2.825      61.093
2015    2       28     1  28    5.1489   655.7    2.824      61.063
2015    2       28     1  33    5.1469   655.6    2.824      61.032
2015    2       28     1  38    5.1449   655.5    2.823      61.001
2015    2       28     1  43    5.1429   655.4    2.823      60.971
2015    2       28     1  49    5.1408   655.3    2.822      60.941
2015    2       28     1  54    5.1388   655.1    2.822      60.910
2015    2       28     1  59    5.1368   655.0    2.821      60.880
2015    2       28     2   4    5.1348   654.9    2.821      60.850
2015    2       28     2  10    5.1328   654.8    2.820      60.821
2015    2       28     2  15    5.1308   654.7    2.820      60.791
2015    2       28     2  20    5.1288   654.6    2.820      60.762
2015    2       28     2  25    5.1268   654.5    2.819      60.733
2015    2       28     2  30    5.1248   654.3    2.819      60.704
2015    2       28     2  36    5.1228   654.2    2.818      60.675
2015    2       28     2  41    5.1208   654.1    2.818      60.646
2015    2       28     2  46    5.1188   654.0    2.818      60.618
2015    2       28     2  51    5.1168   653.9    2.818      60.589
2015    2       28     2  56    5.1148   653.8    2.817      60.561
2015    2       28     3   2    5.1128   653.7    2.817      60.533
2015    2       28     3   7    5.1107   653.5    2.817      60.504
2015    2       28     3  12    5.1087   653.4    2.817      60.476
2015    2       28     3  17    5.1067   653.3    2.817      60.448
2015    2       28     3  22    5.1046   653.2    2.817      60.420
2015    2       28     3  28    5.1026   653.1    2.816      60.392
2015    2       28     3  33    5.1005   653.0    2.816      60.364
2015    2       28     3  38    5.0984   652.9    2.816      60.336
2015    2       28     3  43    5.0964   652.7    2.816      60.308
2015    2       28     3  48    5.0943   652.6    2.816      60.280
2015    2       28     3  54    5.0922   652.5    2.816      60.252
2015    2       28     3  59    5.0901   652.4    2.816      60.223
2015    2       28     4   4    5.0880   652.3    2.816      60.195
2015    2       28     4   9    5.0859   652.2    2.816      60.166
2015    2       28     4  14    5.0837   652.0    2.816      60.138
2015    2       28     4  20    5.0816   651.9    2.816      60.109
2015    2       28     4  25    5.0794   651.8    2.816      60.080
2015    2       28     4  30    5.0773   651.7    2.816      60.050
2015    2       28     4  35    5.0751   651.6    2.816      60.021
2015    2       28     4  40    5.0729   651.4    2.816      59.991
2015    2       28     4  46    5.0707   651.3    2.816      59.961
2015    2       28     4  51    5.0685   651.2    2.816      59.930
2015    2       28     4  56    5.0663   651.1    2.815      59.899
2015    2       28     5   1    5.0641   650.9    2.815      59.868
2015    2       28     5   6    5.0619   650.8    2.815      59.837
2015    2       28     5  12    5.0597   650.7    2.815      59.805
2015    2       28     5  17    5.0575   650.6    2.815      59.773
2015    2       28     5  22    5.0553   650.4    2.815      59.740
2015    2       28     5  27    5.0530   650.3    2.815      59.707
2015    2       28     5  32    5.0508   650.2    2.815      59.674
2015    2       28     5  38    5.0486   650.0    2.815      59.641
2015    2       28     5  43    5.0464   649.9    2.815      59.607
2015    2       28     5  48    5.0441   649.8    2.815      59.574
2015    2       28     5  53    5.0419   649.6    2.815      59.539
2015    2       28     5  58    5.0397   649.5    2.814      59.505
2015    2       28     6   4    5.0375   649.4    2.814      59.471
2015    2       28     6   9    5.0353   649.2    2.814      59.437
2015    2       28     6  14    5.0331   649.1    2.814      59.402
2015    2       28     6  19    5.0309   649.0    2.814      59.367
2015    2       28     6  24    5.0287   648.8    2.814      59.333
2015    2       28     6  30    5.0265   648.7    2.814      59.298
2015    2       28     6  35    5.0243   648.5    2.814      59.263
2015    2       28     6  40    5.0221   648.4    2.814      59.227
2015    2       28     6  45    5.0200   648.3    2.814      59.192
2015    2       28     6  50    5.0178   648.1    2.814      59.157
2015    2       28     6  56    5.0157   648.0    2.814      59.121
2015    2       28     7   1    5.0135   647.8    2.814      59.085
2015    2       28     7   6    5.0114   647.7    2.814      59.049
2015    2       28     7  11    5.0093   647.5    2.814      59.013
2015    2       28     7  16    5.0072   647.4    2.814      58.977
2015    2       28     7  22    5.0050   647.3    2.814      58.941
2015    2       28     7  27    5.0029   647.1    2.814      58.905
2015    2       28     7  32    5.0009   647.0    2.814      58.869
2015    2       28     7  37    4.9987   646.8    2.814      58.833
2015    2       28     7  42    4.9967   646.7    2.814      58.797
2015    2       28     7  48    4.9946   646.5    2.814      58.761
2015    2       28     7  53    4.9925   646.4    2.813      58.725
2015    2       28     7  58    4.9904   646.2    2.813      58.689
2015    2       28     8   3    4.9883   646.1    2.813      58.653
2015    2       28     8   8    4.9863   645.9    2.813      58.616
2015    2       28     8  14    4.9842   645.8    2.813      58.580
2015    2       28     8  19    4.9822   645.6    2.813      58.543
2015    2       28     8  24    4.9801   645.5    2.812      58.506
2015    2       28     8  29    4.9780   645.3    2.812      58.468
2015    2       28     8  35    4.9760   645.2    2.812      58.431
2015    2       28     8  40    4.9739   645.0    2.812      58.393
2015    2       28     8  45    4.9718   644.9    2.811      58.356
2015    2       28     8  50    4.9698   644.7    2.811      58.317
2015    2       28     8  55    4.9678   644.6    2.811      58.279
2015    2       28     9   1    4.9657   644.4    2.810      58.240
2015    2       28     9   6    4.9636   644.3    2.810      58.202
2015    2       28     9  11    4.9615   644.1    2.809      58.162
2015    2       28     9  16    4.9595   644.0    2.809      58.123
2015    2       28     9  21    4.9574   643.8    2.809      58.083
2015    2       28     9  27    4.9554   643.7    2.808      58.044
2015    2       28     9  32    4.9533   643.5    2.808      58.003
2015    2       28     9  37    4.9512   643.4    2.807      57.963
2015    2       28     9  42    4.9492   643.2    2.807      57.922
2015    2       28     9  48    4.9470   643.0    2.806      57.881
2015    2       28     9  53    4.9449   642.9    2.806      57.840
2015    2       28     9  58    4.9429   642.7    2.805      57.799
2015    2       28    10   3    4.9408   642.6    2.805      57.757
2015    2       28    10   8    4.9387   642.4    2.804      57.715
2015    2       28    10  14    4.9365   642.3    2.804      57.673
2015    2       28    10  19    4.9344   642.1    2.803      57.631
2015    2       28    10  24    4.9323   641.9    2.803      57.589
2015    2       28    10  29    4.9302   641.8    2.802      57.546
2015    2       28    10  34    4.9280   641.6    2.802      57.503
2015    2       28    10  40    4.9259   641.5    2.801      57.461
2015    2       28    10  45    4.9237   641.3    2.800      57.418
2015    2       28    10  50    4.9215   641.1    2.800      57.375
2015    2       28    10  55    4.9193   641.0    2.799      57.331
2015    2       28    11   0    4.9172   640.8    2.799      57.288
2015    2       28    11   6    4.9150   640.7    2.798      57.245
2015    2       28    11  11    4.9128   640.5    2.798      57.201
2015    2       28    11  16    4.9106   640.3    2.797      57.157
2015    2       28    11  21    4.9084   640.2    2.797      57.114
2015    2       28    11  26    4.9061   640.0    2.796      57.070
2015    2       28    11  32    4.9039   639.9    2.796      57.026
2015    2       28    11  37    4.9016   639.7    2.795      56.981
2015    2       28    11  42    4.8994   639.5    2.795      56.937
2015    2       28    11  47    4.8971   639.4    2.795      56.892
2015    2       28    11  52    4.8948   639.2    2.794      56.848
2015    2       28    11  58    4.8926   639.0    2.794      56.803
2015    2       28    12   3    4.8903   638.9    2.793      56.758
2015    2       28    12   8    4.8880   638.7    2.793      56.713
2015    2       28    12  13    4.8857   638.5    2.792      56.667
2015    2       28    12  18    4.8834   638.4    2.792      56.622
2015    2       28    12  24    4.8811   638.2    2.792      56.576
2015    2       28    12  29    4.8788   638.0    2.791      56.531
2015    2       28    12  34    4.8765   637.8    2.791      56.485
2015    2       28    12  39    4.8742   637.7    2.791      56.439
2015    2       28    12  44    4.8719   637.5    2.790      56.394
2015    2       28    12  50    4.8695   637.3    2.790      56.348
2015    2       28    12  55    4.8672   637.1    2.790      56.302
2015    2       28    13   0    4.8649   636.9    2.790      56.257
2015    2       28    13   5    4.8626   636.8    2.789      56.212
2015    2       28    13  10    4.8603   636.6    2.789      56.167
2015    2       28    13  16    4.8580   636.4    2.789      56.122
2015    2       28    13  21    4.8557   636.2    2.789      56.078
2015    2       28    13  26    4.8535   636.0    2.789      56.034
2015    2       28    13  31    4.8512   635.8    2.789      55.990
2015    2       28    13  36    4.8489   635.6    2.790      55.947
2015    2       28    13  42    4.8467   635.5    2.790      55.904
2015    2       28    13  47    4.8444   635.3    2.790      55.862
2015    2       28    13  52    4.8422   635.1    2.790      55.820
2015    2       28    13  57    4.8400   634.9    2.791      55.778
2015    2       28    14   2    4.8378   634.7    2.791      55.737
2015    2       28    14   8    4.8355   634.5    2.791      55.697
2015    2       28    14  13    4.8333   634.3    2.792      55.657
2015    2       28    14  18    4.8312   634.1    2.792      55.617
2015    2       28    14  23    4.8290   633.9    2.793      55.577
2015    2       28    14  28    4.8268   633.7    2.794      55.538
2015    2       28    14  33    4.8247   633.5    2.794      55.499
2015    2       28    14  39    4.8225   633.3    2.795      55.461
2015    2       28    14  44    4.8204   633.1    2.796      55.422
2015    2       28    14  49    4.8182   632.9    2.796      55.384
2015    2       28    14  54    4.8161   632.7    2.797      55.346
2015    2       28    14  59    4.8140   632.5    2.798      55.308
2015    2       28    15   5    4.8119   632.3    2.799      55.270
2015    2       28    15  10    4.8098   632.1    2.799      55.232
2015    2       28    15  15    4.8076   631.9    2.800      55.194
2015    2       28    15  20    4.8056   631.7    2.801      55.155
2015    2       28    15  25    4.8034   631.5    2.802      55.116
2015    2       28    15  31    4.8013   631.3    2.802      55.077
2015    2       28    15  36    4.7992   631.1    2.803      55.036
2015    2       28    15  41    4.7971   630.9    2.804      54.995
2015    2       28    15  46    4.7950   630.7    2.804      54.954
2015    2       28    15  51    4.7928   630.5    2.805      54.912
2015    2       28    15  57    4.7907   630.3    2.805      54.869
2015    2       28    16   2    4.7885   630.1    2.806      54.825
2015    2       28    16   7    4.7864   629.8    2.806      54.781
2015    2       28    16  12    4.7842   629.6    2.806      54.736
2015    2       28    16  17    4.7821   629.4    2.807      54.691
2015    2       28    16  23    4.7799   629.2    2.807      54.645
2015    2       28    16  28    4.7777   629.0    2.807      54.598
2015    2       28    16  33    4.7756   628.8    2.808      54.551
2015    2       28    16  38    4.7734   628.6    2.808      54.503
2015    2       28    16  43    4.7712   628.4    2.808      54.455
2015    2       28    16  49    4.7690   628.2    2.808      54.407
2015    2       28    16  54    4.7668   628.0    2.808      54.358
2015    2       28    16  59    4.7646   627.8    2.808      54.308
2015    2       28    17   4    4.7624   627.6    2.808      54.259
2015    2       28    17   9    4.7602   627.3    2.808      54.209
2015    2       28    17  15    4.7580   627.1    2.808      54.158
2015    2       28    17  20    4.7558   626.9    2.808      54.107
2015    2       28    17  25    4.7535   626.7    2.808      54.056
2015    2       28    17  30    4.7513   626.5    2.808      54.004
2015    2       28    17  35    4.7491   626.3    2.808      53.952
2015    2       28    17  41    4.7469   626.1    2.808      53.900
2015    2       28    17  46    4.7446   625.9    2.808      53.847
2015    2       28    17  51    4.7424   625.7    2.807      53.794
2015    2       28    17  56    4.7401   625.4    2.807      53.741
2015    2       28    18   1    4.7379   625.2    2.807      53.688
2015    2       28    18   7    4.7356   625.0    2.807      53.634
2015    2       28    18  12    4.7334   624.8    2.807      53.581
2015    2       28    18  17    4.7311   624.6    2.806      53.526
2015    2       28    18  22    4.7289   624.4    2.806      53.472
2015    2       28    18  27    4.7266   624.2    2.806      53.418
2015    2       28    18  33    4.7244   624.0    2.805      53.363
2015    2       28    18  38    4.7221   623.7    2.805      53.308
2015    2       28    18  43    4.7199   623.5    2.805      53.253
2015    2       28    18  48    4.7176   623.3    2.805      53.199
2015    2       28    18  53    4.7153   623.1    2.804      53.143
2015    2       28    18  58    4.7131   622.9    2.804      53.088
2015    2       28    19   4    4.7108   622.7    2.804      53.033
2015    2       28    19   9    4.7086   622.4    2.804      52.978
2015    2       28    19  14    4.7063   622.2    2.804      52.923
2015    2       28    19  19    4.7041   622.0    2.803      52.867
2015    2       28    19  24    4.7018   621.8    2.803      52.812
2015    2       28    19  30    4.6996   621.6    2.803      52.757
2015    2       28    19  35    4.6974   621.3    2.803      52.702
2015    2       28    19  40    4.6952   621.1    2.803      52.648
2015    2       28    19  45    4.6929   620.9    2.803      52.593
2015    2       28    19  50    4.6908   620.7    2.803      52.538
2015    2       28    19  56    4.6886   620.5    2.803      52.483
2015    2       28    20   1    4.6864   620.2    2.803      52.429
2015    2       28    20   6    4.6842   620.0    2.803      52.375
2015    2       28    20  11    4.6820   619.8    2.803      52.321
2015    2       28    20  16    4.6799   619.6    2.803      52.267
2015    2       28    20  22    4.6777   619.3    2.803      52.213
2015    2       28    20  27    4.6755   619.1    2.803      52.159
2015    2       28    20  32    4.6734   618.9    2.803      52.105
2015    2       28    20  37    4.6712   618.7    2.804      52.052
2015    2       28    20  42    4.6690   618.4    2.804      51.998
2015    2       28    20  48    4.6669   618.2    2.804      51.944
2015    2       28    20  53    4.6647   618.0    2.804      51.891
2015    2       28    20  58    4.6626   617.7    2.804      51.837
2015    2       28    21   3    4.6604   617.5    2.804      51.784
2015    2       28    21   8    4.6583   617.3    2.805      51.730
2015    2       28    21  14    4.6561   617.0    2.805      51.677
2015    2       28    21  19    4.6540   616.8    2.805      51.624
2015    2       28    21  24    4.6518   616.5    2.805      51.571
2015    2       28    21  29    4.6497   616.3    2.806      51.518
2015    2       28    21  34    4.6476   616.1    2.806      51.465
2015    2       28    21  40    4.6455   615.8    2.806      51.412
2015    2       28    21  45    4.6434   615.6    2.807      51.359
2015    2       28    21  50    4.6412   615.3    2.807      51.306
2015    2       28    21  55    4.6392   615.1    2.807      51.254
2015    2       28    22   0    4.6371   614.8    2.808      51.202
2015    2       28    22   6    4.6351   614.6    2.808      51.150
2015    2       28    22  11    4.6330   614.3    2.809      51.097
2015    2       28    22  16    4.6310   614.1    2.809      51.046
2015    2       28    22  21    4.6289   613.8    2.809      50.994
2015    2       28    22  26    4.6269   613.6    2.810      50.942
2015    2       28    22  31    4.6249   613.3    2.810      50.890
2015    2       28    22  37    4.6229   613.1    2.811      50.838
2015    2       28    22  42    4.6209   612.8    2.812      50.786
2015    2       28    22  47    4.6189   612.6    2.812      50.734
2015    2       28    22  52    4.6169   612.3    2.813      50.682
2015    2       28    22  57    4.6149   612.1    2.813      50.629
2015    2       28    23   3    4.6129   611.8    2.814      50.576
2015    2       28    23   8    4.6109   611.5    2.814      50.523
2015    2       28    23  13    4.6090   611.3    2.815      50.469
2015    2       28    23  18    4.6070   611.0    2.815      50.416
2015    2       28    23  23    4.6050   610.8    2.816      50.361
2015    2       28    23  29    4.6030   610.5    2.817      50.307
2015    2       28    23  34    4.6010   610.2    2.817      50.252
2015    2       28    23  39    4.5991   610.0    2.818      50.197
2015    2       28    23  43    4.5974   609.8    2.818      50.155
2015    2       28    23  47    4.5960   609.6    2.818      50.119
2015    2       28    23  51    4.5946   609.4    2.819      50.085
2015    2       28    23  54    4.5932   609.2    2.819      50.051
2015    2       28    23  58    4.5919   609.0    2.820      50.019
2015    3        1     0   1    4.5906   608.8    2.820      49.989
2015    3        1     0   5    4.5893   608.6    2.820      49.958
2015    3        1     0   8    4.5880   608.5    2.821      49.928
2015    3        1     0  12    4.5867   608.3    2.821      49.898
2015    3        1     0  15    4.5854   608.1    2.821      49.868
2015    3        1     0  18    4.5841   607.9    2.822      49.838
2015    3        1     0  22    4.5828   607.8    2.822      49.808
2015    3        1     0  25    4.5815   607.6    2.822      49.779
2015    3        1     0  28    4.5802   607.4    2.823      49.749
2015    3        1     0  32    4.5790   607.2    2.823      49.719
2015    3        1     0  35    4.5777   607.1    2.823      49.690
2015    3        1     0  38    4.5764   606.9    2.824      49.661
2015    3        1     0  42    4.5751   606.7    2.824      49.631
2015    3        1     0  45    4.5739   606.6    2.824      49.602
2015    3        1     0  48    4.5726   606.4    2.825      49.573
2015    3        1     0  52    4.5713   606.2    2.825      49.544
2015    3        1     0  55    4.5701   606.0    2.825      49.515
2015    3        1     0  58    4.5688   605.9    2.826      49.486
2015    3        1     1   1    4.5675   605.7    2.826      49.458
2015    3        1     1   5    4.5663   605.5    2.826      49.429
2015    3        1     1   8    4.5650   605.3    2.827      49.400
2015    3        1     1  11    4.5637   605.2    2.827      49.372
2015    3        1     1  14    4.5625   605.0    2.827      49.343
2015    3        1     1  18    4.5612   604.8    2.828      49.315
2015    3        1     1  21    4.5600   604.6    2.828      49.286
2015    3        1     1  24    4.5587   604.5    2.828      49.258
2015    3        1     1  28    4.5575   604.3    2.829      49.229
2015    3        1     1  31    4.5562   604.1    2.829      49.201
2015    3        1     1  34    4.5550   603.9    2.830      49.173
2015    3        1     1  37    4.5537   603.8    2.830      49.145
2015    3        1     1  41    4.5525   603.6    2.830      49.117
2015    3        1     1  44    4.5512   603.4    2.831      49.088
2015    3        1     1  47    4.5500   603.2    2.831      49.060
2015    3        1     1  50    4.5488   603.1    2.832      49.032
2015    3        1     1  54    4.5475   602.9    2.832      49.004
2015    3        1     1  57    4.5463   602.7    2.832      48.976
2015    3        1     2   0    4.5450   602.5    2.833      48.948
2015    3        1     2   3    4.5438   602.4    2.833      48.920
2015    3        1     2   7    4.5426   602.2    2.834      48.892
2015    3        1     2  10    4.5414   602.0    2.834      48.864
2015    3        1     2  13    4.5401   601.8    2.835      48.836
2015    3        1     2  17    4.5389   601.6    2.835      48.808
2015    3        1     2  20    4.5377   601.5    2.836      48.780
2015    3        1     2  23    4.5365   601.3    2.836      48.752
2015    3        1     2  26    4.5352   601.1    2.837      48.724
2015    3        1     2  30    4.5340   600.9    2.837      48.695
2015    3        1     2  33    4.5328   600.7    2.838      48.667
2015    3        1     2  36    4.5316   600.6    2.838      48.640
2015    3        1     2  40    4.5304   600.4    2.839      48.612
2015    3        1     2  43    4.5292   600.2    2.839      48.584
2015    3        1     2  46    4.5280   600.0    2.840      48.555
2015    3        1     2  50    4.5267   599.8    2.840      48.526
2015    3        1     2  53    4.5255   599.6    2.841      48.498
2015    3        1     2  56    4.5243   599.5    2.842      48.469
2015    3        1     3   0    4.5231   599.3    2.842      48.441
2015    3        1     3   3    4.5219   599.1    2.843      48.412
2015    3        1     3   7    4.5207   598.9    2.844      48.384
2015    3        1     3  10    4.5195   598.7    2.844      48.356
2015    3        1     3  13    4.5183   598.5    2.845      48.328
2015    3        1     3  17    4.5171   598.3    2.846      48.300
2015    3        1     3  20    4.5159   598.2    2.847      48.272
2015    3        1     3  23    4.5147   598.0    2.847      48.243
2015    3        1     3  27    4.5135   597.8    2.848      48.215
2015    3        1     3  30    4.5123   597.6    2.849      48.187
2015    3        1     3  34    4.5111   597.4    2.850      48.159
2015    3        1     3  37    4.5100   597.2    2.850      48.130
2015    3        1     3  41    4.5088   597.0    2.851      48.101
2015    3        1     3  44    4.5076   596.8    2.852      48.073
2015    3        1     3  47    4.5064   596.6    2.853      48.044
2015    3        1     3  51    4.5052   596.4    2.854      48.015
2015    3        1     3  54    4.5040   596.2    2.855      47.985
2015    3        1     3  58    4.5028   596.0    2.856      47.955
2015    3        1     4   2    4.5016   595.9    2.856      47.926
2015    3        1     4   5    4.5004   595.7    2.857      47.896
2015    3        1     4   9    4.4992   595.5    2.858      47.866
2015    3        1     4  12    4.4980   595.2    2.859      47.836
2015    3        1     4  16    4.4968   595.0    2.860      47.805
2015    3        1     4  19    4.4956   594.8    2.861      47.775
2015    3        1     4  23    4.4944   594.6    2.862      47.745
2015    3        1     4  27    4.4932   594.4    2.863      47.715
2015    3        1     4  30    4.4920   594.2    2.864      47.684
2015    3        1     4  34    4.4909   594.0    2.865      47.653
2015    3        1     4  37    4.4897   593.8    2.866      47.623
2015    3        1     4  41    4.4885   593.6    2.866      47.592
2015    3        1     4  45    4.4873   593.4    2.867      47.560
2015    3        1     4  48    4.4861   593.2    2.868      47.529
2015    3        1     4  52    4.4850   593.0    2.869      47.498
2015    3        1     4  56    4.4838   592.8    2.870      47.467
2015    3        1     4  59    4.4826   592.6    2.871      47.435
2015    3        1     5   3    4.4814   592.4    2.872      47.403
2015    3        1     5   6    4.4803   592.1    2.873      47.371
2015    3        1     5  10    4.4791   591.9    2.873      47.338
2015    3        1     5  14    4.4779   591.7    2.874      47.306
2015    3        1     5  17    4.4768   591.5    2.875      47.274
2015    3        1     5  21    4.4756   591.3    2.876      47.241
2015    3        1     5  25    4.4744   591.1    2.877      47.208
2015    3        1     5  29    4.4733   590.9    2.878      47.175
2015    3        1     5  32    4.4721   590.6    2.878      47.142
2015    3        1     5  36    4.4710   590.4    2.879      47.109
2015    3        1     5  40    4.4698   590.2    2.880      47.075
2015    3        1     5  43    4.4686   590.0    2.881      47.042
2015    3        1     5  47    4.4675   589.8    2.882      47.008
2015    3        1     5  51    4.4663   589.5    2.882      46.974
2015    3        1     5  55    4.4652   589.3    2.883      46.939
2015    3        1     5  58    4.4640   589.1    2.884      46.905
2015    3        1     6   2    4.4628   588.9    2.885      46.870
2015    3        1     6   6    4.4617   588.6    2.885      46.835
2015    3        1     6  10    4.4605   588.4    2.886      46.799
2015    3        1     6  14    4.4593   588.2    2.887      46.763
2015    3        1     6  17    4.4582   588.0    2.887      46.727
2015    3        1     6  21    4.4570   587.7    2.888      46.691
2015    3        1     6  25    4.4558   587.5    2.889      46.654
2015    3        1     6  29    4.4547   587.3    2.890      46.617
2015    3        1     6  33    4.4535   587.0    2.890      46.580
2015    3        1     6  37    4.4523   586.8    2.891      46.542
2015    3        1     6  41    4.4511   586.6    2.892      46.504
2015    3        1     6  45    4.4499   586.3    2.893      46.466
2015    3        1     6  48    4.4488   586.1    2.893      46.427
2015    3        1     6  52    4.4475   585.8    2.894      46.388
2015    3        1     6  56    4.4463   585.6    2.895      46.348
2015    3        1     7   1    4.4451   585.4    2.896      46.308
2015    3        1     7   5    4.4439   585.1    2.896      46.268
2015    3        1     7   9    4.4427   584.9    2.897      46.227
2015    3        1     7  13    4.4415   584.6    2.898      46.186
2015    3        1     7  17    4.4402   584.4    2.899      46.145
2015    3        1     7  21    4.4390   584.1    2.900      46.104
2015    3        1     7  25    4.4378   583.8    2.900      46.062
2015    3        1     7  29    4.4365   583.6    2.901      46.020
2015    3        1     7  33    4.4353   583.3    2.902      45.978
2015    3        1     7  38    4.4340   583.1    2.903      45.935
2015    3        1     7  42    4.4328   582.8    2.904      45.893
2015    3        1     7  46    4.4315   582.5    2.905      45.850
2015    3        1     7  50    4.4303   582.3    2.906      45.807
2015    3        1     7  54    4.4290   582.0    2.907      45.764
2015    3        1     7  59    4.4278   581.7    2.908      45.721
2015    3        1     8   3    4.4265   581.4    2.909      45.677
2015    3        1     8   7    4.4253   581.2    2.910      45.634
2015    3        1     8  12    4.4240   580.9    2.911      45.591
2015    3        1     8  16    4.4227   580.6    2.912      45.547
2015    3        1     8  20    4.4215   580.3    2.913      45.504
2015    3        1     8  25    4.4203   580.1    2.914      45.460
2015    3        1     8  29    4.4190   579.8    2.916      45.417
2015    3        1     8  33    4.4178   579.5    2.917      45.374
2015    3        1     8  38    4.4165   579.2    2.918      45.331
2015    3        1     8  42    4.4153   578.9    2.920      45.287
2015    3        1     8  47    4.4141   578.6    2.921      45.244
2015    3        1     8  51    4.4129   578.3    2.922      45.201
2015    3        1     8  56    4.4117   578.0    2.924      45.158
2015    3        1     9   0    4.4105   577.7    2.926      45.115
2015    3        1     9   5    4.4093   577.4    2.927      45.073
2015    3        1     9   9    4.4081   577.1    2.929      45.030
2015    3        1     9  14    4.4069   576.8    2.931      44.987
2015    3        1     9  18    4.4058   576.5    2.932      44.945
2015    3        1     9  23    4.4046   576.2    2.934      44.903
2015    3        1     9  27    4.4035   575.9    2.936      44.860
2015    3        1     9  32    4.4023   575.6    2.938      44.818
2015    3        1     9  36    4.4012   575.3    2.940      44.776
2015    3        1     9  41    4.4001   575.0    2.942      44.734
2015    3        1     9  45    4.3990   574.7    2.944      44.692
2015    3        1     9  50    4.3979   574.4    2.946      44.650
2015    3        1     9  55    4.3968   574.1    2.948      44.608
2015    3        1     9  59    4.3957   573.8    2.950      44.565
2015    3        1    10   4    4.3947   573.5    2.952      44.523
2015    3        1    10   9    4.3936   573.2    2.954      44.481
2015    3        1    10  13    4.3926   572.8    2.956      44.439
2015    3        1    10  18    4.3915   572.5    2.958      44.398
2015    3        1    10  22    4.3905   572.2    2.960      44.356
2015    3        1    10  27    4.3895   571.9    2.963      44.314
2015    3        1    10  32    4.3885   571.6    2.965      44.273
2015    3        1    10  36    4.3876   571.3    2.967      44.231
2015    3        1    10  41    4.3866   570.9    2.969      44.189
2015    3        1    10  46    4.3856   570.6    2.972      44.147
2015    3        1    10  50    4.3847   570.3    2.974      44.105
2015    3        1    10  55    4.3837   570.0    2.976      44.063
2015    3        1    11   0    4.3828   569.7    2.978      44.021
2015    3        1    11   4    4.3819   569.3    2.981      43.979
2015    3        1    11   9    4.3810   569.0    2.983      43.937
2015    3        1    11  14    4.3800   568.7    2.985      43.894
2015    3        1    11  19    4.3792   568.4    2.988      43.852
2015    3        1    11  23    4.3783   568.1    2.990      43.809
2015    3        1    11  28    4.3774   567.7    2.992      43.766
2015    3        1    11  33    4.3765   567.4    2.995      43.723
2015    3        1    11  38    4.3757   567.1    2.997      43.680
2015    3        1    11  42    4.3748   566.8    3.000      43.637
2015    3        1    11  47    4.3740   566.4    3.002      43.594
2015    3        1    11  52    4.3732   566.1    3.004      43.551
2015    3        1    11  57    4.3724   565.8    3.007      43.508
2015    3        1    12   2    4.3716   565.4    3.009      43.464
2015    3        1    12   6    4.3708   565.1    3.012      43.421
2015    3        1    12  11    4.3699   564.8    3.014      43.377
2015    3        1    12  16    4.3692   564.5    3.017      43.334
2015    3        1    12  21    4.3684   564.1    3.019      43.290
2015    3        1    12  26    4.3676   563.8    3.022      43.247
2015    3        1    12  31    4.3669   563.5    3.024      43.203
2015    3        1    12  36    4.3661   563.1    3.027      43.160
2015    3        1    12  40    4.3654   562.8    3.029      43.116
2015    3        1    12  45    4.3646   562.5    3.032      43.072
2015    3        1    12  50    4.3638   562.1    3.034      43.028
2015    3        1    12  55    4.3631   561.8    3.037      42.984
2015    3        1    13   0    4.3624   561.5    3.040      42.940
2015    3        1    13   5    4.3617   561.1    3.042      42.896
2015    3        1    13  10    4.3609   560.8    3.045      42.852
2015    3        1    13  15    4.3602   560.4    3.047      42.809
2015    3        1    13  20    4.3595   560.1    3.050      42.765
2015    3        1    13  25    4.3589   559.8    3.053      42.721
2015    3        1    13  30    4.3582   559.4    3.055      42.676
2015    3        1    13  35    4.3574   559.1    3.058      42.632
2015    3        1    13  40    4.3568   558.8    3.060      42.588
2015    3        1    13  45    4.3562   558.4    3.063      42.544
2015    3        1    13  50    4.3556   558.1    3.066      42.499
2015    3        1    13  54    4.3549   557.7    3.068      42.455
2015    3        1    13  59    4.3543   557.4    3.071      42.410
2015    3        1    14   4    4.3537   557.1    3.074      42.365
2015    3        1    14   9    4.3530   556.7    3.076      42.320
2015    3        1    14  14    4.3525   556.4    3.079      42.275
2015    3        1    14  19    4.3519   556.0    3.082      42.229
2015    3        1    14  24    4.3514   555.7    3.085      42.183
2015    3        1    14  29    4.3508   555.3    3.087      42.137
2015    3        1    14  34    4.3503   555.0    3.090      42.091
2015    3        1    14  39    4.3497   554.6    3.093      42.044
2015    3        1    14  45    4.3492   554.3    3.096      41.997
2015    3        1    14  50    4.3487   553.9    3.099      41.950
2015    3        1    14  55    4.3481   553.6    3.101      41.903
2015    3        1    15   0    4.3477   553.2    3.104      41.855
2015    3        1    15   5    4.3472   552.9    3.107      41.807
2015    3        1    15  10    4.3467   552.5    3.110      41.759
2015    3        1    15  15    4.3463   552.2    3.113      41.711
2015    3        1    15  20    4.3459   551.8    3.115      41.663
2015    3        1    15  25    4.3454   551.4    3.118      41.614
2015    3        1    15  30    4.3450   551.1    3.121      41.566
2015    3        1    15  35    4.3446   550.7    3.124      41.517
2015    3        1    15  41    4.3443   550.4    3.127      41.468
2015    3        1    15  46    4.3439   550.0    3.130      41.420
2015    3        1    15  51    4.3436   549.6    3.133      41.371
2015    3        1    15  56    4.3433   549.3    3.136      41.323
2015    3        1    16   1    4.3430   548.9    3.139      41.274
2015    3        1    16   6    4.3427   548.5    3.143      41.226
2015    3        1    16  12    4.3425   548.2    3.146      41.179
2015    3        1    16  17    4.3423   547.8    3.149      41.131
2015    3        1    16  22    4.3421   547.4    3.152      41.084
2015    3        1    16  27    4.3419   547.1    3.156      41.037
2015    3        1    16  32    4.3417   546.7    3.159      40.990
2015    3        1    16  37    4.3417   546.3    3.162      40.944
2015    3        1    16  42    4.3416   546.0    3.166      40.898
2015    3        1    16  48    4.3416   545.6    3.169      40.852
2015    3        1    16  53    4.3416   545.2    3.173      40.806
2015    3        1    16  58    4.3416   544.9    3.177      40.760
2015    3        1    17   3    4.3416   544.5    3.180      40.715
2015    3        1    17   8    4.3416   544.2    3.184      40.670
2015    3        1    17  13    4.3416   543.8    3.188      40.625
2015    3        1    17  19    4.3418   543.4    3.192      40.581
2015    3        1    17  24    4.3420   543.1    3.196      40.536
2015    3        1    17  29    4.3421   542.7    3.199      40.492
2015    3        1    17  34    4.3423   542.3    3.203      40.448
2015    3        1    17  39    4.3425   542.0    3.207      40.405
2015    3        1    17  45    4.3427   541.6    3.211      40.361
2015    3        1    17  50    4.3430   541.2    3.215      40.318
2015    3        1    17  55    4.3432   540.9    3.219      40.275
2015    3        1    18   0    4.3435   540.5    3.224      40.232
2015    3        1    18   5    4.3437   540.1    3.228      40.190
2015    3        1    18  11    4.3440   539.8    3.232      40.148
2015    3        1    18  16    4.3445   539.4    3.236      40.105
2015    3        1    18  21    4.3449   539.1    3.240      40.063
2015    3        1    18  26    4.3451   538.7    3.245      40.022
2015    3        1    18  31    4.3457   538.3    3.249      39.980
2015    3        1    18  36    4.3461   538.0    3.253      39.938
2015    3        1    18  42    4.3465   537.6    3.257      39.897
2015    3        1    18  47    4.3469   537.3    3.262      39.856
2015    3        1    18  52    4.3475   536.9    3.266      39.815
2015    3        1    18  57    4.3480   536.5    3.270      39.773
2015    3        1    19   2    4.3484   536.2    3.275      39.733
2015    3        1    19   8    4.3490   535.8    3.279      39.691
2015    3        1    19  13    4.3494   535.5    3.284      39.651
2015    3        1    19  18    4.3501   535.1    3.288      39.610
2015    3        1    19  23    4.3506   534.8    3.293      39.569
2015    3        1    19  28    4.3512   534.4    3.297      39.528
2015    3        1    19  34    4.3518   534.0    3.301      39.487
2015    3        1    19  39    4.3524   533.7    3.306      39.446
2015    3        1    19  44    4.3529   533.3    3.310      39.405
2015    3        1    19  49    4.3535   533.0    3.315      39.364
2015    3        1    19  54    4.3543   532.6    3.319      39.323
2015    3        1    20   0    4.3550   532.3    3.324      39.282
2015    3        1    20   5    4.3556   531.9    3.328      39.241
2015    3        1    20  10    4.3563   531.5    3.333      39.199
2015    3        1    20  15    4.3570   531.2    3.337      39.158
2015    3        1    20  20    4.3578   530.8    3.342      39.116
2015    3        1    20  26    4.3585   530.5    3.346      39.075
2015    3        1    20  31    4.3593   530.1    3.351      39.033
2015    3        1    20  36    4.3600   529.8    3.355      38.992
2015    3        1    20  41    4.3608   529.4    3.360      38.950
2015    3        1    20  47    4.3616   529.1    3.365      38.909
2015    3        1    20  52    4.3625   528.7    3.369      38.867
2015    3        1    20  57    4.3633   528.4    3.374      38.826
2015    3        1    21   2    4.3642   528.0    3.378      38.784
2015    3        1    21   7    4.3649   527.7    3.383      38.743
2015    3        1    21  13    4.3660   527.3    3.388      38.701
2015    3        1    21  18    4.3670   527.0    3.392      38.660
2015    3        1    21  23    4.3679   526.6    3.397      38.619
2015    3        1    21  28    4.3689   526.2    3.402      38.578
2015    3        1    21  33    4.3699   525.9    3.407      38.537
2015    3        1    21  39    4.3708   525.5    3.411      38.496
2015    3        1    21  44    4.3720   525.2    3.416      38.455
2015    3        1    21  49    4.3731   524.9    3.421      38.414
2015    3        1    21  54    4.3741   524.5    3.426      38.374
2015    3        1    21  59    4.3754   524.2    3.431      38.333
2015    3        1    22   5    4.3766   523.8    3.435      38.293
2015    3        1    22  10    4.3777   523.5    3.440      38.252
2015    3        1    22  15    4.3790   523.1    3.445      38.212
2015    3        1    22  20    4.3802   522.8    3.450      38.172
2015    3        1    22  25    4.3813   522.4    3.455      38.132
2015    3        1    22  31    4.3828   522.1    3.460      38.092
2015    3        1    22  36    4.3841   521.8    3.465      38.052
2015    3        1    22  41    4.3854   521.4    3.470      38.012
2015    3        1    22  46    4.3868   521.1    3.475      37.972
2015    3        1    22  51    4.3882   520.7    3.480      37.932
2015    3        1    22  57    4.3896   520.4    3.485      37.893
2015    3        1    23   2    4.3910   520.0    3.490      37.853
2015    3        1    23   7    4.3925   519.7    3.495      37.813
2015    3        1    23  12    4.3939   519.4    3.500      37.773
2015    3        1    23  18    4.3954   519.0    3.505      37.734
2015    3        1    23  23    4.3967   518.7    3.510      37.694
2015    3        1    23  28    4.3985   518.4    3.515      37.654
2015    3        1    23  33    4.4000   518.0    3.520      37.615
2015    3        1    23  38    4.4016   517.7    3.525      37.575
2015    3        1    23  44    4.4031   517.3    3.530      37.536
2015    3        1    23  49    4.4047   517.0    3.535      37.497
2015    3        1    23  54    4.4064   516.7    3.540      37.457
2015    3        1    23  59    4.4080   516.3    3.545      37.418
2015    3        2     0   4    4.4097   516.0    3.550      37.379
2015    3        2     0  10    4.4112   515.7    3.555      37.340
2015    3        2     0  15    4.4131   515.3    3.560      37.301
2015    3        2     0  20    4.4146   515.0    3.565      37.263
2015    3        2     0  25    4.4165   514.7    3.570      37.224
2015    3        2     0  30    4.4183   514.3    3.575      37.185
2015    3        2     0  35    4.4201   514.0    3.580      37.147
2015    3        2     0  41    4.4219   513.7    3.585      37.109
2015    3        2     0  46    4.4237   513.3    3.590      37.071
2015    3        2     0  51    4.4256   513.0    3.596      37.033
2015    3        2     0  56    4.4275   512.7    3.601      36.996
2015    3        2     1   1    4.4294   512.3    3.606      36.959
2015    3        2     1   7    4.4313   512.0    3.612      36.922
2015    3        2     1  12    4.4332   511.7    3.617      36.885
2015    3        2     1  17    4.4350   511.4    3.622      36.849
2015    3        2     1  22    4.4370   511.0    3.628      36.813
2015    3        2     1  27    4.4391   510.7    3.633      36.777
2015    3        2     1  33    4.4411   510.4    3.639      36.741
2015    3        2     1  38    4.4432   510.1    3.645      36.706
2015    3        2     1  43    4.4452   509.7    3.650      36.671
2015    3        2     1  48    4.4471   509.4    3.656      36.636
2015    3        2     1  53    4.4494   509.1    3.662      36.602
2015    3        2     1  59    4.4515   508.8    3.668      36.568
2015    3        2     2   4    4.4536   508.5    3.674      36.534
2015    3        2     2   9    4.4558   508.1    3.680      36.501
2015    3        2     2  14    4.4579   507.8    3.686      36.467
2015    3        2     2  19    4.4600   507.5    3.692      36.434
2015    3        2     2  25    4.4623   507.2    3.698      36.402
2015    3        2     2  30    4.4644   506.9    3.704      36.370
2015    3        2     2  35    4.4668   506.6    3.711      36.337
2015    3        2     2  40    4.4690   506.2    3.717      36.306
2015    3        2     2  45    4.4713   505.9    3.723      36.274
2015    3        2     2  51    4.4735   505.6    3.730      36.243
2015    3        2     2  56    4.4757   505.3    3.736      36.212
2015    3        2     3   1    4.4781   505.0    3.743      36.181
2015    3        2     3   6    4.4804   504.7    3.750      36.150
2015    3        2     3  11    4.4827   504.4    3.756      36.120
2015    3        2     3  17    4.4851   504.1    3.763      36.090
2015    3        2     3  22    4.4874   503.8    3.770      36.060
2015    3        2     3  27    4.4898   503.4    3.777      36.030
2015    3        2     3  32    4.4922   503.1    3.784      36.000
2015    3        2     3  37    4.4946   502.8    3.791      35.971
2015    3        2     3  43    4.4969   502.5    3.797      35.941
2015    3        2     3  48    4.4993   502.2    3.805      35.912
2015    3        2     3  53    4.5019   501.9    3.812      35.883
2015    3        2     3  58    4.5042   501.6    3.819      35.854
2015    3        2     4   3    4.5067   501.3    3.826      35.826
2015    3        2     4   9    4.5093   501.0    3.833      35.797
2015    3        2     4  14    4.5118   500.7    3.840      35.769
2015    3        2     4  19    4.5144   500.4    3.847      35.741
2015    3        2     4  24    4.5169   500.1    3.855      35.713
2015    3        2     4  29    4.5195   499.8    3.862      35.686
2015    3        2     4  35    4.5220   499.5    3.869      35.658
2015    3        2     4  40    4.5248   499.2    3.877      35.631
2015    3        2     4  45    4.5274   498.9    3.884      35.604
2015    3        2     4  50    4.5301   498.6    3.892      35.578
2015    3        2     4  55    4.5327   498.3    3.899      35.551
2015    3        2     5   1    4.5356   498.0    3.907      35.525
2015    3        2     5   6    4.5382   497.7    3.914      35.499
2015    3        2     5  11    4.5412   497.4    3.922      35.473
2015    3        2     5  16    4.5440   497.1    3.930      35.448
2015    3        2     5  22    4.5468   496.8    3.937      35.423
2015    3        2     5  27    4.5497   496.5    3.945      35.398
2015    3        2     5  32    4.5525   496.2    3.953      35.373
2015    3        2     5  37    4.5555   495.9    3.961      35.349
2015    3        2     5  42    4.5585   495.6    3.968      35.325
2015    3        2     5  48    4.5615   495.3    3.976      35.301
2015    3        2     5  53    4.5644   495.1    3.984      35.277
2015    3        2     5  58    4.5676   494.8    3.992      35.254
2015    3        2     6   3    4.5707   494.5    4.000      35.230
2015    3        2     6   8    4.5738   494.2    4.008      35.208
2015    3        2     6  14    4.5769   493.9    4.015      35.185
2015    3        2     6  19    4.5801   493.6    4.023      35.163
2015    3        2     6  24    4.5833   493.4    4.031      35.140
2015    3        2     6  29    4.5865   493.1    4.039      35.118
2015    3        2     6  34    4.5896   492.8    4.047      35.097
2015    3        2     6  40    4.5930   492.5    4.055      35.075
2015    3        2     6  45    4.5963   492.3    4.063      35.054
2015    3        2     6  50    4.5996   492.0    4.071      35.034
2015    3        2     6  55    4.6030   491.7    4.079      35.013
2015    3        2     7   0    4.6064   491.4    4.086      34.993
2015    3        2     7   6    4.6098   491.2    4.094      34.973
2015    3        2     7  11    4.6132   490.9    4.102      34.953
2015    3        2     7  16    4.6166   490.6    4.110      34.933
2015    3        2     7  21    4.6202   490.4    4.118      34.914
2015    3        2     7  26    4.6238   490.1    4.126      34.895
2015    3        2     7  32    4.6273   489.8    4.134      34.876
2015    3        2     7  37    4.6307   489.6    4.141      34.857
2015    3        2     7  42    4.6345   489.3    4.149      34.839
2015    3        2     7  47    4.6381   489.1    4.157      34.821
2015    3        2     7  52    4.6417   488.8    4.165      34.803
2015    3        2     7  58    4.6454   488.6    4.173      34.785
2015    3        2     8   3    4.6491   488.3    4.181      34.767
2015    3        2     8   8    4.6526   488.1    4.189      34.749
2015    3        2     8  13    4.6565   487.8    4.197      34.732
2015    3        2     8  18    4.6603   487.6    4.204      34.715
2015    3        2     8  24    4.6639   487.3    4.212      34.698
2015    3        2     8  29    4.6678   487.1    4.220      34.681
2015    3        2     8  34    4.6716   486.8    4.228      34.664
2015    3        2     8  39    4.6753   486.6    4.236      34.648
2015    3        2     8  44    4.6793   486.3    4.244      34.632
2015    3        2     8  50    4.6830   486.1    4.252      34.615
2015    3        2     8  55    4.6870   485.9    4.260      34.599
2015    3        2     9   0    4.6909   485.6    4.268      34.583
2015    3        2     9   5    4.6948   485.4    4.276      34.567
2015    3        2     9  10    4.6985   485.1    4.284      34.552
2015    3        2     9  15    4.7024   484.9    4.292      34.536
2015    3        2     9  21    4.7066   484.7    4.300      34.521
2015    3        2     9  26    4.7105   484.5    4.308      34.506
2015    3        2     9  31    4.7145   484.2    4.316      34.491
2015    3        2     9  36    4.7185   484.0    4.324      34.477
2015    3        2     9  41    4.7225   483.8    4.332      34.462
2015    3        2     9  47    4.7263   483.5    4.340      34.448
2015    3        2     9  52    4.7304   483.3    4.349      34.434
2015    3        2     9  57    4.7345   483.1    4.357      34.420
2015    3        2    10   2    4.7386   482.9    4.365      34.407
2015    3        2    10   7    4.7427   482.6    4.373      34.394
2015    3        2    10  13    4.7466   482.4    4.382      34.381
2015    3        2    10  18    4.7507   482.2    4.390      34.368
2015    3        2    10  23    4.7548   482.0    4.399      34.356
2015    3        2    10  28    4.7590   481.8    4.407      34.344
2015    3        2    10  34    4.7632   481.6    4.416      34.333
2015    3        2    10  39    4.7673   481.3    4.424      34.322
2015    3        2    10  44    4.7715   481.1    4.433      34.311
2015    3        2    10  49    4.7756   480.9    4.442      34.301
2015    3        2    10  54    4.7798   480.7    4.451      34.291
2015    3        2    11   0    4.7840   480.5    4.459      34.281
2015    3        2    11   5    4.7881   480.3    4.468      34.272
2015    3        2    11  10    4.7923   480.1    4.477      34.263
2015    3        2    11  15    4.7967   479.9    4.486      34.255
2015    3        2    11  20    4.8010   479.7    4.496      34.247
2015    3        2    11  26    4.8053   479.5    4.505      34.240
2015    3        2    11  31    4.8096   479.3    4.514      34.233
2015    3        2    11  36    4.8139   479.1    4.523      34.226
2015    3        2    11  41    4.8182   478.9    4.533      34.220
2015    3        2    11  46    4.8226   478.7    4.542      34.215
2015    3        2    11  52    4.8270   478.5    4.552      34.210
2015    3        2    11  57    4.8314   478.3    4.562      34.205
2015    3        2    12   2    4.8359   478.1    4.571      34.201
2015    3        2    12   7    4.8403   477.9    4.581      34.197
2015    3        2    12  12    4.8448   477.7    4.591      34.194
2015    3        2    12  18    4.8494   477.5    4.601      34.191
2015    3        2    12  23    4.8539   477.3    4.611      34.189
2015    3        2    12  28    4.8585   477.1    4.621      34.187
2015    3        2    12  33    4.8630   476.9    4.631      34.186
2015    3        2    12  38    4.8676   476.7    4.641      34.185
2015    3        2    12  44    4.8723   476.6    4.651      34.184
2015    3        2    12  49    4.8769   476.4    4.661      34.184
2015    3        2    12  54    4.8816   476.2    4.671      34.184
2015    3        2    12  59    4.8863   476.0    4.681      34.185
2015    3        2    13   4    4.8910   475.9    4.692      34.185
2015    3        2    13  10    4.8958   475.7    4.702      34.187
2015    3        2    13  15    4.9005   475.5    4.712      34.188
2015    3        2    13  20    4.9053   475.3    4.722      34.190
2015    3        2    13  25    4.9100   475.2    4.732      34.193
2015    3        2    13  30    4.9149   475.0    4.742      34.196
2015    3        2    13  36    4.9198   474.8    4.752      34.199
2015    3        2    13  41    4.9246   474.7    4.762      34.202
2015    3        2    13  46    4.9295   474.5    4.772      34.206
2015    3        2    13  51    4.9344   474.3    4.782      34.210
2015    3        2    13  56    4.9393   474.2    4.792      34.214
2015    3        2    14   2    4.9443   474.0    4.802      34.218
2015    3        2    14   7    4.9493   473.8    4.812      34.223
2015    3        2    14  12    4.9541   473.7    4.822      34.228
2015    3        2    14  17    4.9592   473.5    4.832      34.233
2015    3        2    14  23    4.9643   473.4    4.841      34.239
2015    3        2    14  28    4.9693   473.2    4.851      34.244
2015    3        2    14  33    4.9744   473.1    4.861      34.250
2015    3        2    14  38    4.9795   472.9    4.871      34.255
2015    3        2    14  43    4.9846   472.8    4.880      34.261
2015    3        2    14  48    4.9897   472.6    4.890      34.267
2015    3        2    14  54    4.9948   472.5    4.899      34.273
2015    3        2    14  59    5.0000   472.3    4.909      34.279
2015    3        2    15   4    5.0052   472.2    4.918      34.285
2015    3        2    15   9    5.0102   472.0    4.928      34.291
2015    3        2    15  14    5.0156   471.9    4.937      34.298
2015    3        2    15  20    5.0208   471.7    4.947      34.304
2015    3        2    15  25    5.0260   471.6    4.956      34.310
2015    3        2    15  30    5.0313   471.4    4.966      34.317
2015    3        2    15  35    5.0366   471.3    4.975      34.324
2015    3        2    15  40    5.0417   471.2    4.985      34.330
2015    3        2    15  46    5.0471   471.0    4.994      34.337
2015    3        2    15  51    5.0523   470.9    5.004      34.344
2015    3        2    15  56    5.0578   470.8    5.013      34.351
2015    3        2    16   1    5.0631   470.6    5.023      34.358
2015    3        2    16   6    5.0685   470.5    5.032      34.366
2015    3        2    16  12    5.0738   470.4    5.041      34.374
2015    3        2    16  17    5.0792   470.2    5.051      34.382
2015    3        2    16  22    5.0846   470.1    5.060      34.391
2015    3        2    16  27    5.0900   470.0    5.069      34.400
2015    3        2    16  32    5.0954   469.9    5.079      34.410
2015    3        2    16  38    5.1008   469.7    5.088      34.419
2015    3        2    16  43    5.1060   469.6    5.097      34.429
2015    3        2    16  48    5.1116   469.5    5.106      34.440
2015    3        2    16  53    5.1169   469.4    5.115      34.450
2015    3        2    16  58    5.1223   469.3    5.124      34.461
2015    3        2    17   4    5.1277   469.2    5.133      34.472
2015    3        2    17   9    5.1331   469.1    5.142      34.484
2015    3        2    17  14    5.1383   468.9    5.151      34.495
2015    3        2    17  19    5.1439   468.8    5.160      34.507
2015    3        2    17  24    5.1492   468.7    5.169      34.519
2015    3        2    17  30    5.1546   468.6    5.177      34.530
2015    3        2    17  35    5.1600   468.5    5.186      34.542
2015    3        2    17  40    5.1653   468.4    5.194      34.554
2015    3        2    17  45    5.1707   468.3    5.203      34.565
2015    3        2    17  50    5.1761   468.2    5.211      34.577
2015    3        2    17  56    5.1814   468.1    5.220      34.588
2015    3        2    18   1    5.1868   468.0    5.228      34.600
2015    3        2    18   6    5.1920   467.9    5.237      34.611
2015    3        2    18  11    5.1975   467.8    5.245      34.623
2015    3        2    18  16    5.2028   467.7    5.253      34.634
2015    3        2    18  22    5.2082   467.6    5.262      34.645
2015    3        2    18  27    5.2135   467.5    5.270      34.657
2015    3        2    18  32    5.2190   467.4    5.278      34.668
2015    3        2    18  37    5.2243   467.3    5.287      34.679
2015    3        2    18  42    5.2297   467.2    5.295      34.691
2015    3        2    18  48    5.2351   467.1    5.303      34.702
2015    3        2    18  53    5.2405   467.0    5.312      34.714
2015    3        2    18  58    5.2459   466.9    5.320      34.725
2015    3        2    19   3    5.2513   466.8    5.328      34.737
2015    3        2    19   8    5.2566   466.7    5.337      34.749
2015    3        2    19  14    5.2621   466.6    5.345      34.761
2015    3        2    19  19    5.2675   466.5    5.353      34.773
2015    3        2    19  24    5.2729   466.4    5.361      34.785
2015    3        2    19  29    5.2783   466.4    5.370      34.797
2015    3        2    19  34    5.2838   466.3    5.378      34.809
2015    3        2    19  40    5.2892   466.2    5.386      34.822
2015    3        2    19  45    5.2946   466.1    5.395      34.834
2015    3        2    19  50    5.3001   466.0    5.403      34.847
2015    3        2    19  55    5.3055   465.9    5.411      34.860
2015    3        2    20   1    5.3110   465.9    5.419      34.873
2015    3        2    20   6    5.3165   465.8    5.427      34.887
2015    3        2    20  11    5.3219   465.7    5.436      34.900
2015    3        2    20  16    5.3274   465.6    5.444      34.914
2015    3        2    20  21    5.3329   465.5    5.452      34.928
2015    3        2    20  27    5.3384   465.5    5.460      34.943
2015    3        2    20  32    5.3439   465.4    5.468      34.957
2015    3        2    20  37    5.3494   465.3    5.476      34.972
2015    3        2    20  42    5.3549   465.2    5.484      34.987
2015    3        2    20  47    5.3604   465.2    5.492      35.003
2015    3        2    20  53    5.3660   465.1    5.500      35.019
2015    3        2    20  58    5.3715   465.0    5.508      35.035
2015    3        2    21   3    5.3771   464.9    5.516      35.051
2015    3        2    21   8    5.3826   464.9    5.524      35.067
2015    3        2    21  13    5.3882   464.8    5.532      35.084
2015    3        2    21  19    5.3938   464.7    5.540      35.101
2015    3        2    21  24    5.3994   464.7    5.548      35.119
2015    3        2    21  29    5.4050   464.6    5.556      35.136
2015    3        2    21  34    5.4106   464.5    5.564      35.154
2015    3        2    21  39    5.4162   464.5    5.572      35.172
2015    3        2    21  45    5.4219   464.4    5.580      35.191
2015    3        2    21  50    5.4275   464.3    5.588      35.210
2015    3        2    21  55    5.4332   464.3    5.596      35.229
2015    3        2    22   0    5.4389   464.2    5.604      35.248
2015    3        2    22   5    5.4446   464.1    5.612      35.267
2015    3        2    22  11    5.4504   464.1    5.621      35.287
2015    3        2    22  16    5.4562   464.0    5.629      35.307
2015    3        2    22  21    5.4619   463.9    5.637      35.328
2015    3        2    22  26    5.4677   463.9    5.646      35.349
2015    3        2    22  31    5.4736   463.8    5.654      35.370
2015    3        2    22  37    5.4794   463.8    5.663      35.391
2015    3        2    22  42    5.4853   463.7    5.672      35.413
2015    3        2    22  47    5.4912   463.6    5.680      35.436
2015    3        2    22  52    5.4972   463.6    5.689      35.459
2015    3        2    22  57    5.5031   463.5    5.698      35.483
2015    3        2    23   3    5.5090   463.5    5.707      35.508
2015    3        2    23   8    5.5150   463.4    5.716      35.534
2015    3        2    23  13    5.5210   463.4    5.725      35.560
2015    3        2    23  18    5.5270   463.3    5.733      35.587
2015    3        2    23  23    5.5329   463.3    5.742      35.615
2015    3        2    23  28    5.5389   463.3    5.751      35.644
2015    3        2    23  34    5.5449   463.2    5.760      35.673
2015    3        2    23  39    5.5508   463.2    5.768      35.703
2015    3        2    23  44    5.5568   463.1    5.777      35.734
2015    3        2    23  49    5.5627   463.1    5.785      35.765
2015    3        2    23  54    5.5686   463.1    5.793      35.796
2015    3        3     0   0    5.5745   463.0    5.801      35.828
2015    3        3     0   5    5.5804   463.0    5.809      35.859
2015    3        3     0  10    5.5863   463.0    5.817      35.891
2015    3        3     0  15    5.5922   462.9    5.825      35.923
2015    3        3     0  20    5.5980   462.9    5.832      35.954
2015    3        3     0  26    5.6038   462.9    5.840      35.985
2015    3        3     0  31    5.6096   462.8    5.847      36.015
2015    3        3     0  36    5.6154   462.8    5.854      36.045
2015    3        3     0  41    5.6212   462.8    5.861      36.075
2015    3        3     0  46    5.6269   462.7    5.868      36.104
2015    3        3     0  52    5.6326   462.7    5.875      36.133
2015    3        3     0  57    5.6383   462.7    5.882      36.161
2015    3        3     1   2    5.6441   462.7    5.888      36.189
2015    3        3     1   7    5.6498   462.6    5.895      36.216
2015    3        3     1  12    5.6554   462.6    5.901      36.242
2015    3        3     1  18    5.6611   462.6    5.907      36.269
2015    3        3     1  23    5.6667   462.6    5.913      36.294
2015    3        3     1  28    5.6724   462.5    5.920      36.320
2015    3        3     1  33    5.6780   462.5    5.926      36.345
2015    3        3     1  38    5.6837   462.5    5.931      36.370
2015    3        3     1  44    5.6893   462.5    5.937      36.394
2015    3        3     1  49    5.6949   462.4    5.943      36.418
2015    3        3     1  54    5.7004   462.4    5.949      36.441
2015    3        3     1  59    5.7060   462.4    5.954      36.464
2015    3        3     2   4    5.7116   462.4    5.960      36.487
2015    3        3     2  10    5.7172   462.3    5.966      36.510
2015    3        3     2  15    5.7227   462.3    5.971      36.532
2015    3        3     2  20    5.7283   462.3    5.976      36.554
2015    3        3     2  25    5.7338   462.3    5.982      36.576
2015    3        3     2  31    5.7394   462.3    5.987      36.598
2015    3        3     2  36    5.7449   462.2    5.992      36.620
2015    3        3     2  41    5.7504   462.2    5.998      36.641
2015    3        3     2  46    5.7560   462.2    6.003      36.662
2015    3        3     2  51    5.7615   462.2    6.008      36.684
2015    3        3     2  57    5.7670   462.2    6.013      36.705
2015    3        3     3   2    5.7725   462.1    6.018      36.726
2015    3        3     3   7    5.7780   462.1    6.023      36.747
2015    3        3     3  12    5.7835   462.1    6.028      36.768
2015    3        3     3  17    5.7890   462.1    6.033      36.789
2015    3        3     3  23    5.7946   462.1    6.038      36.810
2015    3        3     3  28    5.8001   462.1    6.043      36.831
2015    3        3     3  33    5.8056   462.0    6.048      36.852
2015    3        3     3  38    5.8112   462.0    6.053      36.874
2015    3        3     3  43    5.8167   462.0    6.058      36.895
2015    3        3     3  49    5.8222   462.0    6.063      36.917
2015    3        3     3  54    5.8277   462.0    6.068      36.939
2015    3        3     3  59    5.8333   462.0    6.073      36.961
2015    3        3     4   4    5.8389   461.9    6.078      36.984
2015    3        3     4   9    5.8445   461.9    6.083      37.007
2015    3        3     4  15    5.8501   461.9    6.088      37.030
2015    3        3     4  20    5.8557   461.9    6.093      37.053
2015    3        3     4  25    5.8613   461.9    6.098      37.077
2015    3        3     4  30    5.8669   461.9    6.103      37.101
2015    3        3     4  35    5.8727   461.9    6.109      37.126
2015    3        3     4  41    5.8783   461.9    6.114      37.150
2015    3        3     4  46    5.8840   461.9    6.120      37.176
2015    3        3     4  51    5.8897   461.9    6.125      37.202
2015    3        3     4  56    5.8955   461.8    6.131      37.228
2015    3        3     5   1    5.9012   461.8    6.137      37.255
2015    3        3     5   7    5.9070   461.8    6.143      37.282
2015    3        3     5  12    5.9129   461.8    6.149      37.310
2015    3        3     5  17    5.9187   461.8    6.155      37.339
2015    3        3     5  22    5.9247   461.8    6.162      37.368
2015    3        3     5  27    5.9306   461.8    6.168      37.398
2015    3        3     5  33    5.9365   461.8    6.175      37.429
2015    3        3     5  38    5.9426   461.8    6.182      37.460
2015    3        3     5  43    5.9486   461.8    6.190      37.492
2015    3        3     5  48    5.9547   461.8    6.197      37.525
2015    3        3     5  53    5.9608   461.8    6.205      37.559
2015    3        3     5  59    5.9670   461.8    6.213      37.595
2015    3        3     6   4    5.9731   461.8    6.220      37.633
2015    3        3     6   9    5.9793   461.8    6.228      37.672
2015    3        3     6  14    5.9855   461.9    6.236      37.713
2015    3        3     6  19    5.9917   461.9    6.244      37.755
2015    3        3     6  25    5.9978   461.9    6.252      37.798
2015    3        3     6  30    6.0040   461.9    6.260      37.843
2015    3        3     6  35    6.0102   461.9    6.268      37.888
2015    3        3     6  40    6.0163   462.0    6.276      37.935
2015    3        3     6  45    6.0224   462.0    6.284      37.983
2015    3        3     6  51    6.0285   462.0    6.291      38.032
2015    3        3     6  56    6.0345   462.0    6.299      38.081
2015    3        3     7   1    6.0405   462.1    6.306      38.131
2015    3        3     7   6    6.0465   462.1    6.313      38.181
2015    3        3     7  11    6.0524   462.1    6.319      38.230
2015    3        3     7  17    6.0583   462.2    6.326      38.279
2015    3        3     7  22    6.0641   462.2    6.332      38.328
2015    3        3     7  27    6.0699   462.3    6.338      38.376
2015    3        3     7  32    6.0756   462.3    6.344      38.424
2015    3        3     7  37    6.0813   462.3    6.349      38.471
2015    3        3     7  43    6.0870   462.4    6.355      38.517
2015    3        3     7  48    6.0927   462.4    6.360      38.562
2015    3        3     7  53    6.0983   462.4    6.365      38.607
2015    3        3     7  58    6.1039   462.5    6.370      38.651
2015    3        3     8   3    6.1094   462.5    6.374      38.694
2015    3        3     8   9    6.1150   462.5    6.379      38.736
2015    3        3     8  14    6.1205   462.6    6.383      38.777
2015    3        3     8  19    6.1260   462.6    6.387      38.818
2015    3        3     8  24    6.1315   462.7    6.391      38.858
2015    3        3     8  29    6.1369   462.7    6.395      38.897
2015    3        3     8  35    6.1424   462.7    6.399      38.936
2015    3        3     8  40    6.1478   462.8    6.403      38.975
2015    3        3     8  45    6.1533   462.8    6.407      39.012
2015    3        3     8  50    6.1587   462.8    6.410      39.050
2015    3        3     8  55    6.1641   462.9    6.414      39.087
2015    3        3     9   1    6.1695   462.9    6.417      39.123
2015    3        3     9   6    6.1749   463.0    6.420      39.159
2015    3        3     9  11    6.1803   463.0    6.423      39.194
2015    3        3     9  16    6.1857   463.0    6.427      39.229
2015    3        3     9  21    6.1911   463.1    6.430      39.264
2015    3        3     9  27    6.1965   463.1    6.433      39.298
2015    3        3     9  32    6.2019   463.1    6.436      39.331
2015    3        3     9  37    6.2073   463.2    6.439      39.365
2015    3        3     9  42    6.2127   463.2    6.442      39.398
2015    3        3     9  47    6.2182   463.3    6.444      39.431
2015    3        3     9  53    6.2236   463.3    6.447      39.464
2015    3        3     9  58    6.2290   463.3    6.450      39.496
2015    3        3    10   3    6.2345   463.4    6.453      39.528
2015    3        3    10   8    6.2399   463.4    6.455      39.560
2015    3        3    10  13    6.2454   463.5    6.458      39.591
2015    3        3    10  19    6.2509   463.5    6.461      39.623
2015    3        3    10  24    6.2564   463.5    6.463      39.654
2015    3        3    10  29    6.2619   463.6    6.466      39.685
2015    3        3    10  34    6.2674   463.6    6.469      39.716
2015    3        3    10  39    6.2729   463.6    6.471      39.747
2015    3        3    10  45    6.2785   463.7    6.474      39.778
2015    3        3    10  50    6.2841   463.7    6.477      39.809
2015    3        3    10  55    6.2896   463.8    6.479      39.840
2015    3        3    11   0    6.2953   463.8    6.482      39.872
2015    3        3    11   5    6.3009   463.8    6.485      39.903
2015    3        3    11  11    6.3066   463.9    6.487      39.935
2015    3        3    11  16    6.3123   463.9    6.490      39.966
2015    3        3    11  21    6.3180   464.0    6.493      39.998
2015    3        3    11  26    6.3237   464.0    6.496      40.030
2015    3        3    11  31    6.3295   464.1    6.499      40.063
2015    3        3    11  37    6.3353   464.1    6.502      40.096
2015    3        3    11  42    6.3411   464.1    6.505      40.129
2015    3        3    11  47    6.3470   464.2    6.508      40.163
2015    3        3    11  52    6.3529   464.2    6.512      40.197
2015    3        3    11  57    6.3588   464.3    6.515      40.231
2015    3        3    12   3    6.3648   464.3    6.519      40.266
2015    3        3    12   8    6.3708   464.4    6.522      40.302
2015    3        3    12  13    6.3769   464.4    6.526      40.339
2015    3        3    12  18    6.3830   464.5    6.531      40.376
2015    3        3    12  23    6.3892   464.5    6.535      40.414
2015    3        3    12  29    6.3954   464.5    6.539      40.453
2015    3        3    12  34    6.4017   464.6    6.544      40.492
2015    3        3    12  39    6.4080   464.7    6.549      40.533
2015    3        3    12  44    6.4145   464.7    6.554      40.575
2015    3        3    12  49    6.4210   464.8    6.559      40.620
2015    3        3    12  55    6.4275   464.8    6.564      40.666
2015    3        3    13   0    6.4341   464.9    6.570      40.714
2015    3        3    13   5    6.4407   465.0    6.575      40.764
2015    3        3    13  10    6.4474   465.0    6.580      40.817
2015    3        3    13  15    6.4541   465.1    6.585      40.871
2015    3        3    13  21    6.4608   465.2    6.590      40.928
2015    3        3    13  26    6.4676   465.3    6.595      40.986
2015    3        3    13  31    6.4743   465.4    6.600      41.045
2015    3        3    13  36    6.4810   465.4    6.605      41.106
2015    3        3    13  41    6.4878   465.5    6.609      41.168
2015    3        3    13  47    6.4945   465.6    6.614      41.231
2015    3        3    13  52    6.5011   465.7    6.618      41.295
2015    3        3    13  57    6.5078   465.8    6.621      41.359
2015    3        3    14   2    6.5144   465.9    6.625      41.423
2015    3        3    14   7    6.5210   466.0    6.628      41.486
2015    3        3    14  13    6.5276   466.1    6.631      41.550
2015    3        3    14  18    6.5341   466.2    6.634      41.612
2015    3        3    14  23    6.5406   466.2    6.637      41.674
2015    3        3    14  28    6.5471   466.3    6.640      41.735
2015    3        3    14  33    6.5535   466.4    6.642      41.796
2015    3        3    14  39    6.5600   466.5    6.645      41.855
2015    3        3    14  44    6.5664   466.6    6.647      41.914
2015    3        3    14  49    6.5728   466.7    6.649      41.973
2015    3        3    14  54    6.5792   466.8    6.651      42.030
2015    3        3    14  59    6.5856   466.9    6.653      42.087
2015    3        3    15   5    6.5919   467.0    6.655      42.143
2015    3        3    15  10    6.5983   467.1    6.657      42.199
2015    3        3    15  15    6.6046   467.1    6.659      42.254
2015    3        3    15  20    6.6110   467.2    6.660      42.309
2015    3        3    15  25    6.6173   467.3    6.662      42.363
2015    3        3    15  31    6.6236   467.4    6.663      42.416
2015    3        3    15  36    6.6299   467.5    6.665      42.470
2015    3        3    15  41    6.6362   467.6    6.666      42.522
2015    3        3    15  46    6.6425   467.7    6.668      42.575
2015    3        3    15  51    6.6488   467.8    6.669      42.627
2015    3        3    15  57    6.6550   467.9    6.671      42.678
2015    3        3    16   2    6.6613   468.0    6.672      42.729
2015    3        3    16   7    6.6676   468.1    6.674      42.780
2015    3        3    16  12    6.6738   468.1    6.675      42.831
2015    3        3    16  17    6.6800   468.2    6.677      42.882
2015    3        3    16  23    6.6863   468.3    6.679      42.932
2015    3        3    16  28    6.6926   468.4    6.680      42.982
2015    3        3    16  33    6.6988   468.5    6.682      43.032
2015    3        3    16  38    6.7050   468.6    6.684      43.082
2015    3        3    16  43    6.7112   468.7    6.686      43.133
2015    3        3    16  49    6.7175   468.8    6.688      43.183
2015    3        3    16  54    6.7237   468.9    6.691      43.233
2015    3        3    16  59    6.7298   469.0    6.693      43.284
2015    3        3    17   4    6.7360   469.1    6.696      43.335
2015    3        3    17   9    6.7421   469.2    6.699      43.387
2015    3        3    17  15    6.7482   469.3    6.702      43.439
2015    3        3    17  20    6.7543   469.4    6.705      43.493
2015    3        3    17  25    6.7603   469.5    6.709      43.548
2015    3        3    17  30    6.7663   469.6    6.712      43.605
2015    3        3    17  35    6.7721   469.7    6.716      43.663
2015    3        3    17  41    6.7779   469.8    6.720      43.723
2015    3        3    17  46    6.7836   469.9    6.723      43.785
2015    3        3    17  51    6.7892   470.1    6.727      43.848
2015    3        3    17  56    6.7948   470.2    6.730      43.913
2015    3        3    18   1    6.8002   470.3    6.734      43.978
2015    3        3    18   7    6.8055   470.4    6.737      44.044
2015    3        3    18  12    6.8106   470.6    6.740      44.111
2015    3        3    18  17    6.8157   470.7    6.743      44.178
2015    3        3    18  22    6.8206   470.8    6.745      44.246
2015    3        3    18  27    6.8254   471.0    6.747      44.313
2015    3        3    18  33    6.8300   471.1    6.749      44.381
2015    3        3    18  38    6.8346   471.2    6.751      44.449
2015    3        3    18  43    6.8390   471.4    6.753      44.516
2015    3        3    18  48    6.8434   471.5    6.754      44.582
2015    3        3    18  53    6.8475   471.6    6.755      44.648
2015    3        3    18  59    6.8516   471.8    6.756      44.713
2015    3        3    19   4    6.8556   471.9    6.757      44.778
2015    3        3    19   9    6.8595   472.0    6.757      44.842
2015    3        3    19  14    6.8633   472.2    6.758      44.906
2015    3        3    19  19    6.8672   472.3    6.758      44.969
2015    3        3    19  25    6.8707   472.4    6.758      45.032
2015    3        3    19  30    6.8743   472.5    6.758      45.096
2015    3        3    19  35    6.8780   472.7    6.758      45.158
2015    3        3    19  40    6.8814   472.8    6.758      45.221
2015    3        3    19  45    6.8848   472.9    6.758      45.284
2015    3        3    19  51    6.8882   473.0    6.758      45.347
2015    3        3    19  56    6.8915   473.2    6.758      45.409
2015    3        3    20   1    6.8948   473.3    6.758      45.472
2015    3        3    20   6    6.8983   473.4    6.757      45.535
2015    3        3    20  11    6.9013   473.5    6.757      45.599
2015    3        3    20  17    6.9045   473.7    6.757      45.663
2015    3        3    20  22    6.9077   473.8    6.757      45.727
2015    3        3    20  27    6.9108   473.9    6.757      45.792
2015    3        3    20  32    6.9139   474.0    6.756      45.857
2015    3        3    20  37    6.9172   474.1    6.756      45.923
2015    3        3    20  43    6.9202   474.3    6.756      45.990
2015    3        3    20  48    6.9232   474.4    6.755      46.057
2015    3        3    20  53    6.9260   474.5    6.755      46.126
2015    3        3    20  58    6.9290   474.6    6.754      46.195
2015    3        3    21   3    6.9319   474.7    6.754      46.264
2015    3        3    21   9    6.9348   474.9    6.753      46.335
2015    3        3    21  14    6.9377   475.0    6.752      46.406
2015    3        3    21  19    6.9406   475.1    6.752      46.477
2015    3        3    21  24    6.9434   475.2    6.751      46.550
2015    3        3    21  29    6.9463   475.4    6.749      46.622
2015    3        3    21  35    6.9491   475.5    6.748      46.694
2015    3        3    21  40    6.9519   475.6    6.747      46.767
2015    3        3    21  45    6.9546   475.7    6.745      46.839
2015    3        3    21  50    6.9574   475.9    6.744      46.911
2015    3        3    21  55    6.9602   476.0    6.742      46.983
2015    3        3    22   1    6.9630   476.1    6.740      47.055
2015    3        3    22   6    6.9659   476.2    6.739      47.126
2015    3        3    22  11    6.9685   476.4    6.737      47.197
2015    3        3    22  16    6.9712   476.5    6.735      47.267
2015    3        3    22  21    6.9740   476.6    6.733      47.337
2015    3        3    22  27    6.9768   476.7    6.730      47.407
2015    3        3    22  32    6.9795   476.8    6.728      47.475
2015    3        3    22  37    6.9823   476.9    6.726      47.543
2015    3        3    22  42    6.9851   477.1    6.724      47.611
2015    3        3    22  47    6.9879   477.2    6.722      47.678
2015    3        3    22  53    6.9907   477.3    6.719      47.745
2015    3        3    22  58    6.9937   477.4    6.717      47.812
2015    3        3    23   3    6.9965   477.5    6.715      47.878
2015    3        3    23   8    6.9994   477.6    6.713      47.944
2015    3        3    23  13    7.0023   477.7    6.711      48.010
2015    3        3    23  19    7.0053   477.8    6.708      48.075
2015    3        3    23  24    7.0084   477.9    6.706      48.141
2015    3        3    23  29    7.0115   478.0    6.704      48.206
2015    3        3    23  34    7.0146   478.2    6.703      48.272
2015    3        3    23  39    7.0178   478.3    6.701      48.338
2015    3        3    23  45    7.0211   478.4    6.699      48.403
2015    3        3    23  50    7.0245   478.5    6.698      48.469
2015    3        3    23  55    7.0279   478.6    6.696      48.535
2015    3        4     0   0    7.0314   478.7    6.695      48.602
2015    3        4     0   5    7.0350   478.8    6.694      48.669
2015    3        4     0  11    7.0388   478.9    6.693      48.737
2015    3        4     0  16    7.0426   479.0    6.693      48.805
2015    3        4     0  21    7.0464   479.1    6.692      48.874
2015    3        4     0  26    7.0504   479.2    6.692      48.944
2015    3        4     0  31    7.0546   479.3    6.693      49.015
2015    3        4     0  37    7.0588   479.4    6.693      49.087
2015    3        4     0  42    7.0632   479.5    6.694      49.160
2015    3        4     0  47    7.0675   479.6    6.694      49.234
2015    3        4     0  52    7.0721   479.8    6.695      49.309
2015    3        4     0  57    7.0767   479.9    6.696      49.384
2015    3        4     1   3    7.0813   480.0    6.697      49.459
2015    3        4     1   8    7.0861   480.1    6.698      49.535
2015    3        4     1  13    7.0908   480.3    6.699      49.611
2015    3        4     1  18    7.0956   480.4    6.700      49.686
2015    3        4     1  23    7.1005   480.5    6.700      49.761
2015    3        4     1  29    7.1053   480.7    6.701      49.835
2015    3        4     1  34    7.1102   480.8    6.702      49.909
2015    3        4     1  39    7.1150   481.0    6.702      49.982
2015    3        4     1  44    7.1199   481.1    6.702      50.053
2015    3        4     1  49    7.1247   481.3    6.702      50.122
2015    3        4     1  55    7.1295   481.4    6.701      50.190
2015    3        4     2   0    7.1342   481.6    6.700      50.255
2015    3        4     2   5    7.1389   481.7    6.699      50.320
2015    3        4     2  10    7.1436   481.9    6.698      50.382
2015    3        4     2  15    7.1483   482.0    6.697      50.442
2015    3        4     2  21    7.1529   482.2    6.695      50.501
2015    3        4     2  26    7.1575   482.3    6.693      50.557
2015    3        4     2  31    7.1621   482.5    6.691      50.612
2015    3        4     2  36    7.1666   482.7    6.688      50.665
2015    3        4     2  41    7.1711   482.8    6.685      50.716
2015    3        4     2  47    7.1756   483.0    6.683      50.766
2015    3        4     2  52    7.1801   483.1    6.679      50.814
2015    3        4     2  57    7.1846   483.3    6.676      50.861
2015    3        4     3   2    7.1890   483.5    6.673      50.906
2015    3        4     3   7    7.1935   483.6    6.669      50.950
2015    3        4     3  13    7.1979   483.8    6.665      50.992
2015    3        4     3  18    7.2024   483.9    6.662      51.034
2015    3        4     3  23    7.2068   484.1    6.658      51.074
2015    3        4     3  28    7.2112   484.3    6.654      51.114
2015    3        4     3  33    7.2157   484.4    6.650      51.152
2015    3        4     3  39    7.2201   484.6    6.645      51.190
2015    3        4     3  44    7.2246   484.8    6.641      51.227
2015    3        4     3  49    7.2291   484.9    6.637      51.262
2015    3        4     3  54    7.2335   485.1    6.633      51.298
2015    3        4     3  59    7.2380   485.3    6.628      51.332
2015    3        4     4   5    7.2425   485.4    6.624      51.366
2015    3        4     4  10    7.2470   485.6    6.620      51.399
2015    3        4     4  15    7.2515   485.8    6.615      51.432
2015    3        4     4  20    7.2561   485.9    6.611      51.464
2015    3        4     4  25    7.2606   486.1    6.606      51.496
2015    3        4     4  31    7.2652   486.3    6.602      51.527
2015    3        4     4  36    7.2697   486.4    6.597      51.558
2015    3        4     4  41    7.2744   486.6    6.593      51.588
2015    3        4     4  46    7.2790   486.8    6.589      51.618
2015    3        4     4  51    7.2836   486.9    6.584      51.647
2015    3        4     4  56    7.2882   487.1    6.580      51.676
2015    3        4     5   2    7.2929   487.3    6.576      51.705
2015    3        4     5   7    7.2976   487.4    6.572      51.733
2015    3        4     5  12    7.3023   487.6    6.568      51.761
2015    3        4     5  17    7.3071   487.8    6.564      51.789
2015    3        4     5  22    7.3118   488.0    6.560      51.816
2015    3        4     5  28    7.3166   488.1    6.557      51.843
2015    3        4     5  33    7.3214   488.3    6.553      51.870
2015    3        4     5  38    7.3262   488.5    6.550      51.896
2015    3        4     5  43    7.3311   488.7    6.547      51.922
2015    3        4     5  48    7.3360   488.8    6.544      51.948
2015    3        4     5  54    7.3410   489.0    6.541      51.974
2015    3        4     5  59    7.3458   489.2    6.539      52.000
2015    3        4     6   4    7.3508   489.4    6.536      52.025
2015    3        4     6   9    7.3558   489.6    6.534      52.051
2015    3        4     6  14    7.3608   489.7    6.532      52.076
2015    3        4     6  20    7.3658   489.9    6.531      52.101
2015    3        4     6  25    7.3709   490.1    6.530      52.127
2015    3        4     6  30    7.3760   490.3    6.529      52.152
2015    3        4     6  35    7.3811   490.5    6.528      52.177
2015    3        4     6  40    7.3862   490.7    6.527      52.202
2015    3        4     6  46    7.3914   490.9    6.527      52.227
2015    3        4     6  51    7.3966   491.1    6.527      52.252
2015    3        4     6  56    7.4018   491.3    6.528      52.278
2015    3        4     7   1    7.4070   491.5    6.529      52.303
2015    3        4     7   6    7.4123   491.7    6.530      52.328
2015    3        4     7  12    7.4173   491.9    6.531      52.354
2015    3        4     7  17    7.4225   492.1    6.533      52.380
2015    3        4     7  22    7.4277   492.3    6.535      52.406
2015    3        4     7  27    7.4329   492.5    6.538      52.433
2015    3        4     7  32    7.4380   492.7    6.540      52.460
2015    3        4     7  38    7.4431   492.9    6.543      52.487
2015    3        4     7  43    7.4482   493.2    6.547      52.515
2015    3        4     7  48    7.4532   493.4    6.550      52.543
2015    3        4     7  53    7.4581   493.6    6.553      52.572
2015    3        4     7  59    7.4631   493.8    6.557      52.601
2015    3        4     8   4    7.4679   494.1    6.561      52.631
2015    3        4     8   9    7.4728   494.3    6.564      52.662
2015    3        4     8  14    7.4776   494.5    6.568      52.694
2015    3        4     8  19    7.4823   494.7    6.572      52.726
2015    3        4     8  25    7.4871   495.0    6.575      52.758
2015    3        4     8  30    7.4917   495.2    6.579      52.791
2015    3        4     8  35    7.4963   495.4    6.582      52.823
2015    3        4     8  40    7.5008   495.7    6.586      52.855
2015    3        4     8  45    7.5054   495.9    6.589      52.887
2015    3        4     8  51    7.5099   496.1    6.592      52.919
2015    3        4     8  56    7.5143   496.4    6.595      52.950
2015    3        4     9   1    7.5188   496.6    6.598      52.982
2015    3        4     9   6    7.5232   496.8    6.600      53.012
2015    3        4     9  11    7.5277   497.1    6.603      53.042
2015    3        4     9  17    7.5320   497.3    6.606      53.072
2015    3        4     9  22    7.5364   497.5    6.608      53.100
2015    3        4     9  27    7.5407   497.8    6.611      53.129
2015    3        4     9  32    7.5451   498.0    6.613      53.157
2015    3        4     9  37    7.5496   498.2    6.615      53.184
2015    3        4     9  43    7.5540   498.4    6.618      53.212
2015    3        4     9  48    7.5584   498.6    6.620      53.239
2015    3        4     9  53    7.5629   498.9    6.623      53.267
2015    3        4     9  58    7.5675   499.1    6.625      53.295
2015    3        4    10   3    7.5720   499.3    6.627      53.325
2015    3        4    10   9    7.5766   499.6    6.629      53.355
2015    3        4    10  14    7.5811   499.8    6.632      53.387
2015    3        4    10  19    7.5857   500.0    6.634      53.420
2015    3        4    10  24    7.5903   500.3    6.636      53.456
2015    3        4    10  29    7.5949   500.5    6.637      53.493
2015    3        4    10  34    7.5995   500.8    6.639      53.531
2015    3        4    10  40    7.6040   501.0    6.641      53.571
2015    3        4    10  45    7.6085   501.3    6.642      53.611
2015    3        4    10  50    7.6130   501.5    6.643      53.653
2015    3        4    10  55    7.6175   501.8    6.643      53.696
2015    3        4    11   0    7.6219   502.0    6.644      53.740
2015    3        4    11   6    7.6263   502.3    6.644      53.785
2015    3        4    11  11    7.6306   502.5    6.644      53.830
2015    3        4    11  16    7.6349   502.8    6.644      53.876
2015    3        4    11  21    7.6391   503.1    6.644      53.921
2015    3        4    11  26    7.6433   503.3    6.643      53.966
2015    3        4    11  32    7.6474   503.6    6.642      54.011
2015    3        4    11  37    7.6515   503.9    6.641      54.056
2015    3        4    11  42    7.6556   504.1    6.640      54.100
2015    3        4    11  47    7.6597   504.4    6.638      54.145
2015    3        4    11  52    7.6637   504.7    6.637      54.189
2015    3        4    11  58    7.6677   504.9    6.635      54.233
2015    3        4    12   3    7.6717   505.2    6.633      54.276
2015    3        4    12   8    7.6756   505.5    6.631      54.320
2015    3        4    12  13    7.6796   505.7    6.629      54.363
2015    3        4    12  18    7.6835   506.0    6.627      54.406
2015    3        4    12  24    7.6874   506.3    6.625      54.449
2015    3        4    12  29    7.6913   506.6    6.623      54.491
2015    3        4    12  34    7.6952   506.8    6.620      54.533
2015    3        4    12  39    7.6991   507.1    6.618      54.575
2015    3        4    12  44    7.7030   507.4    6.615      54.617
2015    3        4    12  50    7.7069   507.6    6.612      54.659
2015    3        4    12  55    7.7108   507.9    6.610      54.700
2015    3        4    13   0    7.7147   508.2    6.607      54.742
2015    3        4    13   5    7.7186   508.5    6.604      54.783
2015    3        4    13  10    7.7226   508.7    6.602      54.824
2015    3        4    13  16    7.7265   509.0    6.599      54.865
2015    3        4    13  21    7.7305   509.3    6.596      54.906
2015    3        4    13  26    7.7345   509.6    6.593      54.948
2015    3        4    13  31    7.7385   509.8    6.590      54.990
2015    3        4    13  36    7.7426   510.1    6.588      55.034
2015    3        4    13  42    7.7467   510.4    6.585      55.080
2015    3        4    13  47    7.7508   510.7    6.582      55.128
2015    3        4    13  52    7.7550   511.0    6.578      55.178
2015    3        4    13  57    7.7589   511.3    6.575      55.229
2015    3        4    14   2    7.7630   511.6    6.572      55.282
2015    3        4    14   8    7.7670   511.9    6.568      55.337
2015    3        4    14  13    7.7709   512.3    6.564      55.393
2015    3        4    14  18    7.7748   512.6    6.560      55.451
2015    3        4    14  23    7.7786   512.9    6.556      55.510
2015    3        4    14  28    7.7825   513.2    6.551      55.569
2015    3        4    14  34    7.7862   513.5    6.546      55.630
2015    3        4    14  39    7.7896   513.9    6.541      55.691
2015    3        4    14  44    7.7931   514.2    6.536      55.753
2015    3        4    14  49    7.7966   514.5    6.531      55.815
2015    3        4    14  54    7.7999   514.8    6.525      55.876
2015    3        4    15   0    7.8033   515.1    6.519      55.937
2015    3        4    15   5    7.8063   515.5    6.513      55.998
2015    3        4    15  10    7.8094   515.8    6.507      56.059
2015    3        4    15  15    7.8126   516.1    6.500      56.120
2015    3        4    15  20    7.8156   516.4    6.494      56.180
2015    3        4    15  26    7.8182   516.8    6.487      56.240
2015    3        4    15  31    7.8211   517.1    6.480      56.300
2015    3        4    15  36    7.8238   517.4    6.473      56.359
2015    3        4    15  41    7.8265   517.7    6.466      56.418
2015    3        4    15  46    7.8291   518.1    6.458      56.477
2015    3        4    15  52    7.8316   518.4    6.451      56.535
2015    3        4    15  57    7.8341   518.7    6.443      56.593
2015    3        4    16   2    7.8367   519.0    6.435      56.651
2015    3        4    16   7    7.8388   519.4    6.427      56.708
2015    3        4    16  12    7.8411   519.7    6.419      56.765
2015    3        4    16  18    7.8432   520.0    6.411      56.821
2015    3        4    16  23    7.8454   520.4    6.403      56.877
2015    3        4    16  28    7.8474   520.7    6.394      56.933
2015    3        4    16  33    7.8497   521.0    6.386      56.988
2015    3        4    16  38    7.8513   521.4    6.377      57.042
2015    3        4    16  44    7.8532   521.7    6.368      57.096
2015    3        4    16  49    7.8553   522.0    6.360      57.149
2015    3        4    16  54    7.8567   522.4    6.351      57.201
2015    3        4    16  59    7.8587   522.7    6.342      57.254
2015    3        4    17   4    7.8601   523.0    6.333      57.306
2015    3        4    17  10    7.8617   523.4    6.324      57.357
2015    3        4    17  15    7.8633   523.7    6.315      57.408
2015    3        4    17  20    7.8651   524.0    6.306      57.460
2015    3        4    17  25    7.8664   524.3    6.298      57.512
2015    3        4    17  30    7.8679   524.7    6.289      57.565
2015    3        4    17  36    7.8694   525.0    6.280      57.617
2015    3        4    17  41    7.8708   525.4    6.271      57.670
2015    3        4    17  46    7.8722   525.7    6.262      57.722
2015    3        4    17  51    7.8735   526.0    6.253      57.775
2015    3        4    17  56    7.8749   526.4    6.245      57.827
2015    3        4    18   2    7.8764   526.7    6.236      57.879
2015    3        4    18   7    7.8773   527.1    6.227      57.931
2015    3        4    18  12    7.8784   527.4    6.218      57.983
2015    3        4    18  17    7.8795   527.8    6.209      58.035
2015    3        4    18  22    7.8806   528.1    6.201      58.086
2015    3        4    18  28    7.8815   528.4    6.192      58.137
2015    3        4    18  33    7.8825   528.8    6.183      58.189
2015    3        4    18  38    7.8834   529.1    6.174      58.240
2015    3        4    18  43    7.8845   529.5    6.166      58.291
2015    3        4    18  48    7.8853   529.8    6.157      58.343
2015    3        4    18  54    7.8857   530.2    6.148      58.394
2015    3        4    18  59    7.8864   530.5    6.139      58.446
2015    3        4    19   4    7.8871   530.9    6.131      58.498
2015    3        4    19   9    7.8876   531.2    6.122      58.549
2015    3        4    19  14    7.8881   531.6    6.113      58.602
2015    3        4    19  19    7.8889   531.9    6.105      58.654
2015    3        4    19  25    7.8889   532.3    6.096      58.706
2015    3        4    19  30    7.8893   532.7    6.087      58.759
2015    3        4    19  35    7.8895   533.0    6.078      58.811
2015    3        4    19  40    7.8897   533.4    6.070      58.864
2015    3        4    19  45    7.8899   533.7    6.061      58.916
2015    3        4    19  51    7.8899   534.1    6.052      58.969
2015    3        4    19  56    7.8899   534.4    6.044      59.022
2015    3        4    20   1    7.8899   534.8    6.035      59.075
2015    3        4    20   6    7.8898   535.1    6.026      59.129
2015    3        4    20  11    7.8897   535.5    6.017      59.183
2015    3        4    20  17    7.8895   535.8    6.009      59.237
2015    3        4    20  22    7.8893   536.2    6.000      59.292
2015    3        4    20  27    7.8890   536.5    5.991      59.348
2015    3        4    20  32    7.8887   536.9    5.982      59.404
2015    3        4    20  37    7.8883   537.2    5.973      59.460
2015    3        4    20  43    7.8879   537.6    5.964      59.516
2015    3        4    20  48    7.8874   538.0    5.955      59.573
2015    3        4    20  53    7.8869   538.3    5.946      59.630
2015    3        4    20  58    7.8862   538.7    5.937      59.687
2015    3        4    21   3    7.8856   539.0    5.928      59.743
2015    3        4    21   9    7.8849   539.4    5.919      59.800
2015    3        4    21  14    7.8842   539.7    5.910      59.856
2015    3        4    21  19    7.8833   540.1    5.900      59.912
2015    3        4    21  24    7.8825   540.5    5.891      59.968
2015    3        4    21  29    7.8816   540.8    5.882      60.023
2015    3        4    21  35    7.8811   541.2    5.872      60.078
2015    3        4    21  40    7.8797   541.5    5.863      60.132
2015    3        4    21  45    7.8792   541.9    5.853      60.187
2015    3        4    21  50    7.8777   542.2    5.844      60.241
2015    3        4    21  55    7.8767   542.6    5.834      60.294
2015    3        4    22   1    7.8760   542.9    5.825      60.348
2015    3        4    22   6    7.8745   543.3    5.815      60.401
2015    3        4    22  11    7.8733   543.6    5.806      60.454
2015    3        4    22  16    7.8722   544.0    5.796      60.506
2015    3        4    22  21    7.8710   544.3    5.787      60.559
2015    3        4    22  27    7.8698   544.7    5.777      60.612
2015    3        4    22  32    7.8685   545.0    5.768      60.664
2015    3        4    22  37    7.8673   545.4    5.758      60.717
2015    3        4    22  42    7.8659   545.7    5.749      60.769
2015    3        4    22  47    7.8646   546.1    5.740      60.821
2015    3        4    22  53    7.8633   546.4    5.731      60.873
2015    3        4    22  58    7.8619   546.8    5.721      60.924
2015    3        4    23   3    7.8605   547.1    5.712      60.976
2015    3        4    23   8    7.8590   547.4    5.703      61.028
2015    3        4    23  13    7.8575   547.8    5.694      61.079
2015    3        4    23  19    7.8561   548.1    5.685      61.130
2015    3        4    23  24    7.8545   548.5    5.676      61.181
2015    3        4    23  29    7.8530   548.8    5.667      61.231
2015    3        4    23  34    7.8514   549.2    5.658      61.281
2015    3        4    23  39    7.8498   549.5    5.650      61.332
2015    3        4    23  45    7.8482   549.9    5.641      61.382
2015    3        4    23  50    7.8465   550.2    5.632      61.431
2015    3        4    23  55    7.8449   550.5    5.624      61.481
2015    3        5     0   0    7.8432   550.9    5.615      61.532
2015    3        5     0   5    7.8419   551.2    5.607      61.582
2015    3        5     0  11    7.8402   551.5    5.598      61.633
2015    3        5     0  16    7.8380   551.9    5.590      61.683
2015    3        5     0  21    7.8362   552.2    5.582      61.734
2015    3        5     0  26    7.8349   552.6    5.574      61.785
2015    3        5     0  31    7.8331   552.9    5.565      61.837
2015    3        5     0  37    7.8308   553.2    5.557      61.888
2015    3        5     0  42    7.8290   553.6    5.549      61.939
2015    3        5     0  47    7.8271   553.9    5.541      61.990
2015    3        5     0  52    7.8252   554.2    5.533      62.041
2015    3        5     0  57    7.8233   554.6    5.525      62.092
2015    3        5     1   3    7.8214   554.9    5.516      62.143
2015    3        5     1   8    7.8198   555.2    5.508      62.193
2015    3        5     1  13    7.8178   555.6    5.500      62.243
2015    3        5     1  18    7.8157   555.9    5.492      62.293
2015    3        5     1  23    7.8133   556.2    5.483      62.342
2015    3        5     1  29    7.8111   556.6    5.475      62.391
2015    3        5     1  34    7.8090   556.9    5.467      62.439
2015    3        5     1  39    7.8068   557.2    5.458      62.487
2015    3        5     1  44    7.8050   557.6    5.450      62.534
2015    3        5     1  49    7.8023   557.9    5.442      62.581
2015    3        5     1  55    7.8004   558.2    5.433      62.627
2015    3        5     2   0    7.7981   558.5    5.425      62.673
2015    3        5     2   5    7.7957   558.9    5.416      62.719
2015    3        5     2  10    7.7929   559.2    5.408      62.764
2015    3        5     2  15    7.7904   559.5    5.399      62.809
2015    3        5     2  21    7.7879   559.8    5.391      62.854
2015    3        5     2  26    7.7854   560.2    5.382      62.899
2015    3        5     2  31    7.7829   560.5    5.374      62.944
2015    3        5     2  36    7.7803   560.8    5.365      62.989
2015    3        5     2  41    7.7777   561.1    5.357      63.034
2015    3        5     2  46    7.7750   561.5    5.348      63.078
2015    3        5     2  52    7.7723   561.8    5.340      63.122
2015    3        5     2  57    7.7696   562.1    5.331      63.166
2015    3        5     3   2    7.7672   562.5    5.323      63.209
2015    3        5     3   7    7.7641   562.8    5.314      63.253
2015    3        5     3  12    7.7612   563.1    5.305      63.295
2015    3        5     3  18    7.7584   563.4    5.297      63.338
2015    3        5     3  23    7.7554   563.8    5.288      63.380
2015    3        5     3  28    7.7525   564.1    5.279      63.421
2015    3        5     3  33    7.7499   564.4    5.270      63.462
2015    3        5     3  38    7.7464   564.8    5.261      63.502
2015    3        5     3  44    7.7433   565.1    5.253      63.542
2015    3        5     3  49    7.7402   565.4    5.244      63.582
2015    3        5     3  54    7.7370   565.7    5.235      63.621
2015    3        5     3  59    7.7338   566.1    5.226      63.659
2015    3        5     4   4    7.7306   566.4    5.217      63.698
2015    3        5     4  10    7.7273   566.7    5.208      63.736
2015    3        5     4  15    7.7240   567.0    5.200      63.773
2015    3        5     4  20    7.7207   567.4    5.191      63.810
2015    3        5     4  25    7.7173   567.7    5.182      63.847
2015    3        5     4  30    7.7139   568.0    5.173      63.883
2015    3        5     4  36    7.7105   568.3    5.165      63.920
2015    3        5     4  41    7.7071   568.6    5.156      63.956
2015    3        5     4  46    7.7036   568.9    5.147      63.993
2015    3        5     4  51    7.7002   569.3    5.139      64.030
2015    3        5     4  56    7.6967   569.6    5.130      64.067
2015    3        5     5   2    7.6933   569.9    5.122      64.104
2015    3        5     5   7    7.6898   570.2    5.113      64.142
2015    3        5     5  12    7.6863   570.5    5.105      64.180
2015    3        5     5  17    7.6829   570.8    5.097      64.218
2015    3        5     5  22    7.6794   571.2    5.088      64.257
2015    3        5     5  28    7.6759   571.5    5.080      64.296
2015    3        5     5  33    7.6727   571.8    5.072      64.336
2015    3        5     5  38    7.6689   572.1    5.064      64.376
2015    3        5     5  43    7.6654   572.4    5.056      64.416
2015    3        5     5  48    7.6619   572.7    5.048      64.457
2015    3        5     5  54    7.6585   573.1    5.040      64.497
2015    3        5     5  59    7.6549   573.4    5.032      64.538
2015    3        5     6   4    7.6515   573.7    5.025      64.580
2015    3        5     6   9    7.6479   574.0    5.017      64.621
2015    3        5     6  14    7.6445   574.3    5.009      64.663
2015    3        5     6  20    7.6410   574.6    5.002      64.705
2015    3        5     6  25    7.6375   574.9    4.995      64.747
2015    3        5     6  30    7.6340   575.2    4.987      64.790
2015    3        5     6  35    7.6307   575.5    4.980      64.832
2015    3        5     6  40    7.6271   575.9    4.973      64.875
2015    3        5     6  46    7.6236   576.2    4.966      64.918
2015    3        5     6  51    7.6204   576.5    4.959      64.961
2015    3        5     6  56    7.6168   576.8    4.953      65.004
2015    3        5     7   1    7.6134   577.1    4.946      65.048
2015    3        5     7   6    7.6100   577.4    4.939      65.091
2015    3        5     7  12    7.6067   577.6    4.933      65.136
2015    3        5     7  17    7.6033   577.9    4.926      65.180
2015    3        5     7  22    7.6000   578.2    4.920      65.225
2015    3        5     7  27    7.5967   578.5    4.913      65.270
2015    3        5     7  32    7.5934   578.8    4.907      65.314
2015    3        5     7  38    7.5901   579.1    4.900      65.359
2015    3        5     7  43    7.5869   579.4    4.894      65.403
2015    3        5     7  48    7.5835   579.7    4.888      65.447
2015    3        5     7  53    7.5802   580.0    4.881      65.491
2015    3        5     7  58    7.5770   580.3    4.875      65.535
2015    3        5     8   4    7.5738   580.5    4.869      65.578
2015    3        5     8   9    7.5705   580.8    4.862      65.621
2015    3        5     8  14    7.5672   581.1    4.856      65.664
2015    3        5     8  19    7.5639   581.4    4.850      65.706
2015    3        5     8  24    7.5607   581.7    4.843      65.748
2015    3        5     8  30    7.5574   582.0    4.837      65.789
2015    3        5     8  35    7.5541   582.2    4.830      65.829
2015    3        5     8  40    7.5509   582.5    4.824      65.869
2015    3        5     8  45    7.5475   582.8    4.817      65.909
2015    3        5     8  50    7.5442   583.1    4.811      65.948
2015    3        5     8  56    7.5409   583.4    4.804      65.986
2015    3        5     9   1    7.5376   583.6    4.797      66.024
2015    3        5     9   6    7.5343   583.9    4.791      66.061
2015    3        5     9  11    7.5309   584.2    4.784      66.098
2015    3        5     9  16    7.5275   584.5    4.777      66.134
2015    3        5     9  22    7.5242   584.7    4.771      66.170
2015    3        5     9  27    7.5208   585.0    4.764      66.205
2015    3        5     9  32    7.5174   585.3    4.757      66.240
2015    3        5     9  37    7.5139   585.6    4.750      66.274
2015    3        5     9  42    7.5105   585.8    4.744      66.307
2015    3        5     9  48    7.5070   586.1    4.737      66.341
2015    3        5     9  53    7.5036   586.4    4.730      66.374
2015    3        5     9  58    7.5001   586.7    4.723      66.406
2015    3        5    10   3    7.4966   586.9    4.716      66.438
2015    3        5    10   8    7.4930   587.2    4.709      66.470
2015    3        5    10  13    7.4895   587.5    4.703      66.501
2015    3        5    10  19    7.4859   587.8    4.696      66.532
2015    3        5    10  24    7.4824   588.0    4.689      66.563
2015    3        5    10  29    7.4788   588.3    4.682      66.594
2015    3        5    10  34    7.4752   588.6    4.676      66.624
2015    3        5    10  39    7.4717   588.8    4.669      66.654
2015    3        5    10  45    7.4680   589.1    4.662      66.684
2015    3        5    10  50    7.4644   589.4    4.655      66.714
2015    3        5    10  55    7.4608   589.7    4.649      66.744
2015    3        5    11   0    7.4572   589.9    4.642      66.774
2015    3        5    11   5    7.4536   590.2    4.636      66.803
2015    3        5    11  11    7.4499   590.5    4.629      66.833
2015    3        5    11  16    7.4463   590.7    4.622      66.862
2015    3        5    11  21    7.4426   591.0    4.616      66.892
2015    3        5    11  26    7.4390   591.3    4.609      66.921
2015    3        5    11  31    7.4353   591.6    4.603      66.950
2015    3        5    11  37    7.4317   591.8    4.596      66.979
2015    3        5    11  42    7.4280   592.1    4.590      67.008
2015    3        5    11  47    7.4243   592.4    4.584      67.037
2015    3        5    11  52    7.4206   592.6    4.577      67.066
2015    3        5    11  57    7.4170   592.9    4.571      67.095
2015    3        5    12   3    7.4133   593.2    4.564      67.124
2015    3        5    12   8    7.4096   593.4    4.558      67.153
2015    3        5    12  13    7.4059   593.7    4.552      67.182
2015    3        5    12  18    7.4022   594.0    4.545      67.211
2015    3        5    12  23    7.3985   594.2    4.539      67.240
2015    3        5    12  29    7.3949   594.5    4.533      67.268
2015    3        5    12  34    7.3912   594.7    4.527      67.297
2015    3        5    12  39    7.3875   595.0    4.520      67.326
2015    3        5    12  44    7.3839   595.3    4.514      67.354
2015    3        5    12  49    7.3803   595.5    4.508      67.383
2015    3        5    12  55    7.3766   595.8    4.502      67.412
2015    3        5    13   0    7.3730   596.0    4.496      67.441
2015    3        5    13   5    7.3694   596.3    4.490      67.470
2015    3        5    13  10    7.3658   596.5    4.483      67.499
2015    3        5    13  15    7.3622   596.8    4.477      67.528
2015    3        5    13  21    7.3586   597.0    4.472      67.558
2015    3        5    13  26    7.3551   597.3    4.466      67.588
2015    3        5    13  31    7.3515   597.5    4.460      67.618
2015    3        5    13  36    7.3479   597.8    4.454      67.649
2015    3        5    13  41    7.3445   598.0    4.448      67.680
2015    3        5    13  47    7.3410   598.3    4.443      67.711
2015    3        5    13  52    7.3375   598.5    4.437      67.743
2015    3        5    13  57    7.3340   598.8    4.432      67.775
2015    3        5    14   2    7.3306   599.0    4.426      67.808
2015    3        5    14   7    7.3272   599.2    4.421      67.841
2015    3        5    14  13    7.3238   599.5    4.416      67.874
2015    3        5    14  18    7.3204   599.7    4.411      67.909
2015    3        5    14  23    7.3171   600.0    4.406      67.943
2015    3        5    14  28    7.3138   600.2    4.401      67.978
2015    3        5    14  33    7.3105   600.4    4.396      68.013
2015    3        5    14  39    7.3072   600.7    4.391      68.049
2015    3        5    14  44    7.3040   600.9    4.386      68.086
2015    3        5    14  49    7.3007   601.1    4.381      68.123
2015    3        5    14  54    7.2975   601.4    4.376      68.160
2015    3        5    14  59    7.2943   601.6    4.371      68.197
2015    3        5    15   5    7.2912   601.9    4.366      68.234
2015    3        5    15  10    7.2880   602.1    4.362      68.270
2015    3        5    15  15    7.2848   602.3    4.357      68.307
2015    3        5    15  20    7.2816   602.6    4.352      68.343
2015    3        5    15  25    7.2785   602.8    4.347      68.379
2015    3        5    15  31    7.2752   603.0    4.342      68.414
2015    3        5    15  36    7.2719   603.3    4.337      68.449
2015    3        5    15  41    7.2687   603.5    4.332      68.484
2015    3        5    15  46    7.2654   603.8    4.327      68.518
2015    3        5    15  51    7.2621   604.0    4.322      68.552
2015    3        5    15  57    7.2588   604.2    4.317      68.584
2015    3        5    16   2    7.2554   604.5    4.312      68.616
2015    3        5    16   7    7.2520   604.7    4.307      68.647
2015    3        5    16  12    7.2486   604.9    4.301      68.677
2015    3        5    16  17    7.2452   605.2    4.296      68.707
2015    3        5    16  22    7.2418   605.4    4.291      68.736
2015    3        5    16  28    7.2383   605.7    4.286      68.764
2015    3        5    16  33    7.2348   605.9    4.280      68.792
2015    3        5    16  38    7.2314   606.1    4.275      68.819
2015    3        5    16  43    7.2278   606.4    4.269      68.846
2015    3        5    16  48    7.2243   606.6    4.264      68.871
2015    3        5    16  54    7.2208   606.8    4.258      68.897
2015    3        5    16  59    7.2172   607.0    4.253      68.921
2015    3        5    17   4    7.2136   607.3    4.247      68.945
2015    3        5    17   9    7.2100   607.5    4.242      68.969
2015    3        5    17  14    7.2064   607.7    4.236      68.992
2015    3        5    17  20    7.2028   608.0    4.230      69.014
2015    3        5    17  25    7.1992   608.2    4.225      69.036
2015    3        5    17  30    7.1956   608.4    4.219      69.058
2015    3        5    17  35    7.1919   608.6    4.213      69.079
2015    3        5    17  40    7.1882   608.9    4.208      69.100
2015    3        5    17  46    7.1845   609.1    4.202      69.120
2015    3        5    17  51    7.1809   609.3    4.197      69.140
2015    3        5    17  56    7.1773   609.5    4.191      69.160
2015    3        5    18   1    7.1735   609.7    4.186      69.180
2015    3        5    18   6    7.1699   610.0    4.180      69.199
2015    3        5    18  12    7.1663   610.2    4.175      69.218
2015    3        5    18  17    7.1626   610.4    4.169      69.237
2015    3        5    18  22    7.1589   610.6    4.164      69.256
2015    3        5    18  27    7.1553   610.8    4.158      69.275
2015    3        5    18  32    7.1516   611.0    4.153      69.294
2015    3        5    18  38    7.1479   611.2    4.148      69.313
2015    3        5    18  43    7.1444   611.5    4.142      69.332
2015    3        5    18  48    7.1407   611.7    4.137      69.352
2015    3        5    18  53    7.1371   611.9    4.132      69.371
2015    3        5    18  58    7.1335   612.1    4.127      69.390
2015    3        5    19   4    7.1300   612.3    4.122      69.410
2015    3        5    19   9    7.1264   612.5    4.117      69.430
2015    3        5    19  14    7.1227   612.7    4.112      69.450
2015    3        5    19  19    7.1193   612.9    4.107      69.470
2015    3        5    19  24    7.1157   613.1    4.102      69.491
2015    3        5    19  30    7.1122   613.3    4.097      69.511
2015    3        5    19  35    7.1087   613.5    4.093      69.532
2015    3        5    19  40    7.1051   613.7    4.088      69.552
2015    3        5    19  45    7.1017   614.0    4.084      69.572
2015    3        5    19  50    7.0982   614.2    4.079      69.593
2015    3        5    19  56    7.0947   614.4    4.075      69.613
2015    3        5    20   1    7.0912   614.6    4.070      69.633
2015    3        5    20   6    7.0877   614.8    4.066      69.652
2015    3        5    20  11    7.0842   615.0    4.061      69.672
2015    3        5    20  16    7.0807   615.2    4.057      69.691
2015    3        5    20  22    7.0773   615.4    4.052      69.710
2015    3        5    20  27    7.0738   615.6    4.048      69.728
2015    3        5    20  32    7.0703   615.7    4.044      69.747
2015    3        5    20  37    7.0669   615.9    4.039      69.765
2015    3        5    20  42    7.0634   616.1    4.035      69.784
2015    3        5    20  48    7.0600   616.3    4.031      69.802
2015    3        5    20  53    7.0566   616.5    4.027      69.820
2015    3        5    20  58    7.0532   616.7    4.023      69.839
2015    3        5    21   3    7.0498   616.9    4.019      69.858
2015    3        5    21   8    7.0465   617.1    4.015      69.877
2015    3        5    21  13    7.0431   617.3    4.011      69.897
2015    3        5    21  19    7.0398   617.4    4.007      69.917
2015    3        5    21  24    7.0365   617.6    4.004      69.937
2015    3        5    21  29    7.0332   617.8    4.000      69.959
2015    3        5    21  34    7.0300   618.0    3.996      69.981
2015    3        5    21  39    7.0267   618.2    3.993      70.004
2015    3        5    21  45    7.0234   618.4    3.989      70.027
2015    3        5    21  50    7.0202   618.5    3.985      70.050
2015    3        5    21  55    7.0169   618.7    3.981      70.074
2015    3        5    22   0    7.0137   618.9    3.978      70.097
2015    3        5    22   5    7.0104   619.1    3.974      70.121
2015    3        5    22  11    7.0072   619.3    3.970      70.144
2015    3        5    22  16    7.0039   619.5    3.966      70.166
2015    3        5    22  21    7.0007   619.6    3.962      70.189
2015    3        5    22  26    6.9974   619.8    3.959      70.211
2015    3        5    22  31    6.9942   620.0    3.955      70.233
2015    3        5    22  37    6.9909   620.2    3.950      70.254
2015    3        5    22  42    6.9875   620.4    3.946      70.274
2015    3        5    22  47    6.9842   620.6    3.942      70.294
2015    3        5    22  52    6.9809   620.7    3.938      70.314
2015    3        5    22  57    6.9776   620.9    3.934      70.333
2015    3        5    23   3    6.9743   621.1    3.930      70.351
2015    3        5    23   8    6.9709   621.3    3.925      70.369
2015    3        5    23  13    6.9676   621.5    3.921      70.386
2015    3        5    23  18    6.9642   621.6    3.916      70.403
2015    3        5    23  23    6.9608   621.8    3.912      70.419
2015    3        5    23  29    6.9574   622.0    3.907      70.435
2015    3        5    23  34    6.9540   622.2    3.903      70.450
2015    3        5    23  39    6.9506   622.4    3.898      70.465
2015    3        5    23  44    6.9472   622.5    3.894      70.480
2015    3        5    23  49    6.9438   622.7    3.889      70.494
2015    3        5    23  55    6.9404   622.9    3.885      70.508
2015    3        6     0   0    6.9370   623.1    3.880      70.522
2015    3        6     0   5    6.9335   623.3    3.875      70.535
2015    3        6     0  10    6.9301   623.4    3.871      70.548
2015    3        6     0  15    6.9267   623.6    3.866      70.560
2015    3        6     0  21    6.9232   623.8    3.861      70.573
2015    3        6     0  26    6.9198   623.9    3.857      70.585
2015    3        6     0  31    6.9164   624.1    3.852      70.597
2015    3        6     0  36    6.9130   624.3    3.848      70.609
2015    3        6     0  41    6.9095   624.4    3.843      70.621
2015    3        6     0  47    6.9061   624.6    3.838      70.632
2015    3        6     0  52    6.9027   624.8    3.834      70.644
2015    3        6     0  57    6.8993   624.9    3.829      70.655
2015    3        6     1   2    6.8958   625.1    3.825      70.667
2015    3        6     1   7    6.8925   625.3    3.820      70.678
2015    3        6     1  12    6.8891   625.4    3.816      70.690
2015    3        6     1  18    6.8857   625.6    3.812      70.702
2015    3        6     1  23    6.8823   625.7    3.807      70.714
2015    3        6     1  28    6.8790   625.9    3.803      70.727
2015    3        6     1  33    6.8757   626.0    3.799      70.740
2015    3        6     1  38    6.8724   626.2    3.795      70.754
2015    3        6     1  44    6.8691   626.4    3.791      70.768
2015    3        6     1  49    6.8658   626.5    3.787      70.783
2015    3        6     1  54    6.8626   626.7    3.784      70.799
2015    3        6     1  59    6.8594   626.8    3.780      70.816
2015    3        6     2   4    6.8562   627.0    3.777      70.833
2015    3        6     2  10    6.8529   627.1    3.773      70.850
2015    3        6     2  15    6.8498   627.3    3.770      70.868
2015    3        6     2  20    6.8467   627.4    3.767      70.887
2015    3        6     2  25    6.8435   627.6    3.764      70.906
2015    3        6     2  30    6.8403   627.8    3.761      70.925
2015    3        6     2  36    6.8372   627.9    3.758      70.944
2015    3        6     2  41    6.8340   628.1    3.755      70.963
2015    3        6     2  46    6.8308   628.2    3.752      70.982
2015    3        6     2  51    6.8276   628.4    3.749      71.000
2015    3        6     2  56    6.8244   628.6    3.746      71.017
2015    3        6     3   2    6.8212   628.7    3.743      71.034
2015    3        6     3   7    6.8179   628.9    3.740      71.051
2015    3        6     3  12    6.8147   629.0    3.737      71.067
2015    3        6     3  17    6.8114   629.2    3.734      71.082
2015    3        6     3  22    6.8081   629.3    3.731      71.097
2015    3        6     3  28    6.8049   629.5    3.728      71.110
2015    3        6     3  33    6.8016   629.7    3.725      71.124
2015    3        6     3  38    6.7983   629.8    3.722      71.136
2015    3        6     3  43    6.7950   630.0    3.719      71.148
2015    3        6     3  48    6.7918   630.1    3.716      71.159
2015    3        6     3  54    6.7885   630.3    3.713      71.170
2015    3        6     3  59    6.7851   630.4    3.710      71.180
2015    3        6     4   4    6.7818   630.5    3.707      71.190
2015    3        6     4   9    6.7785   630.7    3.704      71.200
2015    3        6     4  14    6.7752   630.8    3.700      71.209
2015    3        6     4  20    6.7719   631.0    3.697      71.217
2015    3        6     4  25    6.7686   631.1    3.694      71.225
2015    3        6     4  30    6.7653   631.3    3.691      71.233
2015    3        6     4  35    6.7620   631.4    3.687      71.240
2015    3        6     4  40    6.7587   631.6    3.684      71.246
2015    3        6     4  46    6.7554   631.7    3.680      71.251
2015    3        6     4  51    6.7520   631.8    3.677      71.257
2015    3        6     4  56    6.7487   632.0    3.673      71.261
2015    3        6     5   1    6.7454   632.1    3.670      71.265
2015    3        6     5   6    6.7420   632.3    3.666      71.268
2015    3        6     5  12    6.7387   632.4    3.662      71.270
2015    3        6     5  17    6.7354   632.5    3.659      71.273
2015    3        6     5  22    6.7320   632.7    3.655      71.275
2015    3        6     5  27    6.7287   632.8    3.651      71.276
2015    3        6     5  32    6.7253   632.9    3.647      71.277
2015    3        6     5  37    6.7220   633.1    3.644      71.278
2015    3        6     5  43    6.7187   633.2    3.640      71.279
2015    3        6     5  48    6.7153   633.3    3.636      71.280
2015    3        6     5  53    6.7120   633.5    3.632      71.280
2015    3        6     5  58    6.7087   633.6    3.628      71.281
2015    3        6     6   3    6.7054   633.7    3.624      71.282
2015    3        6     6   9    6.7021   633.9    3.621      71.283
2015    3        6     6  14    6.6988   634.0    3.617      71.284
2015    3        6     6  19    6.6955   634.1    3.613      71.285
2015    3        6     6  24    6.6922   634.2    3.609      71.287
2015    3        6     6  29    6.6890   634.3    3.606      71.288
2015    3        6     6  35    6.6857   634.5    3.602      71.290
2015    3        6     6  40    6.6825   634.6    3.598      71.293
2015    3        6     6  45    6.6793   634.7    3.595      71.295
2015    3        6     6  50    6.6761   634.8    3.591      71.298
2015    3        6     6  55    6.6730   634.9    3.588      71.302
2015    3        6     7   1    6.6698   635.1    3.585      71.306
2015    3        6     7   6    6.6667   635.2    3.581      71.312
2015    3        6     7  11    6.6636   635.3    3.578      71.318
2015    3        6     7  16    6.6605   635.4    3.575      71.325
2015    3        6     7  21    6.6574   635.5    3.572      71.333
2015    3        6     7  27    6.6543   635.7    3.569      71.341
2015    3        6     7  32    6.6513   635.8    3.566      71.350
2015    3        6     7  37    6.6482   635.9    3.563      71.359
2015    3        6     7  42    6.6452   636.0    3.559      71.368
2015    3        6     7  47    6.6421   636.1    3.556      71.377
2015    3        6     7  53    6.6391   636.3    3.553      71.387
2015    3        6     7  58    6.6360   636.4    3.550      71.397
2015    3        6     8   3    6.6329   636.5    3.547      71.407
2015    3        6     8   8    6.6299   636.6    3.544      71.416
2015    3        6     8  13    6.6268   636.7    3.541      71.426
2015    3        6     8  19    6.6238   636.9    3.538      71.435
2015    3        6     8  24    6.6207   637.0    3.535      71.445
2015    3        6     8  29    6.6177   637.1    3.532      71.455
2015    3        6     8  34    6.6146   637.2    3.529      71.465
2015    3        6     8  39    6.6116   637.3    3.526      71.476
2015    3        6     8  45    6.6085   637.4    3.524      71.487
2015    3        6     8  50    6.6055   637.6    3.521      71.498
2015    3        6     8  55    6.6024   637.7    3.518      71.509
2015    3        6     9   0    6.5994   637.8    3.516      71.520
2015    3        6     9   5    6.5963   637.9    3.513      71.531
2015    3        6     9  10    6.5932   638.0    3.510      71.542
2015    3        6     9  16    6.5901   638.2    3.508      71.552
2015    3        6     9  21    6.5870   638.3    3.505      71.562
2015    3        6     9  26    6.5839   638.4    3.502      71.572
2015    3        6     9  31    6.5808   638.5    3.500      71.581
2015    3        6     9  36    6.5776   638.6    3.497      71.589
2015    3        6     9  42    6.5744   638.7    3.494      71.596
2015    3        6     9  47    6.5712   638.9    3.492      71.603
2015    3        6     9  52    6.5680   639.0    3.489      71.608
2015    3        6     9  57    6.5648   639.1    3.486      71.613
2015    3        6    10   2    6.5616   639.2    3.484      71.617
2015    3        6    10   8    6.5583   639.3    3.481      71.620
2015    3        6    10  13    6.5551   639.4    3.478      71.623
2015    3        6    10  18    6.5518   639.5    3.475      71.624
2015    3        6    10  23    6.5485   639.6    3.472      71.625
2015    3        6    10  28    6.5452   639.7    3.469      71.625
2015    3        6    10  34    6.5419   639.8    3.466      71.624
2015    3        6    10  39    6.5385   639.9    3.463      71.621
2015    3        6    10  44    6.5352   640.0    3.460      71.618
2015    3        6    10  49    6.5319   640.1    3.457      71.615
2015    3        6    10  54    6.5285   640.2    3.454      71.610
2015    3        6    11   0    6.5252   640.3    3.450      71.604
2015    3        6    11   5    6.5218   640.4    3.447      71.598
2015    3        6    11  10    6.5184   640.5    3.444      71.591
2015    3        6    11  15    6.5151   640.6    3.441      71.583
2015    3        6    11  20    6.5118   640.7    3.437      71.575
2015    3        6    11  26    6.5084   640.8    3.434      71.567
2015    3        6    11  31    6.5051   640.9    3.431      71.558
2015    3        6    11  36    6.5018   641.0    3.428      71.549
2015    3        6    11  41    6.4985   641.0    3.425      71.540
2015    3        6    11  46    6.4952   641.1    3.422      71.531
2015    3        6    11  52    6.4920   641.2    3.418      71.522
2015    3        6    11  57    6.4887   641.3    3.415      71.513
2015    3        6    12   2    6.4855   641.4    3.412      71.504
2015    3        6    12   7    6.4822   641.5    3.409      71.495
2015    3        6    12  12    6.4790   641.5    3.406      71.487
2015    3        6    12  18    6.4758   641.6    3.403      71.478
2015    3        6    12  23    6.4725   641.7    3.401      71.470
2015    3        6    12  28    6.4694   641.8    3.398      71.461
2015    3        6    12  33    6.4662   641.8    3.395      71.453
2015    3        6    12  38    6.4630   641.9    3.392      71.445
2015    3        6    12  44    6.4598   642.0    3.389      71.437
2015    3        6    12  49    6.4566   642.0    3.387      71.430
2015    3        6    12  54    6.4534   642.1    3.384      71.422
2015    3        6    12  59    6.4503   642.2    3.381      71.414
2015    3        6    13   4    6.4471   642.2    3.379      71.407
2015    3        6    13  10    6.4440   642.3    3.376      71.401
2015    3        6    13  15    6.4408   642.3    3.373      71.395
2015    3        6    13  20    6.4377   642.4    3.371      71.390
2015    3        6    13  25    6.4346   642.5    3.369      71.386
2015    3        6    13  30    6.4315   642.5    3.366      71.383
2015    3        6    13  35    6.4285   642.6    3.364      71.380
2015    3        6    13  41    6.4255   642.6    3.362      71.378
2015    3        6    13  46    6.4225   642.7    3.359      71.377
2015    3        6    13  51    6.4196   642.7    3.357      71.377
2015    3        6    13  56    6.4166   642.8    3.355      71.378
2015    3        6    14   1    6.4138   642.8    3.353      71.379
2015    3        6    14   7    6.4109   642.9    3.351      71.382
2015    3        6    14  12    6.4081   643.0    3.349      71.387
2015    3        6    14  17    6.4053   643.0    3.347      71.393
2015    3        6    14  22    6.4026   643.1    3.346      71.400
2015    3        6    14  27    6.3999   643.2    3.344      71.408
2015    3        6    14  33    6.3971   643.2    3.342      71.418
2015    3        6    14  38    6.3944   643.3    3.340      71.427
2015    3        6    14  43    6.3917   643.4    3.339      71.437
2015    3        6    14  48    6.3890   643.4    3.337      71.446
2015    3        6    14  53    6.3863   643.5    3.335      71.456
2015    3        6    14  59    6.3835   643.6    3.333      71.465
2015    3        6    15   4    6.3807   643.7    3.331      71.474
2015    3        6    15   9    6.3780   643.8    3.329      71.481
2015    3        6    15  14    6.3751   643.8    3.327      71.487
2015    3        6    15  19    6.3723   643.9    3.325      71.492
2015    3        6    15  25    6.3694   644.0    3.323      71.496
2015    3        6    15  30    6.3665   644.1    3.321      71.499
2015    3        6    15  35    6.3636   644.1    3.318      71.500
2015    3        6    15  40    6.3607   644.2    3.316      71.500
2015    3        6    15  45    6.3577   644.3    3.313      71.498
2015    3        6    15  51    6.3547   644.4    3.311      71.496
2015    3        6    15  56    6.3518   644.4    3.308      71.492
2015    3        6    16   1    6.3487   644.5    3.306      71.487
2015    3        6    16   6    6.3457   644.6    3.303      71.481
2015    3        6    16  11    6.3427   644.6    3.301      71.474
2015    3        6    16  17    6.3397   644.7    3.298      71.466
2015    3        6    16  22    6.3366   644.7    3.295      71.457
2015    3        6    16  27    6.3336   644.8    3.293      71.447
2015    3        6    16  32    6.3305   644.9    3.290      71.437
2015    3        6    16  37    6.3274   644.9    3.287      71.425
2015    3        6    16  43    6.3243   645.0    3.285      71.413
2015    3        6    16  48    6.3213   645.0    3.282      71.400
2015    3        6    16  53    6.3182   645.1    3.279      71.387
2015    3        6    16  58    6.3151   645.1    3.276      71.372
2015    3        6    17   3    6.3120   645.2    3.273      71.357
2015    3        6    17   8    6.3088   645.2    3.270      71.341
2015    3        6    17  14    6.3057   645.3    3.267      71.324
2015    3        6    17  19    6.3026   645.3    3.265      71.306
2015    3        6    17  24    6.2994   645.4    3.262      71.287
2015    3        6    17  29    6.2963   645.4    3.259      71.268
2015    3        6    17  34    6.2931   645.5    3.256      71.248
2015    3        6    17  40    6.2900   645.5    3.253      71.227
2015    3        6    17  45    6.2868   645.5    3.250      71.206
2015    3        6    17  50    6.2837   645.6    3.247      71.185
2015    3        6    17  55    6.2805   645.6    3.244      71.164
2015    3        6    18   0    6.2774   645.6    3.241      71.142
2015    3        6    18   6    6.2743   645.6    3.238      71.121
2015    3        6    18  11    6.2712   645.7    3.235      71.100
2015    3        6    18  16    6.2682   645.7    3.233      71.080
2015    3        6    18  21    6.2651   645.7    3.230      71.060
2015    3        6    18  26    6.2620   645.7    3.227      71.041
2015    3        6    18  32    6.2591   645.8    3.225      71.022
2015    3        6    18  37    6.2561   645.8    3.222      71.004
2015    3        6    18  42    6.2531   645.8    3.220      70.987
2015    3        6    18  47    6.2502   645.8    3.218      70.971
2015    3        6    18  52    6.2472   645.8    3.215      70.956
2015    3        6    18  58    6.2443   645.8    3.213      70.942
2015    3        6    19   3    6.2415   645.9    3.211      70.929
2015    3        6    19   8    6.2386   645.9    3.209      70.916
2015    3        6    19  13    6.2358   645.9    3.207      70.905
2015    3        6    19  18    6.2329   645.9    3.205      70.894
2015    3        6    19  24    6.2301   645.9    3.204      70.883
2015    3        6    19  29    6.2273   645.9    3.202      70.874
2015    3        6    19  34    6.2245   646.0    3.200      70.865
2015    3        6    19  39    6.2217   646.0    3.198      70.856
2015    3        6    19  44    6.2189   646.0    3.197      70.847
2015    3        6    19  50    6.2161   646.0    3.195      70.839
2015    3        6    19  55    6.2134   646.0    3.193      70.831
2015    3        6    20   0    6.2106   646.0    3.192      70.823
2015    3        6    20   5    6.2078   646.0    3.190      70.815
2015    3        6    20  10    6.2050   646.0    3.189      70.808
2015    3        6    20  16    6.2022   646.0    3.187      70.800
2015    3        6    20  21    6.1995   646.0    3.186      70.793
2015    3        6    20  26    6.1967   646.0    3.184      70.785
2015    3        6    20  31    6.1940   646.0    3.183      70.778
2015    3        6    20  36    6.1913   646.0    3.182      70.773
2015    3        6    20  42    6.1887   646.0    3.180      70.768
2015    3        6    20  47    6.1860   646.0    3.179      70.764
2015    3        6    20  52    6.1834   646.0    3.178      70.761
2015    3        6    20  57    6.1808   646.0    3.176      70.759
2015    3        6    21   2    6.1783   646.0    3.175      70.757
2015    3        6    21   8    6.1758   646.0    3.174      70.756
2015    3        6    21  13    6.1733   646.0    3.172      70.755
2015    3        6    21  18    6.1708   646.0    3.171      70.755
2015    3        6    21  23    6.1684   646.0    3.170      70.754
2015    3        6    21  28    6.1659   646.0    3.169      70.754
2015    3        6    21  33    6.1635   646.0    3.167      70.754
2015    3        6    21  39    6.1611   646.0    3.166      70.752
2015    3        6    21  44    6.1587   646.0    3.165      70.751
2015    3        6    21  49    6.1562   646.0    3.164      70.749
2015    3        6    21  54    6.1539   646.1    3.162      70.747
2015    3        6    21  59    6.1515   646.1    3.161      70.744
2015    3        6    22   5    6.1491   646.1    3.160      70.741
2015    3        6    22  10    6.1467   646.1    3.158      70.737
2015    3        6    22  15    6.1443   646.1    3.157      70.733
2015    3        6    22  20    6.1419   646.1    3.156      70.728
2015    3        6    22  25    6.1395   646.1    3.154      70.723
2015    3        6    22  31    6.1370   646.1    3.153      70.717
2015    3        6    22  36    6.1346   646.1    3.152      70.711
2015    3        6    22  41    6.1321   646.1    3.150      70.704
2015    3        6    22  46    6.1296   646.1    3.149      70.697
2015    3        6    22  51    6.1271   646.1    3.147      70.689
2015    3        6    22  57    6.1246   646.2    3.146      70.681
2015    3        6    23   2    6.1221   646.2    3.144      70.672
2015    3        6    23   7    6.1196   646.2    3.143      70.662
2015    3        6    23  12    6.1171   646.2    3.141      70.652
2015    3        6    23  17    6.1146   646.2    3.139      70.641
2015    3        6    23  23    6.1120   646.2    3.138      70.629
2015    3        6    23  28    6.1094   646.2    3.136      70.616
2015    3        6    23  33    6.1068   646.2    3.134      70.603
2015    3        6    23  38    6.1043   646.2    3.132      70.589
2015    3        6    23  43    6.1017   646.2    3.130      70.574
2015    3        6    23  49    6.0991   646.2    3.129      70.559
2015    3        6    23  54    6.0965   646.2    3.127      70.543
2015    3        6    23  59    6.0938   646.2    3.125      70.526
2015    3        7     0   4    6.0912   646.2    3.123      70.508
2015    3        7     0   9    6.0886   646.2    3.121      70.490
2015    3        7     0  15    6.0860   646.2    3.119      70.471
2015    3        7     0  20    6.0834   646.1    3.117      70.452
2015    3        7     0  25    6.0807   646.1    3.115      70.432
2015    3        7     0  30    6.0781   646.1    3.112      70.411
2015    3        7     0  35    6.0754   646.1    3.110      70.389
2015    3        7     0  41    6.0728   646.1    3.108      70.368
2015    3        7     0  46    6.0701   646.1    3.106      70.345
2015    3        7     0  51    6.0675   646.0    3.104      70.323
2015    3        7     0  56    6.0648   646.0    3.102      70.300
2015    3        7     1   1    6.0622   646.0    3.100      70.277
2015    3        7     1   7    6.0596   646.0    3.098      70.253
2015    3        7     1  12    6.0569   645.9    3.096      70.230
2015    3        7     1  17    6.0543   645.9    3.094      70.207
2015    3        7     1  22    6.0517   645.9    3.092      70.185
2015    3        7     1  27    6.0492   645.8    3.090      70.162
2015    3        7     1  32    6.0466   645.8    3.088      70.141
2015    3        7     1  38    6.0440   645.8    3.087      70.120
2015    3        7     1  43    6.0415   645.7    3.085      70.099
2015    3        7     1  48    6.0390   645.7    3.083      70.079
2015    3        7     1  53    6.0365   645.7    3.082      70.061
2015    3        7     1  58    6.0340   645.6    3.080      70.043
2015    3        7     2   4    6.0316   645.6    3.079      70.026
2015    3        7     2   9    6.0292   645.5    3.077      70.009
2015    3        7     2  14    6.0268   645.5    3.076      69.994
2015    3        7     2  19    6.0245   645.5    3.075      69.980
2015    3        7     2  24    6.0221   645.4    3.074      69.967
2015    3        7     2  30    6.0198   645.4    3.073      69.954
2015    3        7     2  35    6.0175   645.3    3.072      69.943
2015    3        7     2  40    6.0152   645.3    3.071      69.932
2015    3        7     2  45    6.0130   645.3    3.070      69.922
2015    3        7     2  50    6.0108   645.2    3.069      69.912
2015    3        7     2  56    6.0085   645.2    3.068      69.903
2015    3        7     3   1    6.0063   645.1    3.067      69.894
2015    3        7     3   6    6.0041   645.1    3.067      69.886
2015    3        7     3  11    6.0019   645.1    3.066      69.878
2015    3        7     3  16    5.9998   645.0    3.065      69.871
2015    3        7     3  22    5.9976   645.0    3.064      69.863
2015    3        7     3  27    5.9955   644.9    3.064      69.856
2015    3        7     3  32    5.9933   644.9    3.063      69.848
2015    3        7     3  37    5.9912   644.8    3.062      69.841
2015    3        7     3  42    5.9890   644.8    3.061      69.834
2015    3        7     3  48    5.9870   644.7    3.061      69.826
2015    3        7     3  53    5.9849   644.7    3.060      69.819
2015    3        7     3  58    5.9828   644.6    3.059      69.811
2015    3        7     4   3    5.9807   644.6    3.058      69.803
2015    3        7     4   8    5.9787   644.5    3.058      69.795
2015    3        7     4  14    5.9767   644.5    3.057      69.787
2015    3        7     4  19    5.9746   644.4    3.056      69.779
2015    3        7     4  24    5.9726   644.4    3.055      69.771
2015    3        7     4  29    5.9706   644.3    3.054      69.763
2015    3        7     4  34    5.9686   644.3    3.054      69.754
2015    3        7     4  40    5.9667   644.2    3.053      69.746
2015    3        7     4  45    5.9647   644.2    3.052      69.737
2015    3        7     4  50    5.9628   644.1    3.051      69.729
2015    3        7     4  55    5.9608   644.1    3.051      69.720
2015    3        7     5   0    5.9589   644.0    3.050      69.711
2015    3        7     5   6    5.9570   644.0    3.049      69.703
2015    3        7     5  11    5.9551   643.9    3.048      69.694
2015    3        7     5  16    5.9532   643.9    3.048      69.685
2015    3        7     5  21    5.9512   643.8    3.047      69.677
2015    3        7     5  26    5.9493   643.8    3.046      69.668
2015    3        7     5  31    5.9474   643.7    3.045      69.660
2015    3        7     5  37    5.9455   643.7    3.045      69.651
2015    3        7     5  42    5.9436   643.6    3.044      69.643
2015    3        7     5  47    5.9417   643.6    3.043      69.634
2015    3        7     5  52    5.9398   643.5    3.042      69.626
2015    3        7     5  57    5.9378   643.5    3.042      69.617
2015    3        7     6   3    5.9359   643.5    3.041      69.608
2015    3        7     6   8    5.9339   643.4    3.040      69.599
2015    3        7     6  13    5.9320   643.4    3.039      69.590
2015    3        7     6  18    5.9300   643.3    3.039      69.581
2015    3        7     6  23    5.9281   643.3    3.038      69.572
2015    3        7     6  29    5.9261   643.2    3.037      69.562
2015    3        7     6  34    5.9242   643.2    3.036      69.553
2015    3        7     6  39    5.9221   643.1    3.035      69.543
2015    3        7     6  44    5.9202   643.1    3.034      69.533
2015    3        7     6  49    5.9183   643.0    3.034      69.522
2015    3        7     6  55    5.9163   643.0    3.033      69.512
2015    3        7     7   0    5.9143   642.9    3.032      69.501
2015    3        7     7   5    5.9123   642.9    3.031      69.489
2015    3        7     7  10    5.9104   642.8    3.030      69.478
2015    3        7     7  15    5.9084   642.8    3.029      69.466
2015    3        7     7  21    5.9064   642.7    3.028      69.453
2015    3        7     7  26    5.9044   642.7    3.027      69.441
2015    3        7     7  31    5.9024   642.6    3.026      69.427
2015    3        7     7  36    5.9004   642.6    3.025      69.414
2015    3        7     7  41    5.8984   642.5    3.024      69.400
2015    3        7     7  47    5.8964   642.5    3.023      69.386
2015    3        7     7  52    5.8944   642.4    3.022      69.371
2015    3        7     7  57    5.8925   642.4    3.021      69.357
2015    3        7     8   2    5.8905   642.3    3.020      69.341
2015    3        7     8   7    5.8885   642.3    3.019      69.326
2015    3        7     8  13    5.8865   642.2    3.018      69.311
2015    3        7     8  18    5.8845   642.2    3.017      69.295
2015    3        7     8  23    5.8826   642.1    3.016      69.279
2015    3        7     8  28    5.8806   642.0    3.015      69.263
2015    3        7     8  33    5.8786   642.0    3.014      69.247
2015    3        7     8  39    5.8767   641.9    3.013      69.232
2015    3        7     8  44    5.8748   641.9    3.012      69.216
2015    3        7     8  49    5.8729   641.8    3.011      69.201
2015    3        7     8  54    5.8710   641.7    3.010      69.186
2015    3        7     8  59    5.8691   641.7    3.009      69.171
2015    3        7     9   5    5.8672   641.6    3.009      69.157
2015    3        7     9  10    5.8654   641.5    3.008      69.143
2015    3        7     9  15    5.8636   641.5    3.007      69.129
2015    3        7     9  20    5.8617   641.4    3.007      69.117
2015    3        7     9  25    5.8599   641.3    3.006      69.104
2015    3        7     9  31    5.8582   641.3    3.006      69.092
2015    3        7     9  36    5.8563   641.2    3.005      69.081
2015    3        7     9  41    5.8546   641.1    3.005      69.070
2015    3        7     9  46    5.8529   641.1    3.004      69.060
2015    3        7     9  51    5.8512   641.0    3.004      69.050
2015    3        7     9  56    5.8495   640.9    3.004      69.041
2015    3        7    10   2    5.8478   640.9    3.004      69.033
2015    3        7    10   7    5.8461   640.8    3.003      69.025
2015    3        7    10  12    5.8444   640.7    3.003      69.017
2015    3        7    10  17    5.8427   640.7    3.003      69.010
2015    3        7    10  22    5.8411   640.6    3.003      69.003
2015    3        7    10  28    5.8394   640.5    3.003      68.997
2015    3        7    10  33    5.8378   640.4    3.003      68.991
2015    3        7    10  38    5.8362   640.4    3.003      68.985
2015    3        7    10  43    5.8346   640.3    3.003      68.980
2015    3        7    10  48    5.8330   640.2    3.003      68.975
2015    3        7    10  54    5.8314   640.2    3.003      68.970
2015    3        7    10  59    5.8298   640.1    3.003      68.965
2015    3        7    11   4    5.8282   640.0    3.003      68.961
2015    3        7    11   9    5.8267   639.9    3.003      68.957
2015    3        7    11  14    5.8251   639.9    3.003      68.953
2015    3        7    11  20    5.8236   639.8    3.002      68.949
2015    3        7    11  25    5.8221   639.7    3.002      68.946
2015    3        7    11  30    5.8205   639.7    3.002      68.943
2015    3        7    11  35    5.8190   639.6    3.002      68.939
2015    3        7    11  40    5.8175   639.5    3.002      68.936
2015    3        7    11  46    5.8160   639.4    3.002      68.932
2015    3        7    11  51    5.8145   639.4    3.002      68.928
2015    3        7    11  56    5.8130   639.3    3.002      68.925
2015    3        7    12   1    5.8116   639.2    3.002      68.921
2015    3        7    12   6    5.8100   639.2    3.001      68.916
2015    3        7    12  12    5.8086   639.1    3.001      68.911
2015    3        7    12  17    5.8071   639.0    3.001      68.906
2015    3        7    12  22    5.8056   638.9    3.000      68.901
2015    3        7    12  27    5.8042   638.9    3.000      68.895
2015    3        7    12  32    5.8027   638.8    3.000      68.889
2015    3        7    12  38    5.8013   638.7    2.999      68.882
2015    3        7    12  43    5.7997   638.6    2.999      68.876
2015    3        7    12  48    5.7984   638.6    2.999      68.869
2015    3        7    12  53    5.7969   638.5    2.998      68.862
2015    3        7    12  58    5.7955   638.4    2.998      68.854
2015    3        7    13   4    5.7941   638.3    2.998      68.847
2015    3        7    13   9    5.7927   638.3    2.997      68.840
2015    3        7    13  14    5.7913   638.2    2.997      68.832
2015    3        7    13  19    5.7899   638.1    2.996      68.825
2015    3        7    13  24    5.7885   638.1    2.996      68.818
2015    3        7    13  29    5.7872   638.0    2.996      68.811
2015    3        7    13  35    5.7858   637.9    2.995      68.803
2015    3        7    13  40    5.7845   637.8    2.995      68.797
2015    3        7    13  45    5.7832   637.8    2.995      68.790
2015    3        7    13  50    5.7818   637.7    2.994      68.784
2015    3        7    13  55    5.7805   637.6    2.994      68.777
2015    3        7    14   1    5.7791   637.6    2.994      68.771
2015    3        7    14   6    5.7778   637.5    2.993      68.765
2015    3        7    14  11    5.7765   637.4    2.993      68.759
2015    3        7    14  16    5.7752   637.4    2.993      68.754
2015    3        7    14  21    5.7738   637.3    2.993      68.748
2015    3        7    14  27    5.7725   637.3    2.992      68.743
2015    3        7    14  32    5.7711   637.2    2.992      68.737
2015    3        7    14  37    5.7697   637.1    2.992      68.732
2015    3        7    14  42    5.7683   637.1    2.992      68.726
2015    3        7    14  47    5.7669   637.0    2.991      68.721
2015    3        7    14  53    5.7656   637.0    2.991      68.715
2015    3        7    14  58    5.7641   636.9    2.991      68.709
2015    3        7    15   3    5.7627   636.8    2.990      68.703
2015    3        7    15   8    5.7613   636.8    2.990      68.696
2015    3        7    15  13    5.7598   636.7    2.990      68.689
2015    3        7    15  19    5.7584   636.7    2.989      68.682
2015    3        7    15  24    5.7569   636.6    2.989      68.675
2015    3        7    15  29    5.7554   636.6    2.989      68.667
2015    3        7    15  34    5.7540   636.5    2.988      68.659
2015    3        7    15  39    5.7525   636.4    2.988      68.651
2015    3        7    15  45    5.7510   636.4    2.987      68.642
2015    3        7    15  50    5.7495   636.3    2.987      68.633
2015    3        7    15  55    5.7480   636.2    2.987      68.624
2015    3        7    16   0    5.7465   636.2    2.986      68.614
2015    3        7    16   5    5.7449   636.1    2.986      68.604
2015    3        7    16  11    5.7434   636.1    2.985      68.594
2015    3        7    16  16    5.7419   636.0    2.985      68.584
2015    3        7    16  21    5.7404   635.9    2.985      68.573
2015    3        7    16  26    5.7389   635.9    2.984      68.562
2015    3        7    16  31    5.7373   635.8    2.984      68.552
2015    3        7    16  37    5.7358   635.7    2.983      68.541
2015    3        7    16  42    5.7343   635.6    2.983      68.531
2015    3        7    16  47    5.7328   635.6    2.983      68.521
2015    3        7    16  52    5.7313   635.5    2.983      68.511
2015    3        7    16  57    5.7299   635.4    2.982      68.502
2015    3        7    17   3    5.7284   635.4    2.982      68.493
2015    3        7    17   8    5.7270   635.3    2.982      68.485
2015    3        7    17  13    5.7256   635.2    2.982      68.477
2015    3        7    17  18    5.7242   635.1    2.982      68.470
2015    3        7    17  23    5.7229   635.1    2.982      68.464
2015    3        7    17  29    5.7216   635.0    2.982      68.459
2015    3        7    17  34    5.7203   634.9    2.982      68.454
2015    3        7    17  39    5.7190   634.8    2.983      68.451
2015    3        7    17  44    5.7177   634.8    2.983      68.448
2015    3        7    17  49    5.7165   634.7    2.983      68.447
2015    3        7    17  54    5.7154   634.6    2.984      68.446
2015    3        7    18   0    5.7142   634.6    2.984      68.446
2015    3        7    18   5    5.7131   634.5    2.985      68.447
2015    3        7    18  10    5.7120   634.4    2.985      68.449
2015    3        7    18  15    5.7109   634.4    2.986      68.451
2015    3        7    18  20    5.7098   634.3    2.987      68.455
2015    3        7    18  26    5.7088   634.2    2.988      68.460
2015    3        7    18  31    5.7077   634.2    2.988      68.466
2015    3        7    18  36    5.7067   634.1    2.989      68.473
2015    3        7    18  41    5.7056   634.1    2.990      68.481
2015    3        7    18  46    5.7046   634.0    2.991      68.490
2015    3        7    18  52    5.7035   633.9    2.991      68.499
2015    3        7    18  57    5.7024   633.9    2.992      68.508
2015    3        7    19   2    5.7013   633.8    2.993      68.517
2015    3        7    19   7    5.7002   633.8    2.993      68.526
2015    3        7    19  12    5.6991   633.7    2.994      68.535
2015    3        7    19  18    5.6980   633.7    2.994      68.543
2015    3        7    19  23    5.6969   633.6    2.995      68.550
2015    3        7    19  28    5.6957   633.6    2.995      68.557
2015    3        7    19  33    5.6946   633.5    2.995      68.562
2015    3        7    19  38    5.6934   633.4    2.995      68.567
2015    3        7    19  44    5.6923   633.4    2.996      68.571
2015    3        7    19  49    5.6911   633.3    2.996      68.573
2015    3        7    19  54    5.6900   633.3    2.996      68.575
2015    3        7    19  59    5.6888   633.2    2.996      68.576
2015    3        7    20   4    5.6876   633.2    2.996      68.576
2015    3        7    20  10    5.6864   633.1    2.996      68.576
2015    3        7    20  15    5.6852   633.0    2.995      68.575
2015    3        7    20  20    5.6841   633.0    2.995      68.573
2015    3        7    20  25    5.6829   632.9    2.995      68.570
2015    3        7    20  30    5.6817   632.9    2.995      68.568
2015    3        7    20  36    5.6805   632.8    2.995      68.564
2015    3        7    20  41    5.6793   632.8    2.994      68.560
2015    3        7    20  46    5.6781   632.7    2.994      68.556
2015    3        7    20  51    5.6769   632.7    2.994      68.552
2015    3        7    20  56    5.6757   632.6    2.994      68.547
2015    3        7    21   2    5.6745   632.5    2.993      68.541
2015    3        7    21   7    5.6732   632.5    2.993      68.536
2015    3        7    21  12    5.6720   632.4    2.993      68.530
2015    3        7    21  17    5.6707   632.4    2.992      68.523
2015    3        7    21  22    5.6695   632.3    2.992      68.517
2015    3        7    21  27    5.6682   632.3    2.992      68.510
2015    3        7    21  33    5.6669   632.2    2.991      68.503
2015    3        7    21  38    5.6656   632.2    2.991      68.495
2015    3        7    21  43    5.6643   632.1    2.991      68.487
2015    3        7    21  48    5.6630   632.0    2.990      68.479
2015    3        7    21  53    5.6617   632.0    2.990      68.471
2015    3        7    21  59    5.6604   631.9    2.989      68.462
2015    3        7    22   4    5.6591   631.9    2.989      68.453
2015    3        7    22   9    5.6577   631.8    2.988      68.444
2015    3        7    22  14    5.6564   631.8    2.988      68.434
2015    3        7    22  19    5.6550   631.7    2.988      68.424
2015    3        7    22  25    5.6537   631.6    2.987      68.414
2015    3        7    22  30    5.6523   631.6    2.987      68.403
2015    3        7    22  35    5.6509   631.5    2.986      68.393
2015    3        7    22  40    5.6496   631.5    2.986      68.382
2015    3        7    22  45    5.6482   631.4    2.985      68.371
2015    3        7    22  51    5.6468   631.4    2.985      68.360
2015    3        7    22  56    5.6455   631.3    2.984      68.349
2015    3        7    23   1    5.6441   631.2    2.984      68.338
2015    3        7    23   6    5.6427   631.2    2.983      68.327
2015    3        7    23  11    5.6414   631.1    2.983      68.316
2015    3        7    23  17    5.6400   631.0    2.982      68.304
2015    3        7    23  22    5.6386   631.0    2.982      68.293
2015    3        7    23  27    5.6373   630.9    2.982      68.283
2015    3        7    23  32    5.6359   630.8    2.981      68.272
2015    3        7    23  37    5.6346   630.8    2.981      68.261
2015    3        7    23  43    5.6333   630.7    2.981      68.251
2015    3        7    23  48    5.6319   630.7    2.980      68.241
2015    3        7    23  53    5.6306   630.6    2.980      68.231
2015    3        7    23  58    5.6293   630.5    2.980      68.222
2015    3        8     0   3    5.6280   630.5    2.980      68.213
2015    3        8     0   9    5.6267   630.4    2.979      68.204
2015    3        8     0  14    5.6254   630.3    2.979      68.195
2015    3        8     0  19    5.6242   630.3    2.979      68.187
2015    3        8     0  24    5.6229   630.2    2.979      68.179
2015    3        8     0  29    5.6217   630.1    2.979      68.171
2015    3        8     0  35    5.6204   630.0    2.979      68.164
2015    3        8     0  40    5.6192   630.0    2.979      68.157
2015    3        8     0  45    5.6180   629.9    2.979      68.150
2015    3        8     0  50    5.6168   629.8    2.979      68.144
2015    3        8     0  55    5.6156   629.8    2.979      68.138
2015    3        8     1   1    5.6144   629.7    2.980      68.133
2015    3        8     1   6    5.6132   629.6    2.980      68.128
2015    3        8     1  11    5.6121   629.6    2.980      68.124
2015    3        8     1  16    5.6109   629.5    2.980      68.120
2015    3        8     1  21    5.6098   629.4    2.981      68.117
2015    3        8     1  27    5.6087   629.3    2.981      68.114
2015    3        8     1  32    5.6076   629.3    2.981      68.112
2015    3        8     1  37    5.6065   629.2    2.982      68.110
2015    3        8     1  42    5.6055   629.1    2.982      68.110
2015    3        8     1  47    5.6044   629.1    2.983      68.111
2015    3        8     1  52    5.6034   629.0    2.984      68.112
2015    3        8     1  58    5.6024   628.9    2.984      68.115
2015    3        8     2   3    5.6014   628.9    2.985      68.118
2015    3        8     2   8    5.6004   628.8    2.986      68.124
2015    3        8     2  13    5.5994   628.7    2.986      68.130
2015    3        8     2  18    5.5984   628.7    2.987      68.137
2015    3        8     2  24    5.5974   628.6    2.988      68.145
2015    3        8     2  29    5.5964   628.6    2.989      68.154
2015    3        8     2  34    5.5954   628.5    2.989      68.163
2015    3        8     2  39    5.5944   628.5    2.990      68.172
2015    3        8     2  44    5.5933   628.4    2.991      68.181
2015    3        8     2  50    5.5922   628.4    2.991      68.190
2015    3        8     2  55    5.5911   628.3    2.992      68.199
2015    3        8     3   0    5.5900   628.3    2.993      68.208
2015    3        8     3   5    5.5888   628.2    2.993      68.216
2015    3        8     3  10    5.5876   628.2    2.994      68.223
2015    3        8     3  16    5.5864   628.1    2.994      68.230
2015    3        8     3  21    5.5851   628.1    2.994      68.236
2015    3        8     3  26    5.5839   628.0    2.995      68.241
2015    3        8     3  31    5.5826   628.0    2.995      68.245
2015    3        8     3  36    5.5813   627.9    2.995      68.249
2015    3        8     3  42    5.5800   627.8    2.996      68.252
2015    3        8     3  47    5.5786   627.8    2.996      68.254
2015    3        8     3  52    5.5773   627.7    2.996      68.255
2015    3        8     3  57    5.5759   627.7    2.996      68.256
2015    3        8     4   2    5.5746   627.6    2.996      68.256
2015    3        8     4   8    5.5732   627.5    2.996      68.255
2015    3        8     4  13    5.5718   627.5    2.996      68.253
2015    3        8     4  18    5.5704   627.4    2.996      68.251
2015    3        8     4  23    5.5690   627.4    2.996      68.248
2015    3        8     4  28    5.5676   627.3    2.996      68.244
2015    3        8     4  34    5.5662   627.2    2.996      68.240
2015    3        8     4  39    5.5648   627.2    2.996      68.235
2015    3        8     4  44    5.5634   627.1    2.996      68.230
2015    3        8     4  49    5.5620   627.1    2.996      68.224
2015    3        8     4  54    5.5605   627.0    2.996      68.217
2015    3        8     5   0    5.5591   626.9    2.995      68.210
2015    3        8     5   5    5.5577   626.9    2.995      68.203
2015    3        8     5  10    5.5563   626.8    2.995      68.195
2015    3        8     5  15    5.5548   626.8    2.995      68.187
2015    3        8     5  20    5.5534   626.7    2.995      68.178
2015    3        8     5  25    5.5519   626.6    2.994      68.169
2015    3        8     5  31    5.5505   626.6    2.994      68.160
2015    3        8     5  36    5.5491   626.5    2.994      68.151
2015    3        8     5  41    5.5476   626.4    2.994      68.141
2015    3        8     5  46    5.5462   626.4    2.993      68.132
2015    3        8     5  51    5.5448   626.3    2.993      68.122
2015    3        8     5  57    5.5433   626.2    2.993      68.112
2015    3        8     6   2    5.5419   626.2    2.992      68.102
2015    3        8     6   7    5.5405   626.1    2.992      68.092
2015    3        8     6  12    5.5390   626.1    2.992      68.082
2015    3        8     6  17    5.5376   626.0    2.992      68.072
2015    3        8     6  23    5.5362   625.9    2.991      68.062
2015    3        8     6  28    5.5348   625.9    2.991      68.052
2015    3        8     6  33    5.5334   625.8    2.991      68.041
2015    3        8     6  38    5.5319   625.8    2.991      68.031
2015    3        8     6  43    5.5305   625.7    2.990      68.021
2015    3        8     6  49    5.5291   625.6    2.990      68.010
2015    3        8     6  54    5.5277   625.6    2.990      68.000
2015    3        8     6  59    5.5263   625.5    2.990      67.989
2015    3        8     7   4    5.5249   625.4    2.990      67.978
2015    3        8     7   9    5.5236   625.4    2.989      67.968
2015    3        8     7  15    5.5222   625.3    2.989      67.957
2015    3        8     7  20    5.5208   625.2    2.989      67.945
2015    3        8     7  25    5.5194   625.2    2.989      67.934
2015    3        8     7  30    5.5181   625.1    2.989      67.923
2015    3        8     7  35    5.5167   625.1    2.989      67.912
2015    3        8     7  41    5.5154   625.0    2.988      67.900
2015    3        8     7  46    5.5140   624.9    2.988      67.889
2015    3        8     7  51    5.5127   624.9    2.988      67.877
2015    3        8     7  56    5.5113   624.8    2.988      67.865
2015    3        8     8   1    5.5100   624.7    2.988      67.854
2015    3        8     8   7    5.5087   624.7    2.988      67.842
2015    3        8     8  12    5.5073   624.6    2.988      67.831
2015    3        8     8  17    5.5060   624.5    2.988      67.819
2015    3        8     8  22    5.5047   624.4    2.988      67.808
2015    3        8     8  27    5.5034   624.4    2.988      67.797
2015    3        8     8  33    5.5021   624.3    2.988      67.786
2015    3        8     8  38    5.5008   624.2    2.988      67.775
2015    3        8     8  43    5.4996   624.2    2.988      67.765
2015    3        8     8  48    5.4983   624.1    2.988      67.755
2015    3        8     8  53    5.4970   624.0    2.988      67.745
2015    3        8     8  59    5.4958   623.9    2.988      67.736
2015    3        8     9   4    5.4945   623.9    2.988      67.728
2015    3        8     9   9    5.4933   623.8    2.988      67.719
2015    3        8     9  14    5.4921   623.7    2.989      67.712
2015    3        8     9  19    5.4908   623.6    2.989      67.705
2015    3        8     9  24    5.4896   623.6    2.989      67.698
2015    3        8     9  30    5.4884   623.5    2.989      67.692
2015    3        8     9  35    5.4871   623.4    2.990      67.687
2015    3        8     9  40    5.4859   623.3    2.990      67.682
2015    3        8     9  45    5.4847   623.3    2.990      67.678
2015    3        8     9  50    5.4834   623.2    2.991      67.674
2015    3        8     9  56    5.4822   623.1    2.991      67.671
2015    3        8    10   1    5.4809   623.0    2.991      67.668
2015    3        8    10   6    5.4797   623.0    2.992      67.666
2015    3        8    10  11    5.4784   622.9    2.992      67.664
2015    3        8    10  16    5.4771   622.8    2.992      67.663
2015    3        8    10  22    5.4757   622.7    2.993      67.662
2015    3        8    10  27    5.4744   622.6    2.993      67.661
2015    3        8    10  32    5.4731   622.6    2.994      67.661
2015    3        8    10  37    5.4717   622.5    2.994      67.660
2015    3        8    10  42    5.4703   622.4    2.994      67.660
2015    3        8    10  48    5.4690   622.3    2.995      67.660
2015    3        8    10  53    5.4676   622.3    2.995      67.660
2015    3        8    10  58    5.4661   622.2    2.995      67.660
2015    3        8    11   3    5.4647   622.1    2.995      67.660
2015    3        8    11   8    5.4633   622.0    2.996      67.659
2015    3        8    11  14    5.4619   621.9    2.996      67.658
2015    3        8    11  19    5.4604   621.8    2.996      67.657
2015    3        8    11  24    5.4590   621.8    2.996      67.655
2015    3        8    11  29    5.4575   621.7    2.996      67.653
2015    3        8    11  34    5.4560   621.6    2.997      67.650
2015    3        8    11  40    5.4546   621.5    2.997      67.648
2015    3        8    11  45    5.4531   621.4    2.997      67.644
2015    3        8    11  50    5.4516   621.4    2.997      67.641
2015    3        8    11  55    5.4501   621.3    2.997      67.636
2015    3        8    12   0    5.4487   621.2    2.997      67.632
2015    3        8    12   6    5.4472   621.1    2.997      67.627
2015    3        8    12  11    5.4457   621.0    2.997      67.622
2015    3        8    12  16    5.4442   621.0    2.998      67.616
2015    3        8    12  21    5.4427   620.9    2.998      67.610
2015    3        8    12  26    5.4412   620.8    2.998      67.603
2015    3        8    12  32    5.4397   620.7    2.998      67.596
2015    3        8    12  37    5.4381   620.6    2.998      67.589
2015    3        8    12  42    5.4366   620.6    2.998      67.582
2015    3        8    12  47    5.4351   620.5    2.998      67.573
2015    3        8    12  52    5.4336   620.4    2.998      67.565
2015    3        8    12  58    5.4321   620.3    2.998      67.556
2015    3        8    13   3    5.4305   620.2    2.998      67.546
2015    3        8    13   8    5.4290   620.2    2.998      67.537
2015    3        8    13  13    5.4274   620.1    2.998      67.526
2015    3        8    13  18    5.4259   620.0    2.998      67.516
2015    3        8    13  23    5.4243   619.9    2.998      67.504
2015    3        8    13  29    5.4228   619.8    2.998      67.493
2015    3        8    13  34    5.4212   619.8    2.998      67.481
2015    3        8    13  39    5.4196   619.7    2.998      67.468
2015    3        8    13  44    5.4181   619.6    2.998      67.455
2015    3        8    13  49    5.4165   619.5    2.998      67.442
2015    3        8    13  55    5.4150   619.5    2.998      67.428
2015    3        8    14   0    5.4134   619.4    2.998      67.414
2015    3        8    14   5    5.4118   619.3    2.998      67.399
2015    3        8    14  10    5.4103   619.2    2.998      67.384
2015    3        8    14  15    5.4087   619.1    2.998      67.369
2015    3        8    14  21    5.4072   619.1    2.998      67.354
2015    3        8    14  26    5.4056   619.0    2.998      67.338
2015    3        8    14  31    5.4041   618.9    2.998      67.322
2015    3        8    14  36    5.4025   618.8    2.998      67.307
2015    3        8    14  41    5.4010   618.7    2.999      67.291
2015    3        8    14  47    5.3995   618.6    2.999      67.275
2015    3        8    14  52    5.3980   618.6    2.999      67.259
2015    3        8    14  57    5.3965   618.5    2.999      67.243
2015    3        8    15   2    5.3950   618.4    2.999      67.227
2015    3        8    15   7    5.3935   618.3    2.999      67.212
2015    3        8    15  13    5.3921   618.2    2.999      67.196
2015    3        8    15  18    5.3906   618.1    2.999      67.181
2015    3        8    15  23    5.3891   618.1    2.999      67.166
2015    3        8    15  28    5.3877   618.0    3.000      67.151
2015    3        8    15  33    5.3862   617.9    3.000      67.136
2015    3        8    15  39    5.3848   617.8    3.000      67.122
2015    3        8    15  44    5.3833   617.7    3.000      67.108
2015    3        8    15  49    5.3819   617.6    3.001      67.094
2015    3        8    15  54    5.3804   617.6    3.001      67.080
2015    3        8    15  59    5.3790   617.5    3.001      67.067
2015    3        8    16   5    5.3775   617.4    3.002      67.053
2015    3        8    16  10    5.3761   617.3    3.002      67.041
2015    3        8    16  15    5.3746   617.2    3.002      67.028
2015    3        8    16  20    5.3731   617.1    3.003      67.016
2015    3        8    16  25    5.3717   617.0    3.003      67.004
2015    3        8    16  31    5.3702   616.9    3.004      66.993
2015    3        8    16  36    5.3687   616.8    3.004      66.982
2015    3        8    16  41    5.3672   616.7    3.005      66.972
2015    3        8    16  46    5.3657   616.7    3.005      66.963
2015    3        8    16  51    5.3642   616.6    3.005      66.954
2015    3        8    16  57    5.3627   616.5    3.006      66.946
2015    3        8    17   2    5.3612   616.4    3.006      66.939
2015    3        8    17   7    5.3597   616.3    3.007      66.931
2015    3        8    17  12    5.3582   616.2    3.007      66.924
2015    3        8    17  17    5.3567   616.1    3.008      66.918
2015    3        8    17  22    5.3552   616.0    3.008      66.911
2015    3        8    17  28    5.3536   615.9    3.008      66.905
2015    3        8    17  33    5.3521   615.8    3.009      66.899
2015    3        8    17  38    5.3505   615.7    3.009      66.893
2015    3        8    17  43    5.3490   615.6    3.009      66.886
2015    3        8    17  48    5.3474   615.5    3.010      66.880
2015    3        8    17  54    5.3458   615.4    3.010      66.873
2015    3        8    17  59    5.3442   615.3    3.010      66.866
2015    3        8    18   4    5.3426   615.2    3.011      66.860
2015    3        8    18   9    5.3410   615.1    3.011      66.852
2015    3        8    18  14    5.3395   615.0    3.011      66.845
2015    3        8    18  20    5.3378   614.9    3.012      66.838
2015    3        8    18  25    5.3362   614.8    3.012      66.830
2015    3        8    18  30    5.3346   614.7    3.012      66.822
2015    3        8    18  35    5.3330   614.6    3.012      66.814
2015    3        8    18  40    5.3314   614.5    3.013      66.805
2015    3        8    18  46    5.3297   614.4    3.013      66.797
2015    3        8    18  51    5.3281   614.3    3.013      66.788
2015    3        8    18  56    5.3265   614.2    3.013      66.779
2015    3        8    19   1    5.3249   614.1    3.013      66.769
2015    3        8    19   6    5.3232   614.0    3.013      66.760
2015    3        8    19  12    5.3216   613.9    3.013      66.749
2015    3        8    19  17    5.3200   613.8    3.013      66.739
2015    3        8    19  22    5.3183   613.7    3.013      66.728
2015    3        8    19  27    5.3167   613.6    3.013      66.717
2015    3        8    19  32    5.3151   613.5    3.013      66.706
2015    3        8    19  38    5.3134   613.4    3.014      66.694
2015    3        8    19  43    5.3118   613.3    3.014      66.682
2015    3        8    19  48    5.3102   613.2    3.014      66.669
2015    3        8    19  53    5.3086   613.0    3.014      66.657
2015    3        8    19  58    5.3070   612.9    3.014      66.644
2015    3        8    20   4    5.3054   612.8    3.014      66.631
2015    3        8    20   9    5.3039   612.7    3.014      66.617
2015    3        8    20  14    5.3023   612.6    3.014      66.604
2015    3        8    20  19    5.3008   612.5    3.014      66.590
2015    3        8    20  24    5.2992   612.4    3.014      66.576
2015    3        8    20  30    5.2977   612.3    3.014      66.561
2015    3        8    20  35    5.2961   612.2    3.014      66.546
2015    3        8    20  40    5.2946   612.1    3.014      66.531
2015    3        8    20  45    5.2931   612.0    3.015      66.516
2015    3        8    20  50    5.2916   611.9    3.015      66.500
2015    3        8    20  56    5.2901   611.8    3.015      66.484
2015    3        8    21   1    5.2886   611.7    3.015      66.468
2015    3        8    21   6    5.2871   611.6    3.015      66.451
2015    3        8    21  11    5.2856   611.5    3.015      66.434
2015    3        8    21  16    5.2841   611.3    3.016      66.416
2015    3        8    21  21    5.2826   611.2    3.016      66.398
2015    3        8    21  27    5.2811   611.1    3.016      66.379
2015    3        8    21  32    5.2796   611.0    3.016      66.361
2015    3        8    21  37    5.2781   610.9    3.016      66.341
2015    3        8    21  42    5.2766   610.8    3.017      66.321
2015    3        8    21  47    5.2751   610.7    3.017      66.301
2015    3        8    21  53    5.2735   610.6    3.017      66.280
2015    3        8    21  58    5.2720   610.5    3.017      66.259
2015    3        8    22   3    5.2705   610.3    3.017      66.238
2015    3        8    22   8    5.2689   610.2    3.018      66.216
2015    3        8    22  13    5.2674   610.1    3.018      66.194
2015    3        8    22  19    5.2658   610.0    3.018      66.171
2015    3        8    22  24    5.2643   609.9    3.018      66.148
2015    3        8    22  29    5.2627   609.8    3.019      66.126
2015    3        8    22  34    5.2612   609.6    3.019      66.103
2015    3        8    22  39    5.2596   609.5    3.019      66.080
2015    3        8    22  45    5.2581   609.4    3.019      66.057
2015    3        8    22  50    5.2565   609.3    3.020      66.034
2015    3        8    22  55    5.2550   609.2    3.020      66.011
2015    3        8    23   0    5.2534   609.0    3.020      65.988
2015    3        8    23   5    5.2519   608.9    3.020      65.966
2015    3        8    23  11    5.2503   608.8    3.021      65.943
2015    3        8    23  16    5.2488   608.7    3.021      65.921
2015    3        8    23  21    5.2472   608.6    3.022      65.899
2015    3        8    23  26    5.2456   608.4    3.022      65.878
2015    3        8    23  31    5.2441   608.3    3.022      65.857
2015    3        8    23  37    5.2425   608.2    3.023      65.836
2015    3        8    23  42    5.2409   608.1    3.023      65.815
2015    3        8    23  47    5.2393   607.9    3.024      65.795
2015    3        8    23  52    5.2377   607.8    3.024      65.776
2015    3        8    23  57    5.2361   607.7    3.025      65.756
2015    3        9     0   3    5.2345   607.6    3.026      65.737
2015    3        9     0   8    5.2329   607.5    3.026      65.719
2015    3        9     0  13    5.2312   607.3    3.027      65.701
2015    3        9     0  18    5.2296   607.2    3.028      65.684
2015    3        9     0  23    5.2279   607.1    3.028      65.667
2015    3        9     0  29    5.2263   607.0    3.029      65.651
2015    3        9     0  34    5.2246   606.8    3.030      65.635
2015    3        9     0  39    5.2229   606.7    3.030      65.620
2015    3        9     0  44    5.2212   606.6    3.031      65.605
2015    3        9     0  49    5.2195   606.5    3.032      65.591
2015    3        9     0  55    5.2178   606.3    3.033      65.578
2015    3        9     1   0    5.2161   606.2    3.034      65.565
2015    3        9     1   5    5.2144   606.1    3.034      65.552
2015    3        9     1  10    5.2127   605.9    3.035      65.540
2015    3        9     1  15    5.2110   605.8    3.036      65.529
2015    3        9     1  20    5.2093   605.7    3.037      65.518
2015    3        9     1  26    5.2076   605.5    3.038      65.508
2015    3        9     1  31    5.2058   605.4    3.039      65.498
2015    3        9     1  36    5.2041   605.3    3.040      65.488
2015    3        9     1  41    5.2024   605.1    3.041      65.479
2015    3        9     1  46    5.2007   605.0    3.042      65.471
2015    3        9     1  52    5.1990   604.9    3.043      65.463
2015    3        9     1  57    5.1973   604.8    3.044      65.454
2015    3        9     2   2    5.1956   604.6    3.045      65.447
2015    3        9     2   7    5.1940   604.5    3.046      65.439
2015    3        9     2  12    5.1923   604.4    3.046      65.432
2015    3        9     2  18    5.1906   604.2    3.047      65.424
2015    3        9     2  23    5.1889   604.1    3.048      65.417
2015    3        9     2  28    5.1873   603.9    3.049      65.410
2015    3        9     2  33    5.1856   603.8    3.050      65.402
2015    3        9     2  38    5.1840   603.7    3.051      65.395
2015    3        9     2  44    5.1824   603.5    3.052      65.387
2015    3        9     2  49    5.1807   603.4    3.053      65.379
2015    3        9     2  54    5.1791   603.3    3.054      65.371
2015    3        9     2  59    5.1775   603.1    3.054      65.362
2015    3        9     3   4    5.1759   603.0    3.055      65.353
2015    3        9     3  10    5.1744   602.8    3.056      65.343
2015    3        9     3  15    5.1728   602.7    3.057      65.333
2015    3        9     3  20    5.1712   602.6    3.057      65.322
2015    3        9     3  25    5.1697   602.4    3.058      65.311
2015    3        9     3  30    5.1682   602.3    3.059      65.299
2015    3        9     3  36    5.1667   602.1    3.059      65.286
2015    3        9     3  41    5.1652   602.0    3.060      65.272
2015    3        9     3  46    5.1637   601.9    3.061      65.258
2015    3        9     3  51    5.1622   601.7    3.061      65.243
2015    3        9     3  56    5.1608   601.6    3.062      65.228
2015    3        9     4   2    5.1593   601.4    3.062      65.211
2015    3        9     4   7    5.1579   601.3    3.063      65.194
2015    3        9     4  12    5.1564   601.1    3.063      65.176
2015    3        9     4  17    5.1550   601.0    3.064      65.158
2015    3        9     4  22    5.1536   600.9    3.064      65.138
2015    3        9     4  28    5.1522   600.7    3.065      65.118
2015    3        9     4  33    5.1508   600.6    3.065      65.097
2015    3        9     4  38    5.1494   600.4    3.065      65.076
2015    3        9     4  43    5.1481   600.3    3.066      65.054
2015    3        9     4  48    5.1467   600.2    3.066      65.031
2015    3        9     4  54    5.1453   600.0    3.066      65.008
2015    3        9     4  59    5.1439   599.9    3.067      64.984
2015    3        9     5   4    5.1426   599.7    3.067      64.959
2015    3        9     5   9    5.1412   599.6    3.067      64.934
2015    3        9     5  14    5.1398   599.4    3.067      64.908
2015    3        9     5  19    5.1384   599.3    3.068      64.881
2015    3        9     5  25    5.1370   599.1    3.068      64.854
2015    3        9     5  30    5.1356   599.0    3.068      64.827
2015    3        9     5  35    5.1341   598.9    3.068      64.799
2015    3        9     5  40    5.1327   598.7    3.069      64.771
2015    3        9     5  45    5.1312   598.6    3.069      64.742
2015    3        9     5  51    5.1297   598.4    3.069      64.713
2015    3        9     5  56    5.1283   598.3    3.069      64.683
2015    3        9     6   1    5.1268   598.1    3.069      64.654
2015    3        9     6   6    5.1253   598.0    3.069      64.624
2015    3        9     6  11    5.1238   597.8    3.070      64.594
2015    3        9     6  17    5.1223   597.7    3.070      64.564
2015    3        9     6  22    5.1208   597.5    3.070      64.533
2015    3        9     6  27    5.1192   597.4    3.070      64.503
2015    3        9     6  32    5.1177   597.2    3.070      64.472
2015    3        9     6  37    5.1161   597.1    3.071      64.442
2015    3        9     6  43    5.1146   596.9    3.071      64.412
2015    3        9     6  48    5.1130   596.8    3.071      64.381
2015    3        9     6  53    5.1114   596.6    3.072      64.351
2015    3        9     6  58    5.1099   596.5    3.072      64.322
2015    3        9     7   3    5.1083   596.3    3.072      64.292
2015    3        9     7   9    5.1067   596.2    3.073      64.263
2015    3        9     7  14    5.1051   596.0    3.073      64.235
2015    3        9     7  19    5.1035   595.8    3.074      64.207
2015    3        9     7  24    5.1019   595.7    3.074      64.179
2015    3        9     7  29    5.1003   595.5    3.075      64.153
2015    3        9     7  35    5.0987   595.4    3.076      64.126
2015    3        9     7  40    5.0971   595.2    3.076      64.101
2015    3        9     7  45    5.0954   595.1    3.077      64.076
2015    3        9     7  50    5.0938   594.9    3.078      64.052
2015    3        9     7  55    5.0922   594.7    3.079      64.029
2015    3        9     8   1    5.0906   594.6    3.080      64.006
2015    3        9     8   6    5.0890   594.4    3.081      63.984
2015    3        9     8  11    5.0874   594.3    3.082      63.963
2015    3        9     8  16    5.0857   594.1    3.083      63.943
2015    3        9     8  21    5.0841   593.9    3.085      63.924
2015    3        9     8  27    5.0825   593.8    3.086      63.905
2015    3        9     8  32    5.0809   593.6    3.087      63.887
2015    3        9     8  37    5.0793   593.5    3.088      63.870
2015    3        9     8  42    5.0776   593.3    3.090      63.853
2015    3        9     8  47    5.0760   593.1    3.091      63.837
2015    3        9     8  52    5.0743   593.0    3.093      63.822
2015    3        9     8  58    5.0727   592.8    3.094      63.807
2015    3        9     9   3    5.0711   592.6    3.096      63.792
2015    3        9     9   8    5.0695   592.5    3.097      63.778
2015    3        9     9  13    5.0678   592.3    3.099      63.764
2015    3        9     9  18    5.0662   592.1    3.100      63.751
2015    3        9     9  24    5.0646   592.0    3.102      63.738
2015    3        9     9  29    5.0630   591.8    3.104      63.725
2015    3        9     9  34    5.0614   591.6    3.105      63.712
2015    3        9     9  39    5.0598   591.4    3.107      63.699
2015    3        9     9  44    5.0582   591.3    3.108      63.686
2015    3        9     9  50    5.0566   591.1    3.110      63.674
2015    3        9     9  55    5.0550   590.9    3.111      63.661
2015    3        9    10   0    5.0535   590.7    3.113      63.648
2015    3        9    10   5    5.0519   590.6    3.115      63.635
2015    3        9    10  10    5.0504   590.4    3.116      63.623
2015    3        9    10  16    5.0488   590.2    3.117      63.609
2015    3        9    10  21    5.0473   590.0    3.119      63.596
2015    3        9    10  26    5.0458   589.9    3.120      63.582
2015    3        9    10  31    5.0443   589.7    3.122      63.568
2015    3        9    10  36    5.0429   589.5    3.123      63.554
2015    3        9    10  42    5.0414   589.3    3.124      63.539
2015    3        9    10  47    5.0400   589.2    3.126      63.524
2015    3        9    10  52    5.0385   589.0    3.127      63.509
2015    3        9    10  57    5.0371   588.8    3.128      63.493
2015    3        9    11   2    5.0358   588.6    3.130      63.476
2015    3        9    11   8    5.0344   588.4    3.131      63.459
2015    3        9    11  13    5.0330   588.3    3.132      63.442
2015    3        9    11  18    5.0317   588.1    3.133      63.424
2015    3        9    11  23    5.0304   587.9    3.134      63.405
2015    3        9    11  28    5.0290   587.7    3.135      63.386
2015    3        9    11  34    5.0277   587.6    3.136      63.367
2015    3        9    11  39    5.0264   587.4    3.137      63.346
2015    3        9    11  44    5.0252   587.2    3.138      63.326
2015    3        9    11  49    5.0239   587.0    3.139      63.304
2015    3        9    11  54    5.0226   586.8    3.140      63.282
2015    3        9    12   0    5.0214   586.7    3.141      63.260
2015    3        9    12   5    5.0201   586.5    3.142      63.237
2015    3        9    12  10    5.0189   586.3    3.143      63.213
2015    3        9    12  15    5.0176   586.1    3.144      63.189
2015    3        9    12  20    5.0163   586.0    3.145      63.164
2015    3        9    12  26    5.0150   585.8    3.146      63.139
2015    3        9    12  31    5.0138   585.6    3.147      63.114
2015    3        9    12  36    5.0125   585.4    3.147      63.087
2015    3        9    12  41    5.0112   585.2    3.148      63.061
2015    3        9    12  46    5.0098   585.1    3.149      63.033
2015    3        9    12  52    5.0085   584.9    3.150      63.006
2015    3        9    12  57    5.0072   584.7    3.150      62.978
2015    3        9    13   2    5.0058   584.5    3.151      62.949
2015    3        9    13   7    5.0045   584.4    3.152      62.920
2015    3        9    13  12    5.0031   584.2    3.152      62.890
2015    3        9    13  17    5.0017   584.0    3.153      62.860
2015    3        9    13  23    5.0003   583.8    3.154      62.830
2015    3        9    13  28    4.9989   583.6    3.154      62.799
2015    3        9    13  33    4.9975   583.5    3.155      62.768
2015    3        9    13  38    4.9961   583.3    3.155      62.736
2015    3        9    13  43    4.9946   583.1    3.156      62.704
2015    3        9    13  49    4.9932   582.9    3.156      62.672
2015    3        9    13  54    4.9917   582.7    3.157      62.640
2015    3        9    13  59    4.9903   582.5    3.158      62.607
2015    3        9    14   4    4.9888   582.4    3.158      62.575
2015    3        9    14   9    4.9873   582.2    3.159      62.542
2015    3        9    14  15    4.9859   582.0    3.160      62.509
2015    3        9    14  20    4.9844   581.8    3.160      62.476
2015    3        9    14  25    4.9829   581.6    3.161      62.443
2015    3        9    14  30    4.9814   581.4    3.162      62.411
2015    3        9    14  35    4.9799   581.3    3.162      62.378
2015    3        9    14  41    4.9784   581.1    3.163      62.346
2015    3        9    14  46    4.9770   580.9    3.164      62.314
2015    3        9    14  51    4.9755   580.7    3.165      62.282
2015    3        9    14  56    4.9740   580.5    3.166      62.251
2015    3        9    15   1    4.9725   580.3    3.167      62.220
2015    3        9    15   7    4.9710   580.1    3.168      62.189
2015    3        9    15  12    4.9695   579.9    3.169      62.159
2015    3        9    15  17    4.9681   579.8    3.170      62.130
2015    3        9    15  22    4.9666   579.6    3.171      62.100
2015    3        9    15  27    4.9652   579.4    3.172      62.072
2015    3        9    15  33    4.9637   579.2    3.173      62.044
2015    3        9    15  38    4.9622   579.0    3.175      62.016
2015    3        9    15  43    4.9608   578.8    3.176      61.989
2015    3        9    15  48    4.9594   578.6    3.177      61.963
2015    3        9    15  53    4.9579   578.4    3.179      61.937
2015    3        9    15  59    4.9565   578.2    3.180      61.912
2015    3        9    16   4    4.9551   578.0    3.182      61.887
2015    3        9    16   9    4.9537   577.8    3.184      61.863
2015    3        9    16  14    4.9523   577.6    3.185      61.839
2015    3        9    16  19    4.9509   577.4    3.187      61.816
2015    3        9    16  24    4.9495   577.2    3.189      61.793
2015    3        9    16  30    4.9481   577.0    3.190      61.770
2015    3        9    16  35    4.9467   576.8    3.192      61.749
2015    3        9    16  40    4.9454   576.6    3.194      61.727
2015    3        9    16  45    4.9440   576.5    3.196      61.706
2015    3        9    16  50    4.9426   576.3    3.198      61.684
2015    3        9    16  56    4.9413   576.1    3.200      61.664
2015    3        9    17   1    4.9399   575.9    3.201      61.643
2015    3        9    17   6    4.9386   575.7    3.203      61.623
2015    3        9    17  11    4.9372   575.5    3.205      61.602
2015    3        9    17  16    4.9359   575.3    3.207      61.582
2015    3        9    17  22    4.9346   575.1    3.209      61.562
2015    3        9    17  27    4.9333   574.9    3.211      61.542
2015    3        9    17  32    4.9320   574.7    3.213      61.522
2015    3        9    17  37    4.9307   574.5    3.214      61.502
2015    3        9    17  42    4.9294   574.2    3.216      61.481
2015    3        9    17  48    4.9281   574.0    3.218      61.461
2015    3        9    17  53    4.9268   573.8    3.220      61.441
2015    3        9    17  58    4.9255   573.6    3.222      61.421
2015    3        9    18   3    4.9243   573.4    3.223      61.401
2015    3        9    18   8    4.9230   573.2    3.225      61.381
2015    3        9    18  14    4.9218   573.0    3.227      61.361
2015    3        9    18  19    4.9206   572.8    3.228      61.340
2015    3        9    18  24    4.9193   572.6    3.230      61.320
2015    3        9    18  29    4.9181   572.4    3.232      61.300
2015    3        9    18  34    4.9170   572.2    3.233      61.279
2015    3        9    18  40    4.9158   572.0    3.235      61.258
2015    3        9    18  45    4.9146   571.8    3.237      61.237
2015    3        9    18  50    4.9135   571.6    3.238      61.216
2015    3        9    18  55    4.9123   571.4    3.240      61.195
2015    3        9    19   0    4.9112   571.2    3.242      61.174
2015    3        9    19   6    4.9101   570.9    3.243      61.152
2015    3        9    19  11    4.9090   570.7    3.245      61.130
2015    3        9    19  16    4.9078   570.5    3.246      61.108
2015    3        9    19  21    4.9067   570.3    3.248      61.085
2015    3        9    19  26    4.9056   570.1    3.249      61.062
2015    3        9    19  32    4.9046   569.9    3.251      61.039
2015    3        9    19  37    4.9035   569.7    3.253      61.015
2015    3        9    19  42    4.9023   569.5    3.254      60.992
2015    3        9    19  47    4.9013   569.3    3.256      60.967
2015    3        9    19  52    4.9002   569.1    3.257      60.943
2015    3        9    19  58    4.8991   568.9    3.259      60.918
2015    3        9    20   3    4.8979   568.7    3.260      60.893
2015    3        9    20   8    4.8968   568.5    3.262      60.867
2015    3        9    20  13    4.8957   568.2    3.263      60.842
2015    3        9    20  18    4.8946   568.0    3.265      60.816
2015    3        9    20  24    4.8935   567.8    3.266      60.789
2015    3        9    20  29    4.8924   567.6    3.267      60.762
2015    3        9    20  34    4.8913   567.4    3.269      60.735
2015    3        9    20  39    4.8901   567.2    3.270      60.708
2015    3        9    20  44    4.8890   567.0    3.272      60.680
2015    3        9    20  49    4.8879   566.8    3.273      60.651
2015    3        9    20  55    4.8867   566.6    3.275      60.623
2015    3        9    21   0    4.8856   566.4    3.276      60.594
2015    3        9    21   5    4.8844   566.1    3.277      60.565
2015    3        9    21  10    4.8833   565.9    3.279      60.536
2015    3        9    21  15    4.8821   565.7    3.280      60.506
2015    3        9    21  21    4.8810   565.5    3.282      60.476
2015    3        9    21  26    4.8798   565.3    3.283      60.446
2015    3        9    21  31    4.8786   565.1    3.284      60.415
2015    3        9    21  36    4.8775   564.9    3.286      60.385
2015    3        9    21  41    4.8763   564.7    3.287      60.354
2015    3        9    21  47    4.8752   564.4    3.288      60.323
2015    3        9    21  52    4.8740   564.2    3.290      60.292
2015    3        9    21  57    4.8729   564.0    3.291      60.261
2015    3        9    22   2    4.8717   563.8    3.293      60.230
2015    3        9    22   7    4.8706   563.6    3.294      60.199
2015    3        9    22  13    4.8694   563.4    3.296      60.168
2015    3        9    22  18    4.8683   563.2    3.297      60.138
2015    3        9    22  23    4.8672   563.0    3.299      60.107
2015    3        9    22  28    4.8660   562.7    3.300      60.076
2015    3        9    22  33    4.8649   562.5    3.302      60.046
2015    3        9    22  39    4.8638   562.3    3.303      60.016
2015    3        9    22  44    4.8627   562.1    3.305      59.985
2015    3        9    22  49    4.8616   561.9    3.306      59.956
2015    3        9    22  54    4.8605   561.7    3.308      59.926
2015    3        9    22  59    4.8594   561.5    3.310      59.897
2015    3        9    23   5    4.8584   561.2    3.311      59.867
2015    3        9    23  10    4.8573   561.0    3.313      59.839
2015    3        9    23  15    4.8562   560.8    3.315      59.810
2015    3        9    23  20    4.8552   560.6    3.317      59.782
2015    3        9    23  25    4.8541   560.4    3.318      59.754
2015    3        9    23  31    4.8531   560.2    3.320      59.726
2015    3        9    23  36    4.8521   560.0    3.322      59.698
2015    3        9    23  41    4.8511   559.7    3.324      59.671
2015    3        9    23  46    4.8501   559.5    3.326      59.644
2015    3        9    23  51    4.8491   559.3    3.328      59.618
2015    3        9    23  57    4.8481   559.1    3.329      59.592
2015    3       10     0   2    4.8471   558.9    3.331      59.566
