year    month   day   hour  minute  B_enl V_enl   n_enl       T_enl
[year] [month] [day] [hour][minute] [nT]  [km/s]  [cm-3]      [kK]
2015    2        7     0   2    7.8784   432.9    8.156      48.665
2015    2        7     0   8    7.8803   433.1    8.151      48.694
2015    2        7     0  13    7.8822   433.2    8.146      48.723
2015    2        7     0  18    7.8841   433.4    8.141      48.751
2015    2        7     0  23    7.8860   433.5    8.136      48.779
2015    2        7     0  28    7.8878   433.7    8.131      48.807
2015    2        7     0  33    7.8897   433.8    8.126      48.834
2015    2        7     0  38    7.8915   434.0    8.121      48.861
2015    2        7     0  43    7.8934   434.1    8.116      48.888
2015    2        7     0  49    7.8953   434.2    8.110      48.914
2015    2        7     0  54    7.8971   434.4    8.105      48.940
2015    2        7     0  59    7.8990   434.5    8.101      48.966
2015    2        7     1   4    7.9009   434.7    8.096      48.991
2015    2        7     1   9    7.9027   434.8    8.091      49.017
2015    2        7     1  14    7.9046   435.0    8.086      49.042
2015    2        7     1  19    7.9064   435.1    8.081      49.067
2015    2        7     1  24    7.9083   435.3    8.077      49.093
2015    2        7     1  30    7.9102   435.4    8.072      49.117
2015    2        7     1  35    7.9120   435.6    8.068      49.142
2015    2        7     1  40    7.9139   435.7    8.063      49.167
2015    2        7     1  45    7.9158   435.9    8.059      49.192
2015    2        7     1  50    7.9177   436.0    8.055      49.217
2015    2        7     1  55    7.9195   436.1    8.051      49.242
2015    2        7     2   0    7.9214   436.3    8.048      49.268
2015    2        7     2   6    7.9233   436.4    8.044      49.293
2015    2        7     2  11    7.9252   436.6    8.041      49.319
2015    2        7     2  16    7.9271   436.7    8.037      49.345
2015    2        7     2  21    7.9288   436.9    8.034      49.371
2015    2        7     2  26    7.9309   437.0    8.031      49.398
2015    2        7     2  31    7.9328   437.2    8.029      49.425
2015    2        7     2  36    7.9347   437.3    8.026      49.452
2015    2        7     2  41    7.9367   437.5    8.024      49.479
2015    2        7     2  47    7.9384   437.6    8.022      49.507
2015    2        7     2  52    7.9405   437.8    8.020      49.535
2015    2        7     2  57    7.9424   437.9    8.019      49.564
2015    2        7     3   2    7.9443   438.1    8.017      49.593
2015    2        7     3   7    7.9462   438.2    8.016      49.623
2015    2        7     3  12    7.9477   438.4    8.015      49.655
2015    2        7     3  17    7.9498   438.5    8.015      49.689
2015    2        7     3  22    7.9515   438.7    8.014      49.724
2015    2        7     3  28    7.9532   438.9    8.013      49.761
2015    2        7     3  33    7.9549   439.0    8.012      49.800
2015    2        7     3  38    7.9565   439.2    8.012      49.840
2015    2        7     3  43    7.9580   439.4    8.011      49.882
2015    2        7     3  48    7.9595   439.5    8.010      49.924
2015    2        7     3  53    7.9608   439.7    8.009      49.967
2015    2        7     3  58    7.9621   439.9    8.008      50.010
2015    2        7     4   3    7.9633   440.0    8.006      50.054
2015    2        7     4   9    7.9644   440.2    8.004      50.099
2015    2        7     4  14    7.9651   440.4    8.002      50.144
2015    2        7     4  19    7.9663   440.6    8.000      50.189
2015    2        7     4  24    7.9671   440.8    7.997      50.235
2015    2        7     4  29    7.9679   440.9    7.994      50.280
2015    2        7     4  34    7.9686   441.1    7.991      50.323
2015    2        7     4  39    7.9691   441.3    7.987      50.366
2015    2        7     4  45    7.9697   441.5    7.983      50.408
2015    2        7     4  50    7.9701   441.6    7.979      50.450
2015    2        7     4  55    7.9705   441.8    7.975      50.490
2015    2        7     5   0    7.9709   442.0    7.970      50.529
2015    2        7     5   5    7.9709   442.2    7.965      50.568
2015    2        7     5  10    7.9714   442.4    7.960      50.605
2015    2        7     5  15    7.9715   442.5    7.954      50.642
2015    2        7     5  20    7.9717   442.7    7.949      50.678
2015    2        7     5  26    7.9718   442.9    7.943      50.713
2015    2        7     5  31    7.9718   443.1    7.937      50.748
2015    2        7     5  36    7.9719   443.2    7.931      50.781
2015    2        7     5  41    7.9716   443.4    7.924      50.814
2015    2        7     5  46    7.9718   443.6    7.918      50.846
2015    2        7     5  51    7.9718   443.8    7.911      50.877
2015    2        7     5  56    7.9717   443.9    7.904      50.908
2015    2        7     6   1    7.9715   444.1    7.897      50.938
2015    2        7     6   7    7.9714   444.3    7.890      50.967
2015    2        7     6  12    7.9712   444.5    7.883      50.996
2015    2        7     6  17    7.9710   444.6    7.875      51.024
2015    2        7     6  22    7.9708   444.8    7.868      51.051
2015    2        7     6  27    7.9705   445.0    7.860      51.078
2015    2        7     6  32    7.9702   445.1    7.852      51.104
2015    2        7     6  37    7.9699   445.3    7.845      51.130
2015    2        7     6  42    7.9696   445.5    7.837      51.154
2015    2        7     6  48    7.9692   445.7    7.829      51.179
2015    2        7     6  53    7.9688   445.8    7.821      51.203
2015    2        7     6  58    7.9684   446.0    7.813      51.226
2015    2        7     7   3    7.9680   446.2    7.805      51.249
2015    2        7     7   8    7.9675   446.3    7.797      51.272
2015    2        7     7  13    7.9671   446.5    7.788      51.294
2015    2        7     7  18    7.9666   446.7    7.780      51.315
2015    2        7     7  24    7.9660   446.8    7.772      51.336
2015    2        7     7  29    7.9655   447.0    7.763      51.357
2015    2        7     7  34    7.9649   447.2    7.755      51.377
2015    2        7     7  39    7.9643   447.3    7.747      51.397
2015    2        7     7  44    7.9637   447.5    7.738      51.416
2015    2        7     7  49    7.9629   447.7    7.730      51.436
2015    2        7     7  54    7.9624   447.8    7.722      51.454
2015    2        7     7  59    7.9618   448.0    7.713      51.473
2015    2        7     8   5    7.9611   448.2    7.705      51.491
2015    2        7     8  10    7.9604   448.3    7.696      51.509
2015    2        7     8  15    7.9596   448.5    7.688      51.527
2015    2        7     8  20    7.9589   448.7    7.679      51.544
2015    2        7     8  25    7.9581   448.8    7.671      51.561
2015    2        7     8  30    7.9573   449.0    7.663      51.578
2015    2        7     8  35    7.9562   449.1    7.654      51.595
2015    2        7     8  40    7.9556   449.3    7.646      51.611
2015    2        7     8  46    7.9547   449.5    7.637      51.627
2015    2        7     8  51    7.9538   449.6    7.629      51.643
2015    2        7     8  56    7.9529   449.8    7.621      51.658
2015    2        7     9   1    7.9520   450.0    7.612      51.674
2015    2        7     9   6    7.9508   450.1    7.604      51.689
2015    2        7     9  11    7.9501   450.3    7.596      51.704
2015    2        7     9  16    7.9490   450.4    7.588      51.718
2015    2        7     9  22    7.9480   450.6    7.579      51.733
2015    2        7     9  27    7.9470   450.7    7.571      51.747
2015    2        7     9  32    7.9459   450.9    7.563      51.761
2015    2        7     9  37    7.9446   451.1    7.555      51.775
2015    2        7     9  42    7.9437   451.2    7.547      51.788
2015    2        7     9  47    7.9426   451.4    7.539      51.802
2015    2        7     9  52    7.9414   451.5    7.532      51.816
2015    2        7     9  57    7.9402   451.7    7.524      51.829
2015    2        7    10   3    7.9390   451.8    7.516      51.842
2015    2        7    10   8    7.9378   452.0    7.509      51.855
2015    2        7    10  13    7.9365   452.1    7.501      51.868
2015    2        7    10  18    7.9352   452.3    7.494      51.881
2015    2        7    10  23    7.9339   452.4    7.487      51.894
2015    2        7    10  28    7.9325   452.6    7.479      51.908
2015    2        7    10  33    7.9311   452.7    7.472      51.922
2015    2        7    10  38    7.9297   452.9    7.465      51.936
2015    2        7    10  44    7.9282   453.0    7.458      51.951
2015    2        7    10  49    7.9264   453.2    7.451      51.965
2015    2        7    10  54    7.9251   453.3    7.444      51.980
2015    2        7    10  59    7.9235   453.5    7.437      51.995
2015    2        7    11   4    7.9219   453.6    7.430      52.010
2015    2        7    11   9    7.9202   453.8    7.423      52.025
2015    2        7    11  14    7.9185   453.9    7.416      52.040
2015    2        7    11  19    7.9167   454.1    7.409      52.056
2015    2        7    11  25    7.9149   454.2    7.402      52.071
2015    2        7    11  30    7.9127   454.4    7.395      52.086
2015    2        7    11  35    7.9111   454.5    7.387      52.101
2015    2        7    11  40    7.9091   454.7    7.380      52.116
2015    2        7    11  45    7.9071   454.8    7.373      52.131
2015    2        7    11  50    7.9051   455.0    7.366      52.145
2015    2        7    11  55    7.9031   455.1    7.359      52.159
2015    2        7    12   1    7.9010   455.2    7.351      52.173
2015    2        7    12   6    7.8989   455.4    7.344      52.187
2015    2        7    12  11    7.8967   455.5    7.337      52.200
2015    2        7    12  16    7.8945   455.7    7.330      52.213
2015    2        7    12  21    7.8923   455.8    7.322      52.226
2015    2        7    12  26    7.8901   456.0    7.315      52.239
2015    2        7    12  31    7.8875   456.1    7.308      52.251
2015    2        7    12  36    7.8856   456.2    7.301      52.264
2015    2        7    12  42    7.8830   456.4    7.294      52.276
2015    2        7    12  47    7.8810   456.5    7.286      52.288
2015    2        7    12  52    7.8786   456.6    7.279      52.300
2015    2        7    12  57    7.8763   456.8    7.272      52.311
2015    2        7    13   2    7.8739   456.9    7.265      52.323
2015    2        7    13   7    7.8716   457.1    7.258      52.334
2015    2        7    13  12    7.8692   457.2    7.251      52.346
2015    2        7    13  17    7.8668   457.3    7.244      52.357
2015    2        7    13  23    7.8644   457.5    7.237      52.368
2015    2        7    13  28    7.8620   457.6    7.230      52.380
2015    2        7    13  33    7.8596   457.7    7.223      52.391
2015    2        7    13  38    7.8572   457.8    7.216      52.402
2015    2        7    13  43    7.8547   458.0    7.209      52.413
2015    2        7    13  48    7.8523   458.1    7.203      52.424
2015    2        7    13  53    7.8499   458.2    7.196      52.435
2015    2        7    13  59    7.8474   458.4    7.189      52.447
2015    2        7    14   4    7.8450   458.5    7.182      52.458
2015    2        7    14   9    7.8425   458.6    7.175      52.469
2015    2        7    14  14    7.8401   458.7    7.169      52.480
2015    2        7    14  19    7.8376   458.9    7.162      52.491
2015    2        7    14  24    7.8352   459.0    7.155      52.502
2015    2        7    14  29    7.8327   459.1    7.149      52.513
2015    2        7    14  34    7.8303   459.2    7.142      52.524
2015    2        7    14  40    7.8278   459.4    7.135      52.535
2015    2        7    14  45    7.8254   459.5    7.129      52.547
2015    2        7    14  50    7.8230   459.6    7.122      52.558
2015    2        7    14  55    7.8205   459.7    7.116      52.569
2015    2        7    15   0    7.8181   459.8    7.109      52.581
2015    2        7    15   5    7.8155   460.0    7.103      52.593
2015    2        7    15  10    7.8133   460.1    7.096      52.604
2015    2        7    15  15    7.8109   460.2    7.090      52.616
2015    2        7    15  21    7.8083   460.3    7.084      52.628
2015    2        7    15  26    7.8061   460.4    7.077      52.639
2015    2        7    15  31    7.8038   460.6    7.071      52.651
2015    2        7    15  36    7.8014   460.7    7.065      52.664
2015    2        7    15  41    7.7991   460.8    7.058      52.676
2015    2        7    15  46    7.7967   460.9    7.052      52.689
2015    2        7    15  51    7.7944   461.0    7.046      52.702
2015    2        7    15  56    7.7920   461.1    7.040      52.715
2015    2        7    16   2    7.7897   461.2    7.034      52.728
2015    2        7    16   7    7.7874   461.4    7.027      52.741
2015    2        7    16  12    7.7851   461.5    7.021      52.754
2015    2        7    16  17    7.7828   461.6    7.015      52.767
2015    2        7    16  22    7.7803   461.7    7.009      52.780
2015    2        7    16  27    7.7782   461.8    7.003      52.793
2015    2        7    16  32    7.7759   461.9    6.997      52.805
2015    2        7    16  38    7.7736   462.1    6.990      52.818
2015    2        7    16  43    7.7713   462.2    6.984      52.830
2015    2        7    16  48    7.7689   462.3    6.978      52.843
2015    2        7    16  53    7.7665   462.4    6.972      52.855
2015    2        7    16  58    7.7640   462.5    6.965      52.867
2015    2        7    17   3    7.7618   462.6    6.959      52.878
2015    2        7    17   8    7.7594   462.7    6.952      52.889
2015    2        7    17  13    7.7568   462.9    6.946      52.900
2015    2        7    17  19    7.7543   463.0    6.940      52.911
2015    2        7    17  24    7.7520   463.1    6.933      52.921
2015    2        7    17  29    7.7495   463.2    6.927      52.931
2015    2        7    17  34    7.7470   463.3    6.920      52.941
2015    2        7    17  39    7.7445   463.4    6.914      52.950
2015    2        7    17  44    7.7420   463.5    6.907      52.959
2015    2        7    17  49    7.7395   463.6    6.901      52.968
2015    2        7    17  54    7.7369   463.7    6.894      52.977
2015    2        7    18   0    7.7344   463.9    6.888      52.986
2015    2        7    18   5    7.7317   464.0    6.882      52.994
2015    2        7    18  10    7.7293   464.1    6.875      53.002
2015    2        7    18  15    7.7267   464.2    6.869      53.011
2015    2        7    18  20    7.7241   464.3    6.863      53.018
2015    2        7    18  25    7.7216   464.4    6.856      53.026
2015    2        7    18  30    7.7190   464.5    6.850      53.034
2015    2        7    18  35    7.7164   464.6    6.844      53.041
2015    2        7    18  41    7.7139   464.7    6.838      53.049
2015    2        7    18  46    7.7113   464.8    6.831      53.056
2015    2        7    18  51    7.7088   464.9    6.825      53.063
2015    2        7    18  56    7.7062   465.0    6.819      53.070
2015    2        7    19   1    7.7037   465.1    6.813      53.077
2015    2        7    19   6    7.7012   465.2    6.807      53.084
2015    2        7    19  11    7.6986   465.3    6.802      53.091
2015    2        7    19  17    7.6961   465.4    6.796      53.097
2015    2        7    19  22    7.6936   465.5    6.790      53.104
2015    2        7    19  27    7.6911   465.6    6.784      53.111
2015    2        7    19  32    7.6886   465.7    6.779      53.117
2015    2        7    19  37    7.6861   465.8    6.773      53.124
2015    2        7    19  42    7.6836   465.9    6.768      53.130
2015    2        7    19  47    7.6811   466.0    6.762      53.137
2015    2        7    19  52    7.6787   466.1    6.757      53.143
2015    2        7    19  58    7.6762   466.2    6.752      53.150
2015    2        7    20   3    7.6738   466.2    6.747      53.156
2015    2        7    20   8    7.6713   466.3    6.742      53.163
2015    2        7    20  13    7.6689   466.4    6.737      53.169
2015    2        7    20  18    7.6664   466.5    6.732      53.175
2015    2        7    20  23    7.6640   466.6    6.727      53.182
2015    2        7    20  28    7.6616   466.7    6.722      53.189
2015    2        7    20  33    7.6592   466.8    6.717      53.195
2015    2        7    20  39    7.6567   466.9    6.712      53.202
2015    2        7    20  44    7.6543   467.0    6.708      53.209
2015    2        7    20  49    7.6520   467.1    6.703      53.216
2015    2        7    20  54    7.6496   467.2    6.698      53.223
2015    2        7    20  59    7.6472   467.3    6.694      53.230
2015    2        7    21   4    7.6448   467.3    6.690      53.237
2015    2        7    21   9    7.6425   467.4    6.685      53.244
2015    2        7    21  15    7.6401   467.5    6.681      53.252
2015    2        7    21  20    7.6378   467.6    6.676      53.259
2015    2        7    21  25    7.6354   467.7    6.672      53.266
2015    2        7    21  30    7.6331   467.8    6.668      53.274
2015    2        7    21  35    7.6308   467.9    6.664      53.282
2015    2        7    21  40    7.6285   468.0    6.660      53.289
2015    2        7    21  45    7.6262   468.0    6.656      53.298
2015    2        7    21  50    7.6239   468.1    6.652      53.306
2015    2        7    21  56    7.6217   468.2    6.648      53.314
2015    2        7    22   1    7.6194   468.3    6.644      53.322
2015    2        7    22   6    7.6172   468.4    6.640      53.331
2015    2        7    22  11    7.6151   468.5    6.636      53.340
2015    2        7    22  16    7.6129   468.5    6.632      53.349
2015    2        7    22  21    7.6106   468.6    6.628      53.358
2015    2        7    22  26    7.6085   468.7    6.624      53.368
2015    2        7    22  31    7.6063   468.8    6.620      53.377
2015    2        7    22  37    7.6043   468.9    6.617      53.387
2015    2        7    22  42    7.6022   468.9    6.613      53.398
2015    2        7    22  47    7.6001   469.0    6.609      53.408
2015    2        7    22  52    7.5981   469.1    6.606      53.419
2015    2        7    22  57    7.5961   469.2    6.602      53.430
2015    2        7    23   2    7.5942   469.2    6.599      53.441
2015    2        7    23   7    7.5922   469.3    6.595      53.453
2015    2        7    23  12    7.5903   469.4    6.592      53.466
2015    2        7    23  18    7.5885   469.5    6.589      53.478
2015    2        7    23  23    7.5866   469.5    6.585      53.492
2015    2        7    23  28    7.5849   469.6    6.582      53.505
2015    2        7    23  33    7.5831   469.7    6.579      53.519
2015    2        7    23  38    7.5813   469.8    6.575      53.533
2015    2        7    23  43    7.5796   469.9    6.572      53.547
2015    2        7    23  48    7.5779   469.9    6.569      53.561
2015    2        7    23  54    7.5762   470.0    6.565      53.576
2015    2        7    23  59    7.5746   470.1    6.562      53.590
2015    2        8     0   4    7.5729   470.2    6.559      53.605
2015    2        8     0   9    7.5713   470.3    6.555      53.620
2015    2        8     0  14    7.5697   470.3    6.552      53.634
2015    2        8     0  19    7.5680   470.4    6.548      53.649
2015    2        8     0  24    7.5664   470.5    6.545      53.663
2015    2        8     0  29    7.5648   470.6    6.541      53.678
2015    2        8     0  35    7.5632   470.7    6.538      53.692
2015    2        8     0  40    7.5616   470.7    6.534      53.706
2015    2        8     0  45    7.5601   470.8    6.530      53.720
2015    2        8     0  50    7.5584   470.9    6.527      53.734
2015    2        8     0  55    7.5569   471.0    6.523      53.748
2015    2        8     1   0    7.5553   471.1    6.519      53.761
2015    2        8     1   5    7.5538   471.1    6.515      53.774
2015    2        8     1  10    7.5521   471.2    6.512      53.788
2015    2        8     1  16    7.5506   471.3    6.508      53.801
2015    2        8     1  21    7.5490   471.4    6.504      53.814
2015    2        8     1  26    7.5475   471.5    6.500      53.827
2015    2        8     1  31    7.5460   471.5    6.496      53.840
2015    2        8     1  36    7.5445   471.6    6.493      53.853
2015    2        8     1  41    7.5430   471.7    6.489      53.866
2015    2        8     1  46    7.5415   471.8    6.485      53.878
2015    2        8     1  51    7.5400   471.9    6.481      53.891
2015    2        8     1  57    7.5385   471.9    6.477      53.904
2015    2        8     2   2    7.5372   472.0    6.474      53.917
2015    2        8     2   7    7.5357   472.1    6.470      53.929
2015    2        8     2  12    7.5342   472.2    6.466      53.942
2015    2        8     2  17    7.5328   472.3    6.463      53.955
2015    2        8     2  22    7.5313   472.3    6.459      53.967
2015    2        8     2  27    7.5299   472.4    6.455      53.980
2015    2        8     2  33    7.5285   472.5    6.452      53.993
2015    2        8     2  38    7.5271   472.6    6.448      54.006
2015    2        8     2  43    7.5257   472.7    6.444      54.018
2015    2        8     2  48    7.5243   472.7    6.441      54.031
2015    2        8     2  53    7.5229   472.8    6.437      54.044
2015    2        8     2  58    7.5216   472.9    6.434      54.057
2015    2        8     3   3    7.5203   473.0    6.431      54.070
2015    2        8     3   8    7.5188   473.1    6.427      54.083
2015    2        8     3  14    7.5174   473.2    6.424      54.096
2015    2        8     3  19    7.5160   473.2    6.421      54.109
2015    2        8     3  24    7.5146   473.3    6.417      54.122
2015    2        8     3  29    7.5131   473.4    6.414      54.136
2015    2        8     3  34    7.5117   473.5    6.411      54.149
2015    2        8     3  39    7.5103   473.6    6.408      54.162
2015    2        8     3  44    7.5089   473.6    6.405      54.176
2015    2        8     3  49    7.5075   473.7    6.402      54.189
2015    2        8     3  55    7.5060   473.8    6.399      54.203
2015    2        8     4   0    7.5046   473.9    6.396      54.216
2015    2        8     4   5    7.5032   474.0    6.393      54.230
2015    2        8     4  10    7.5017   474.1    6.390      54.243
2015    2        8     4  15    7.5003   474.1    6.387      54.257
2015    2        8     4  20    7.4988   474.2    6.385      54.270
2015    2        8     4  25    7.4974   474.3    6.382      54.284
2015    2        8     4  30    7.4959   474.4    6.379      54.297
2015    2        8     4  36    7.4945   474.5    6.376      54.310
2015    2        8     4  41    7.4930   474.6    6.373      54.323
2015    2        8     4  46    7.4916   474.6    6.371      54.336
2015    2        8     4  51    7.4901   474.7    6.368      54.349
2015    2        8     4  56    7.4887   474.8    6.365      54.362
2015    2        8     5   1    7.4872   474.9    6.362      54.374
2015    2        8     5   6    7.4859   475.0    6.360      54.387
2015    2        8     5  12    7.4843   475.1    6.357      54.399
2015    2        8     5  17    7.4829   475.1    6.354      54.411
2015    2        8     5  22    7.4814   475.2    6.351      54.423
2015    2        8     5  27    7.4800   475.3    6.349      54.435
2015    2        8     5  32    7.4787   475.4    6.346      54.447
2015    2        8     5  37    7.4773   475.5    6.343      54.459
2015    2        8     5  42    7.4758   475.5    6.340      54.470
2015    2        8     5  47    7.4744   475.6    6.337      54.482
2015    2        8     5  53    7.4730   475.7    6.334      54.493
2015    2        8     5  58    7.4717   475.8    6.331      54.505
2015    2        8     6   3    7.4703   475.9    6.328      54.516
2015    2        8     6   8    7.4691   475.9    6.325      54.527
2015    2        8     6  13    7.4676   476.0    6.323      54.538
2015    2        8     6  18    7.4663   476.1    6.320      54.549
2015    2        8     6  23    7.4650   476.2    6.317      54.560
2015    2        8     6  28    7.4638   476.2    6.314      54.571
2015    2        8     6  34    7.4625   476.3    6.311      54.581
2015    2        8     6  39    7.4613   476.4    6.307      54.592
2015    2        8     6  44    7.4600   476.5    6.304      54.603
2015    2        8     6  49    7.4588   476.5    6.301      54.614
2015    2        8     6  54    7.4577   476.6    6.298      54.625
2015    2        8     6  59    7.4565   476.7    6.295      54.636
2015    2        8     7   4    7.4553   476.8    6.292      54.647
2015    2        8     7   9    7.4542   476.8    6.289      54.657
2015    2        8     7  15    7.4531   476.9    6.286      54.669
2015    2        8     7  20    7.4520   477.0    6.283      54.680
2015    2        8     7  25    7.4510   477.0    6.280      54.691
2015    2        8     7  30    7.4499   477.1    6.277      54.703
2015    2        8     7  35    7.4489   477.2    6.273      54.714
2015    2        8     7  40    7.4479   477.3    6.270      54.726
2015    2        8     7  45    7.4469   477.3    6.267      54.738
2015    2        8     7  51    7.4460   477.4    6.264      54.750
2015    2        8     7  56    7.4450   477.5    6.261      54.762
2015    2        8     8   1    7.4441   477.5    6.258      54.775
2015    2        8     8   6    7.4432   477.6    6.255      54.787
2015    2        8     8  11    7.4424   477.7    6.252      54.800
2015    2        8     8  16    7.4415   477.8    6.249      54.813
2015    2        8     8  21    7.4407   477.8    6.246      54.826
2015    2        8     8  26    7.4399   477.9    6.243      54.840
2015    2        8     8  32    7.4391   478.0    6.240      54.853
2015    2        8     8  37    7.4383   478.0    6.237      54.867
2015    2        8     8  42    7.4375   478.1    6.234      54.882
2015    2        8     8  47    7.4368   478.2    6.231      54.896
2015    2        8     8  52    7.4361   478.3    6.228      54.910
2015    2        8     8  57    7.4353   478.3    6.225      54.925
2015    2        8     9   2    7.4347   478.4    6.222      54.940
2015    2        8     9   7    7.4340   478.5    6.219      54.956
2015    2        8     9  13    7.4333   478.6    6.216      54.971
2015    2        8     9  18    7.4327   478.6    6.213      54.987
2015    2        8     9  23    7.4320   478.7    6.211      55.003
2015    2        8     9  28    7.4314   478.8    6.208      55.019
2015    2        8     9  33    7.4308   478.8    6.205      55.036
2015    2        8     9  38    7.4302   478.9    6.202      55.052
2015    2        8     9  43    7.4296   479.0    6.200      55.069
2015    2        8     9  48    7.4290   479.1    6.197      55.087
2015    2        8     9  54    7.4284   479.1    6.195      55.104
2015    2        8     9  59    7.4279   479.2    6.192      55.122
2015    2        8    10   4    7.4273   479.3    6.190      55.140
2015    2        8    10   9    7.4268   479.4    6.187      55.158
2015    2        8    10  14    7.4262   479.5    6.185      55.176
2015    2        8    10  19    7.4257   479.5    6.183      55.195
2015    2        8    10  24    7.4251   479.6    6.180      55.214
2015    2        8    10  30    7.4245   479.7    6.178      55.233
2015    2        8    10  35    7.4240   479.8    6.176      55.252
2015    2        8    10  40    7.4234   479.8    6.174      55.271
2015    2        8    10  45    7.4229   479.9    6.172      55.291
2015    2        8    10  50    7.4223   480.0    6.170      55.311
2015    2        8    10  55    7.4217   480.1    6.168      55.331
2015    2        8    11   0    7.4211   480.2    6.166      55.351
2015    2        8    11   5    7.4205   480.2    6.164      55.371
2015    2        8    11  11    7.4199   480.3    6.162      55.392
2015    2        8    11  16    7.4193   480.4    6.160      55.413
2015    2        8    11  21    7.4187   480.5    6.158      55.433
2015    2        8    11  26    7.4181   480.6    6.157      55.454
2015    2        8    11  31    7.4175   480.6    6.155      55.475
2015    2        8    11  36    7.4169   480.7    6.154      55.496
2015    2        8    11  41    7.4163   480.8    6.152      55.517
2015    2        8    11  46    7.4157   480.9    6.150      55.538
2015    2        8    11  52    7.4151   481.0    6.149      55.559
2015    2        8    11  57    7.4145   481.1    6.148      55.581
2015    2        8    12   2    7.4139   481.1    6.146      55.601
2015    2        8    12   7    7.4133   481.2    6.145      55.622
2015    2        8    12  12    7.4126   481.3    6.143      55.643
2015    2        8    12  17    7.4120   481.4    6.142      55.664
2015    2        8    12  22    7.4114   481.5    6.141      55.684
2015    2        8    12  27    7.4108   481.6    6.140      55.704
2015    2        8    12  33    7.4103   481.6    6.138      55.725
2015    2        8    12  38    7.4096   481.7    6.137      55.745
2015    2        8    12  43    7.4090   481.8    6.136      55.765
2015    2        8    12  48    7.4084   481.9    6.135      55.786
2015    2        8    12  53    7.4078   482.0    6.134      55.806
2015    2        8    12  58    7.4072   482.1    6.133      55.827
2015    2        8    13   3    7.4067   482.2    6.131      55.847
2015    2        8    13   9    7.4061   482.2    6.130      55.868
2015    2        8    13  14    7.4055   482.3    6.129      55.889
2015    2        8    13  19    7.4050   482.4    6.127      55.909
2015    2        8    13  24    7.4044   482.5    6.126      55.929
2015    2        8    13  29    7.4039   482.6    6.125      55.950
2015    2        8    13  34    7.4032   482.7    6.123      55.970
2015    2        8    13  39    7.4027   482.8    6.122      55.990
2015    2        8    13  44    7.4021   482.8    6.120      56.010
2015    2        8    13  50    7.4016   482.9    6.118      56.030
2015    2        8    13  55    7.4010   483.0    6.116      56.050
2015    2        8    14   0    7.4006   483.1    6.115      56.069
2015    2        8    14   5    7.3999   483.2    6.113      56.089
2015    2        8    14  10    7.3994   483.3    6.111      56.108
2015    2        8    14  15    7.3990   483.3    6.109      56.126
2015    2        8    14  20    7.3984   483.4    6.106      56.145
2015    2        8    14  25    7.3979   483.5    6.104      56.163
2015    2        8    14  31    7.3974   483.6    6.102      56.181
2015    2        8    14  36    7.3969   483.7    6.100      56.199
2015    2        8    14  41    7.3964   483.7    6.098      56.217
2015    2        8    14  46    7.3960   483.8    6.095      56.234
2015    2        8    14  51    7.3956   483.9    6.093      56.252
2015    2        8    14  56    7.3951   484.0    6.090      56.269
2015    2        8    15   1    7.3946   484.1    6.088      56.287
2015    2        8    15   6    7.3942   484.1    6.086      56.304
2015    2        8    15  12    7.3938   484.2    6.083      56.321
2015    2        8    15  17    7.3935   484.3    6.081      56.338
2015    2        8    15  22    7.3931   484.4    6.078      56.355
2015    2        8    15  27    7.3928   484.5    6.076      56.372
2015    2        8    15  32    7.3924   484.5    6.073      56.389
2015    2        8    15  37    7.3921   484.6    6.070      56.406
2015    2        8    15  42    7.3919   484.7    6.068      56.423
2015    2        8    15  48    7.3915   484.8    6.065      56.440
2015    2        8    15  53    7.3913   484.9    6.063      56.457
2015    2        8    15  58    7.3910   484.9    6.060      56.474
2015    2        8    16   3    7.3908   485.0    6.058      56.491
2015    2        8    16   8    7.3906   485.1    6.055      56.508
2015    2        8    16  13    7.3903   485.2    6.052      56.525
2015    2        8    16  18    7.3901   485.3    6.050      56.543
2015    2        8    16  23    7.3899   485.3    6.047      56.560
2015    2        8    16  29    7.3898   485.4    6.045      56.577
2015    2        8    16  34    7.3896   485.5    6.042      56.595
2015    2        8    16  39    7.3895   485.6    6.040      56.613
2015    2        8    16  44    7.3893   485.7    6.037      56.631
2015    2        8    16  49    7.3892   485.7    6.034      56.649
2015    2        8    16  54    7.3891   485.8    6.032      56.667
2015    2        8    16  59    7.3890   485.9    6.029      56.685
2015    2        8    17   4    7.3888   486.0    6.027      56.704
2015    2        8    17  10    7.3887   486.1    6.024      56.722
2015    2        8    17  15    7.3887   486.1    6.022      56.741
2015    2        8    17  20    7.3886   486.2    6.019      56.761
2015    2        8    17  25    7.3885   486.3    6.017      56.780
2015    2        8    17  30    7.3884   486.4    6.015      56.800
2015    2        8    17  35    7.3884   486.5    6.012      56.820
2015    2        8    17  40    7.3883   486.6    6.010      56.840
2015    2        8    17  45    7.3883   486.6    6.007      56.860
2015    2        8    17  51    7.3882   486.7    6.005      56.881
2015    2        8    17  56    7.3882   486.8    6.003      56.902
2015    2        8    18   1    7.3882   486.9    6.001      56.924
2015    2        8    18   6    7.3882   487.0    5.998      56.946
2015    2        8    18  11    7.3882   487.1    5.996      56.968
2015    2        8    18  16    7.3882   487.2    5.994      56.990
2015    2        8    18  21    7.3882   487.2    5.992      57.013
2015    2        8    18  27    7.3882   487.3    5.990      57.036
2015    2        8    18  32    7.3882   487.4    5.988      57.060
2015    2        8    18  37    7.3882   487.5    5.986      57.084
2015    2        8    18  42    7.3882   487.6    5.984      57.108
2015    2        8    18  47    7.3883   487.7    5.983      57.132
2015    2        8    18  52    7.3883   487.8    5.981      57.157
2015    2        8    18  57    7.3883   487.9    5.979      57.182
2015    2        8    19   2    7.3884   487.9    5.978      57.208
2015    2        8    19   8    7.3884   488.0    5.976      57.234
2015    2        8    19  13    7.3885   488.1    5.975      57.260
2015    2        8    19  18    7.3885   488.2    5.974      57.287
2015    2        8    19  23    7.3886   488.3    5.972      57.313
2015    2        8    19  28    7.3887   488.4    5.971      57.340
2015    2        8    19  33    7.3888   488.5    5.970      57.368
2015    2        8    19  38    7.3888   488.6    5.969      57.395
2015    2        8    19  43    7.3889   488.7    5.968      57.423
2015    2        8    19  49    7.3890   488.8    5.968      57.451
2015    2        8    19  54    7.3890   488.9    5.967      57.479
2015    2        8    19  59    7.3891   489.0    5.966      57.508
2015    2        8    20   4    7.3892   489.0    5.966      57.536
2015    2        8    20   9    7.3894   489.1    5.966      57.565
2015    2        8    20  14    7.3895   489.2    5.965      57.594
2015    2        8    20  19    7.3896   489.3    5.965      57.625
2015    2        8    20  24    7.3897   489.4    5.965      57.656
2015    2        8    20  30    7.3898   489.5    5.965      57.688
2015    2        8    20  35    7.3900   489.6    5.965      57.721
2015    2        8    20  40    7.3901   489.7    5.965      57.755
2015    2        8    20  45    7.3902   489.8    5.964      57.789
2015    2        8    20  50    7.3903   489.9    5.964      57.824
2015    2        8    20  55    7.3904   490.0    5.964      57.859
2015    2        8    21   0    7.3905   490.1    5.963      57.894
2015    2        8    21   6    7.3906   490.3    5.963      57.930
2015    2        8    21  11    7.3906   490.4    5.962      57.965
2015    2        8    21  16    7.3907   490.5    5.961      58.002
2015    2        8    21  21    7.3907   490.6    5.960      58.038
2015    2        8    21  26    7.3908   490.7    5.959      58.074
2015    2        8    21  31    7.3908   490.8    5.958      58.109
2015    2        8    21  36    7.3909   490.9    5.957      58.145
2015    2        8    21  41    7.3909   491.0    5.956      58.179
2015    2        8    21  47    7.3908   491.1    5.954      58.213
2015    2        8    21  52    7.3909   491.2    5.953      58.247
2015    2        8    21  57    7.3909   491.3    5.951      58.280
2015    2        8    22   2    7.3909   491.4    5.949      58.313
2015    2        8    22   7    7.3908   491.5    5.948      58.345
2015    2        8    22  12    7.3909   491.6    5.946      58.377
2015    2        8    22  17    7.3909   491.7    5.944      58.409
2015    2        8    22  22    7.3909   491.8    5.942      58.440
2015    2        8    22  28    7.3909   491.9    5.940      58.471
2015    2        8    22  33    7.3909   492.0    5.938      58.501
2015    2        8    22  38    7.3909   492.1    5.935      58.531
2015    2        8    22  43    7.3909   492.2    5.933      58.561
2015    2        8    22  48    7.3909   492.3    5.931      58.590
2015    2        8    22  53    7.3909   492.4    5.929      58.619
2015    2        8    22  58    7.3909   492.5    5.926      58.648
2015    2        8    23   3    7.3910   492.6    5.924      58.676
2015    2        8    23   9    7.3910   492.7    5.922      58.704
2015    2        8    23  14    7.3910   492.8    5.919      58.732
2015    2        8    23  19    7.3911   492.9    5.917      58.759
2015    2        8    23  24    7.3911   493.0    5.914      58.787
2015    2        8    23  29    7.3912   493.1    5.912      58.813
2015    2        8    23  34    7.3912   493.2    5.909      58.840
2015    2        8    23  39    7.3913   493.3    5.907      58.867
2015    2        8    23  45    7.3914   493.4    5.904      58.893
2015    2        8    23  50    7.3914   493.5    5.902      58.919
2015    2        8    23  55    7.3915   493.6    5.899      58.946
2015    2        9     0   0    7.3917   493.7    5.896      58.972
2015    2        9     0   5    7.3918   493.8    5.894      58.998
2015    2        9     0  10    7.3919   493.9    5.891      59.024
2015    2        9     0  15    7.3920   494.0    5.889      59.050
2015    2        9     0  20    7.3922   494.1    5.886      59.076
2015    2        9     0  26    7.3923   494.2    5.883      59.103
2015    2        9     0  31    7.3925   494.3    5.881      59.129
2015    2        9     0  36    7.3927   494.4    5.878      59.156
2015    2        9     0  41    7.3929   494.5    5.876      59.183
2015    2        9     0  46    7.3931   494.6    5.873      59.210
2015    2        9     0  51    7.3934   494.7    5.871      59.237
2015    2        9     0  56    7.3937   494.8    5.868      59.265
2015    2        9     1   1    7.3939   494.9    5.866      59.293
2015    2        9     1   7    7.3942   495.0    5.863      59.321
2015    2        9     1  12    7.3945   495.1    5.861      59.350
2015    2        9     1  17    7.3948   495.2    5.859      59.379
2015    2        9     1  22    7.3952   495.3    5.857      59.408
2015    2        9     1  27    7.3955   495.4    5.854      59.438
2015    2        9     1  32    7.3958   495.5    5.852      59.468
2015    2        9     1  37    7.3962   495.6    5.850      59.499
2015    2        9     1  43    7.3965   495.7    5.848      59.531
2015    2        9     1  48    7.3969   495.8    5.846      59.562
2015    2        9     1  53    7.3972   495.9    5.845      59.595
2015    2        9     1  58    7.3976   496.1    5.843      59.627
2015    2        9     2   3    7.3979   496.2    5.841      59.660
2015    2        9     2   8    7.3982   496.3    5.839      59.694
2015    2        9     2  13    7.3986   496.4    5.838      59.728
2015    2        9     2  18    7.3989   496.5    5.836      59.762
2015    2        9     2  24    7.3992   496.6    5.835      59.797
2015    2        9     2  29    7.3995   496.7    5.834      59.832
2015    2        9     2  34    7.3999   496.8    5.832      59.868
2015    2        9     2  39    7.4002   496.9    5.831      59.904
2015    2        9     2  44    7.4005   497.0    5.830      59.940
2015    2        9     2  49    7.4007   497.2    5.829      59.976
2015    2        9     2  54    7.4010   497.3    5.828      60.013
2015    2        9     2  59    7.4013   497.4    5.828      60.050
2015    2        9     3   5    7.4016   497.5    5.827      60.087
2015    2        9     3  10    7.4019   497.6    5.826      60.124
2015    2        9     3  15    7.4022   497.7    5.826      60.162
2015    2        9     3  20    7.4024   497.8    5.825      60.199
2015    2        9     3  25    7.4027   497.9    5.825      60.237
2015    2        9     3  30    7.4030   498.0    5.825      60.276
2015    2        9     3  35    7.4033   498.2    5.825      60.316
2015    2        9     3  40    7.4035   498.3    5.825      60.357
2015    2        9     3  46    7.4038   498.4    5.824      60.398
2015    2        9     3  51    7.4040   498.5    5.824      60.441
2015    2        9     3  56    7.4043   498.6    5.824      60.484
2015    2        9     4   1    7.4046   498.8    5.824      60.529
2015    2        9     4   6    7.4048   498.9    5.824      60.574
2015    2        9     4  11    7.4050   499.0    5.823      60.619
2015    2        9     4  16    7.4053   499.1    5.823      60.665
2015    2        9     4  22    7.4055   499.2    5.822      60.712
2015    2        9     4  27    7.4057   499.4    5.822      60.759
2015    2        9     4  32    7.4060   499.5    5.821      60.807
2015    2        9     4  37    7.4062   499.6    5.820      60.855
2015    2        9     4  42    7.4064   499.7    5.819      60.902
2015    2        9     4  47    7.4066   499.9    5.818      60.950
2015    2        9     4  52    7.4068   500.0    5.816      60.996
2015    2        9     4  57    7.4070   500.1    5.815      61.043
2015    2        9     5   3    7.4072   500.2    5.813      61.090
2015    2        9     5   8    7.4074   500.4    5.812      61.135
2015    2        9     5  13    7.4077   500.5    5.810      61.181
2015    2        9     5  18    7.4079   500.6    5.808      61.225
2015    2        9     5  23    7.4081   500.7    5.806      61.270
2015    2        9     5  28    7.4083   500.9    5.804      61.313
2015    2        9     5  33    7.4085   501.0    5.802      61.356
2015    2        9     5  38    7.4087   501.1    5.800      61.399
2015    2        9     5  44    7.4089   501.2    5.798      61.441
2015    2        9     5  49    7.4091   501.3    5.796      61.483
2015    2        9     5  54    7.4093   501.5    5.794      61.525
2015    2        9     5  59    7.4096   501.6    5.792      61.566
2015    2        9     6   4    7.4098   501.7    5.789      61.606
2015    2        9     6   9    7.4100   501.8    5.787      61.647
2015    2        9     6  14    7.4102   502.0    5.785      61.687
2015    2        9     6  19    7.4105   502.1    5.782      61.726
2015    2        9     6  25    7.4108   502.2    5.780      61.766
2015    2        9     6  30    7.4110   502.3    5.778      61.804
2015    2        9     6  35    7.4113   502.4    5.775      61.843
2015    2        9     6  40    7.4116   502.6    5.773      61.882
2015    2        9     6  45    7.4119   502.7    5.770      61.921
2015    2        9     6  50    7.4122   502.8    5.768      61.959
2015    2        9     6  55    7.4125   502.9    5.765      61.997
2015    2        9     7   1    7.4129   503.0    5.763      62.036
2015    2        9     7   6    7.4132   503.2    5.760      62.074
2015    2        9     7  11    7.4136   503.3    5.758      62.112
2015    2        9     7  16    7.4140   503.4    5.756      62.151
2015    2        9     7  21    7.4145   503.5    5.753      62.190
2015    2        9     7  26    7.4149   503.7    5.751      62.228
2015    2        9     7  31    7.4154   503.8    5.748      62.267
2015    2        9     7  36    7.4159   503.9    5.746      62.306
2015    2        9     7  42    7.4165   504.0    5.744      62.346
2015    2        9     7  47    7.4170   504.2    5.741      62.386
2015    2        9     7  52    7.4176   504.3    5.739      62.426
2015    2        9     7  57    7.4182   504.4    5.737      62.467
2015    2        9     8   2    7.4188   504.5    5.735      62.508
2015    2        9     8   7    7.4193   504.7    5.733      62.549
2015    2        9     8  12    7.4200   504.8    5.731      62.591
2015    2        9     8  17    7.4206   504.9    5.729      62.633
2015    2        9     8  23    7.4212   505.1    5.727      62.676
2015    2        9     8  28    7.4218   505.2    5.725      62.720
2015    2        9     8  33    7.4224   505.3    5.723      62.764
2015    2        9     8  38    7.4229   505.5    5.722      62.810
2015    2        9     8  43    7.4234   505.6    5.720      62.855
2015    2        9     8  48    7.4240   505.7    5.718      62.902
2015    2        9     8  53    7.4244   505.9    5.717      62.949
2015    2        9     8  59    7.4249   506.0    5.715      62.996
2015    2        9     9   4    7.4253   506.1    5.714      63.043
2015    2        9     9   9    7.4257   506.3    5.712      63.091
2015    2        9     9  14    7.4261   506.4    5.711      63.138
2015    2        9     9  19    7.4264   506.6    5.709      63.186
2015    2        9     9  24    7.4267   506.7    5.708      63.234
2015    2        9     9  29    7.4270   506.9    5.706      63.281
2015    2        9     9  34    7.4272   507.0    5.704      63.328
2015    2        9     9  40    7.4275   507.1    5.703      63.375
2015    2        9     9  45    7.4276   507.3    5.701      63.422
2015    2        9     9  50    7.4278   507.4    5.700      63.468
2015    2        9     9  55    7.4279   507.6    5.698      63.513
2015    2        9    10   0    7.4280   507.7    5.696      63.559
2015    2        9    10   5    7.4281   507.9    5.695      63.604
2015    2        9    10  10    7.4282   508.0    5.693      63.649
2015    2        9    10  15    7.4283   508.2    5.691      63.694
2015    2        9    10  21    7.4284   508.3    5.689      63.738
2015    2        9    10  26    7.4284   508.4    5.688      63.782
2015    2        9    10  31    7.4284   508.6    5.686      63.826
2015    2        9    10  36    7.4284   508.7    5.684      63.869
2015    2        9    10  41    7.4285   508.9    5.683      63.913
2015    2        9    10  46    7.4285   509.0    5.681      63.956
2015    2        9    10  51    7.4285   509.2    5.679      63.999
2015    2        9    10  56    7.4285   509.3    5.677      64.042
2015    2        9    11   2    7.4285   509.4    5.676      64.085
2015    2        9    11   7    7.4285   509.6    5.674      64.127
2015    2        9    11  12    7.4285   509.7    5.672      64.169
2015    2        9    11  17    7.4285   509.9    5.671      64.212
2015    2        9    11  22    7.4285   510.0    5.669      64.254
2015    2        9    11  27    7.4285   510.2    5.667      64.297
2015    2        9    11  32    7.4285   510.3    5.665      64.340
2015    2        9    11  38    7.4285   510.5    5.663      64.383
2015    2        9    11  43    7.4286   510.6    5.661      64.427
2015    2        9    11  48    7.4286   510.8    5.659      64.471
2015    2        9    11  53    7.4287   510.9    5.657      64.515
2015    2        9    11  58    7.4288   511.1    5.655      64.560
2015    2        9    12   3    7.4288   511.2    5.653      64.604
2015    2        9    12   8    7.4289   511.4    5.651      64.650
2015    2        9    12  13    7.4290   511.5    5.649      64.695
2015    2        9    12  19    7.4291   511.7    5.646      64.740
2015    2        9    12  24    7.4292   511.8    5.644      64.786
2015    2        9    12  29    7.4293   512.0    5.642      64.831
2015    2        9    12  34    7.4295   512.1    5.639      64.877
2015    2        9    12  39    7.4296   512.3    5.637      64.922
2015    2        9    12  44    7.4297   512.4    5.634      64.968
2015    2        9    12  49    7.4299   512.6    5.632      65.013
2015    2        9    12  54    7.4300   512.7    5.629      65.059
2015    2        9    13   0    7.4302   512.9    5.627      65.104
2015    2        9    13   5    7.4303   513.0    5.624      65.149
2015    2        9    13  10    7.4305   513.2    5.622      65.194
2015    2        9    13  15    7.4307   513.3    5.619      65.239
2015    2        9    13  20    7.4308   513.5    5.616      65.284
2015    2        9    13  25    7.4310   513.6    5.614      65.329
2015    2        9    13  30    7.4312   513.8    5.611      65.374
2015    2        9    13  35    7.4313   513.9    5.609      65.419
2015    2        9    13  41    7.4315   514.1    5.606      65.465
2015    2        9    13  46    7.4316   514.3    5.604      65.510
2015    2        9    13  51    7.4318   514.4    5.601      65.555
2015    2        9    13  56    7.4319   514.6    5.598      65.600
2015    2        9    14   1    7.4321   514.7    5.596      65.645
2015    2        9    14   6    7.4322   514.9    5.593      65.690
2015    2        9    14  11    7.4323   515.0    5.591      65.735
2015    2        9    14  17    7.4324   515.2    5.588      65.781
2015    2        9    14  22    7.4326   515.4    5.586      65.826
2015    2        9    14  27    7.4327   515.5    5.583      65.872
2015    2        9    14  32    7.4328   515.7    5.581      65.918
2015    2        9    14  37    7.4329   515.8    5.578      65.964
2015    2        9    14  42    7.4331   516.0    5.576      66.011
2015    2        9    14  47    7.4332   516.2    5.573      66.057
2015    2        9    14  52    7.4333   516.3    5.571      66.104
2015    2        9    14  58    7.4335   516.5    5.569      66.151
2015    2        9    15   3    7.4337   516.6    5.566      66.199
2015    2        9    15   8    7.4339   516.8    5.564      66.246
2015    2        9    15  13    7.4341   517.0    5.562      66.295
2015    2        9    15  18    7.4343   517.1    5.560      66.343
2015    2        9    15  23    7.4345   517.3    5.558      66.392
2015    2        9    15  28    7.4347   517.4    5.556      66.442
2015    2        9    15  33    7.4350   517.6    5.554      66.493
2015    2        9    15  39    7.4353   517.8    5.552      66.544
2015    2        9    15  44    7.4356   517.9    5.551      66.595
2015    2        9    15  49    7.4358   518.1    5.549      66.648
2015    2        9    15  54    7.4361   518.3    5.548      66.703
2015    2        9    15  59    7.4364   518.4    5.546      66.759
2015    2        9    16   4    7.4367   518.6    5.545      66.818
2015    2        9    16   9    7.4369   518.8    5.544      66.878
2015    2        9    16  14    7.4371   519.0    5.543      66.939
2015    2        9    16  20    7.4373   519.2    5.541      67.002
2015    2        9    16  25    7.4374   519.3    5.540      67.065
2015    2        9    16  30    7.4375   519.5    5.539      67.129
2015    2        9    16  35    7.4376   519.7    5.537      67.193
2015    2        9    16  40    7.4376   519.9    5.535      67.257
2015    2        9    16  45    7.4375   520.1    5.534      67.322
2015    2        9    16  50    7.4374   520.3    5.532      67.385
2015    2        9    16  56    7.4372   520.5    5.530      67.449
2015    2        9    17   1    7.4370   520.7    5.528      67.511
2015    2        9    17   6    7.4367   520.9    5.525      67.572
2015    2        9    17  11    7.4363   521.1    5.523      67.632
2015    2        9    17  16    7.4359   521.3    5.520      67.689
2015    2        9    17  21    7.4355   521.5    5.518      67.746
2015    2        9    17  26    7.4350   521.7    5.515      67.802
2015    2        9    17  31    7.4345   521.9    5.512      67.857
2015    2        9    17  37    7.4340   522.1    5.509      67.910
2015    2        9    17  42    7.4334   522.3    5.506      67.963
2015    2        9    17  47    7.4328   522.5    5.502      68.014
2015    2        9    17  52    7.4322   522.7    5.499      68.065
2015    2        9    17  57    7.4316   522.9    5.496      68.114
2015    2        9    18   2    7.4309   523.1    5.492      68.163
2015    2        9    18   7    7.4302   523.3    5.488      68.210
2015    2        9    18  12    7.4295   523.5    5.485      68.257
2015    2        9    18  18    7.4288   523.6    5.481      68.304
2015    2        9    18  23    7.4280   523.8    5.477      68.349
2015    2        9    18  28    7.4272   524.0    5.473      68.394
2015    2        9    18  33    7.4264   524.2    5.469      68.437
2015    2        9    18  38    7.4257   524.4    5.465      68.480
2015    2        9    18  43    7.4248   524.6    5.461      68.523
2015    2        9    18  48    7.4240   524.8    5.456      68.564
2015    2        9    18  54    7.4231   525.0    5.452      68.606
2015    2        9    18  59    7.4223   525.2    5.448      68.646
2015    2        9    19   4    7.4214   525.4    5.444      68.686
2015    2        9    19   9    7.4205   525.6    5.439      68.726
2015    2        9    19  14    7.4196   525.8    5.435      68.765
2015    2        9    19  19    7.4187   526.0    5.431      68.804
2015    2        9    19  24    7.4177   526.2    5.426      68.843
2015    2        9    19  29    7.4168   526.4    5.422      68.881
2015    2        9    19  35    7.4159   526.6    5.418      68.919
2015    2        9    19  40    7.4150   526.8    5.413      68.957
2015    2        9    19  45    7.4140   527.0    5.409      68.995
2015    2        9    19  50    7.4131   527.2    5.404      69.033
2015    2        9    19  55    7.4122   527.4    5.400      69.070
2015    2        9    20   0    7.4113   527.6    5.396      69.108
2015    2        9    20   5    7.4102   527.8    5.391      69.146
2015    2        9    20  10    7.4093   528.0    5.387      69.184
2015    2        9    20  16    7.4085   528.2    5.383      69.222
2015    2        9    20  21    7.4076   528.4    5.378      69.260
2015    2        9    20  26    7.4067   528.6    5.374      69.298
2015    2        9    20  31    7.4058   528.8    5.370      69.336
2015    2        9    20  36    7.4048   529.0    5.366      69.375
2015    2        9    20  41    7.4039   529.2    5.362      69.413
2015    2        9    20  46    7.4030   529.4    5.358      69.453
2015    2        9    20  51    7.4020   529.6    5.354      69.492
2015    2        9    20  57    7.4011   529.8    5.350      69.532
2015    2        9    21   2    7.4001   530.0    5.346      69.572
2015    2        9    21   7    7.3991   530.2    5.342      69.612
2015    2        9    21  12    7.3980   530.4    5.338      69.653
2015    2        9    21  17    7.3969   530.6    5.334      69.695
2015    2        9    21  22    7.3959   530.8    5.330      69.738
2015    2        9    21  27    7.3948   531.1    5.327      69.781
2015    2        9    21  33    7.3937   531.3    5.323      69.826
2015    2        9    21  38    7.3924   531.5    5.319      69.871
2015    2        9    21  43    7.3913   531.7    5.315      69.917
2015    2        9    21  48    7.3901   531.9    5.312      69.964
2015    2        9    21  53    7.3887   532.1    5.308      70.011
2015    2        9    21  58    7.3875   532.4    5.304      70.059
2015    2        9    22   3    7.3862   532.6    5.300      70.106
2015    2        9    22   8    7.3849   532.8    5.296      70.155
2015    2        9    22  14    7.3835   533.0    5.292      70.203
2015    2        9    22  19    7.3820   533.2    5.288      70.252
2015    2        9    22  24    7.3806   533.5    5.284      70.300
2015    2        9    22  29    7.3791   533.7    5.280      70.349
2015    2        9    22  34    7.3776   533.9    5.276      70.397
2015    2        9    22  39    7.3760   534.1    5.272      70.446
2015    2        9    22  44    7.3745   534.3    5.268      70.494
2015    2        9    22  49    7.3729   534.5    5.264      70.542
2015    2        9    22  55    7.3713   534.8    5.260      70.590
2015    2        9    23   0    7.3696   535.0    5.256      70.638
2015    2        9    23   5    7.3680   535.2    5.252      70.686
2015    2        9    23  10    7.3663   535.4    5.248      70.734
2015    2        9    23  15    7.3645   535.6    5.243      70.783
2015    2        9    23  20    7.3626   535.8    5.239      70.833
2015    2        9    23  25    7.3610   536.1    5.235      70.882
2015    2        9    23  30    7.3591   536.3    5.231      70.932
2015    2        9    23  36    7.3572   536.5    5.227      70.983
2015    2        9    23  41    7.3553   536.7    5.223      71.033
2015    2        9    23  46    7.3533   536.9    5.218      71.084
2015    2        9    23  51    7.3513   537.2    5.214      71.134
2015    2        9    23  56    7.3493   537.4    5.210      71.185
2015    2       10     0   1    7.3472   537.6    5.205      71.235
2015    2       10     0   6    7.3450   537.8    5.201      71.285
2015    2       10     0  12    7.3428   538.1    5.196      71.336
2015    2       10     0  17    7.3406   538.3    5.192      71.386
2015    2       10     0  22    7.3380   538.5    5.187      71.436
2015    2       10     0  27    7.3359   538.7    5.182      71.485
2015    2       10     0  32    7.3335   539.0    5.178      71.534
2015    2       10     0  37    7.3311   539.2    5.173      71.583
2015    2       10     0  42    7.3287   539.4    5.168      71.631
2015    2       10     0  47    7.3262   539.6    5.163      71.679
2015    2       10     0  53    7.3236   539.9    5.158      71.727
2015    2       10     0  58    7.3208   540.1    5.153      71.775
2015    2       10     1   3    7.3184   540.3    5.148      71.822
2015    2       10     1   8    7.3158   540.6    5.142      71.869
2015    2       10     1  13    7.3129   540.8    5.137      71.916
2015    2       10     1  18    7.3102   541.0    5.132      71.963
2015    2       10     1  23    7.3076   541.2    5.127      72.009
2015    2       10     1  28    7.3049   541.5    5.121      72.056
2015    2       10     1  34    7.3020   541.7    5.116      72.102
2015    2       10     1  39    7.2992   541.9    5.110      72.148
2015    2       10     1  44    7.2962   542.1    5.105      72.193
2015    2       10     1  49    7.2933   542.4    5.099      72.238
2015    2       10     1  54    7.2903   542.6    5.094      72.283
2015    2       10     1  59    7.2873   542.8    5.088      72.328
2015    2       10     2   4    7.2843   543.0    5.083      72.373
2015    2       10     2   9    7.2812   543.3    5.077      72.417
2015    2       10     2  15    7.2781   543.5    5.072      72.460
2015    2       10     2  20    7.2749   543.7    5.066      72.504
2015    2       10     2  25    7.2717   543.9    5.060      72.546
2015    2       10     2  30    7.2685   544.2    5.054      72.588
2015    2       10     2  35    7.2652   544.4    5.049      72.630
2015    2       10     2  40    7.2620   544.6    5.043      72.670
2015    2       10     2  45    7.2586   544.8    5.037      72.710
2015    2       10     2  51    7.2553   545.1    5.031      72.750
2015    2       10     2  56    7.2519   545.3    5.025      72.788
2015    2       10     3   1    7.2484   545.5    5.020      72.826
2015    2       10     3   6    7.2450   545.7    5.014      72.863
2015    2       10     3  11    7.2415   546.0    5.008      72.899
2015    2       10     3  16    7.2379   546.2    5.002      72.935
2015    2       10     3  21    7.2344   546.4    4.996      72.970
2015    2       10     3  26    7.2308   546.6    4.990      73.004
2015    2       10     3  32    7.2272   546.9    4.984      73.037
2015    2       10     3  37    7.2236   547.1    4.978      73.070
2015    2       10     3  42    7.2199   547.3    4.972      73.102
2015    2       10     3  47    7.2162   547.5    4.966      73.134
2015    2       10     3  52    7.2125   547.7    4.960      73.165
2015    2       10     3  57    7.2087   548.0    4.954      73.195
2015    2       10     4   2    7.2047   548.2    4.948      73.224
2015    2       10     4   7    7.2012   548.4    4.942      73.254
2015    2       10     4  13    7.1974   548.6    4.936      73.282
2015    2       10     4  18    7.1935   548.8    4.930      73.311
2015    2       10     4  23    7.1897   549.1    4.924      73.339
2015    2       10     4  28    7.1858   549.3    4.918      73.367
2015    2       10     4  33    7.1819   549.5    4.912      73.394
2015    2       10     4  38    7.1780   549.7    4.906      73.421
2015    2       10     4  43    7.1742   549.9    4.900      73.448
2015    2       10     4  48    7.1702   550.1    4.894      73.474
2015    2       10     4  54    7.1663   550.4    4.889      73.501
2015    2       10     4  59    7.1623   550.6    4.883      73.527
2015    2       10     5   4    7.1584   550.8    4.877      73.553
2015    2       10     5   9    7.1544   551.0    4.871      73.579
2015    2       10     5  14    7.1504   551.2    4.866      73.605
2015    2       10     5  19    7.1463   551.4    4.860      73.632
2015    2       10     5  24    7.1423   551.7    4.854      73.659
2015    2       10     5  30    7.1382   551.9    4.849      73.687
2015    2       10     5  35    7.1341   552.1    4.843      73.715
2015    2       10     5  40    7.1300   552.3    4.837      73.743
2015    2       10     5  45    7.1258   552.5    4.832      73.772
2015    2       10     5  50    7.1213   552.7    4.826      73.802
2015    2       10     5  55    7.1174   553.0    4.820      73.831
2015    2       10     6   0    7.1131   553.2    4.814      73.861
2015    2       10     6   5    7.1088   553.4    4.809      73.891
2015    2       10     6  11    7.1045   553.6    4.803      73.921
2015    2       10     6  16    7.1001   553.8    4.797      73.951
2015    2       10     6  21    7.0957   554.0    4.791      73.981
2015    2       10     6  26    7.0914   554.3    4.785      74.011
2015    2       10     6  31    7.0869   554.5    4.780      74.041
2015    2       10     6  36    7.0825   554.7    4.774      74.070
2015    2       10     6  41    7.0781   554.9    4.768      74.099
2015    2       10     6  46    7.0736   555.1    4.762      74.128
2015    2       10     6  52    7.0691   555.3    4.756      74.156
2015    2       10     6  57    7.0647   555.5    4.750      74.185
2015    2       10     7   2    7.0599   555.7    4.745      74.213
2015    2       10     7   7    7.0557   555.9    4.739      74.241
2015    2       10     7  12    7.0512   556.1    4.733      74.269
2015    2       10     7  17    7.0467   556.3    4.727      74.297
2015    2       10     7  22    7.0423   556.5    4.721      74.325
2015    2       10     7  27    7.0378   556.7    4.715      74.352
2015    2       10     7  33    7.0333   556.9    4.710      74.380
2015    2       10     7  38    7.0289   557.1    4.704      74.407
2015    2       10     7  43    7.0244   557.3    4.698      74.434
2015    2       10     7  48    7.0200   557.5    4.692      74.461
2015    2       10     7  53    7.0156   557.7    4.687      74.489
2015    2       10     7  58    7.0111   557.9    4.681      74.515
2015    2       10     8   3    7.0068   558.0    4.675      74.542
2015    2       10     8   9    7.0021   558.2    4.669      74.569
2015    2       10     8  14    6.9980   558.4    4.664      74.596
2015    2       10     8  19    6.9937   558.6    4.658      74.623
2015    2       10     8  24    6.9891   558.8    4.653      74.649
2015    2       10     8  29    6.9850   559.0    4.647      74.676
2015    2       10     8  34    6.9807   559.2    4.641      74.702
2015    2       10     8  39    6.9763   559.3    4.636      74.729
2015    2       10     8  44    6.9722   559.5    4.630      74.755
2015    2       10     8  50    6.9680   559.7    4.625      74.781
2015    2       10     8  55    6.9637   559.9    4.620      74.808
2015    2       10     9   0    6.9595   560.1    4.614      74.834
2015    2       10     9   5    6.9551   560.2    4.609      74.860
2015    2       10     9  10    6.9510   560.4    4.604      74.885
2015    2       10     9  15    6.9470   560.6    4.598      74.911
2015    2       10     9  20    6.9426   560.8    4.593      74.936
2015    2       10     9  25    6.9386   560.9    4.588      74.961
2015    2       10     9  31    6.9344   561.1    4.583      74.986
2015    2       10     9  36    6.9300   561.3    4.578      75.011
2015    2       10     9  41    6.9258   561.4    4.573      75.035
2015    2       10     9  46    6.9215   561.6    4.568      75.058
2015    2       10     9  51    6.9173   561.8    4.563      75.081
2015    2       10     9  56    6.9129   561.9    4.558      75.103
2015    2       10    10   1    6.9087   562.1    4.553      75.124
2015    2       10    10   6    6.9043   562.3    4.548      75.144
2015    2       10    10  12    6.8996   562.4    4.543      75.163
2015    2       10    10  17    6.8951   562.6    4.539      75.181
2015    2       10    10  22    6.8907   562.8    4.534      75.198
2015    2       10    10  27    6.8861   562.9    4.529      75.214
2015    2       10    10  32    6.8814   563.1    4.524      75.229
2015    2       10    10  37    6.8766   563.2    4.519      75.243
2015    2       10    10  42    6.8718   563.4    4.514      75.255
2015    2       10    10  48    6.8669   563.5    4.509      75.266
2015    2       10    10  53    6.8620   563.7    4.503      75.276
2015    2       10    10  58    6.8570   563.8    4.498      75.285
2015    2       10    11   3    6.8519   563.9    4.493      75.293
2015    2       10    11   8    6.8468   564.1    4.488      75.300
2015    2       10    11  13    6.8415   564.2    4.482      75.306
2015    2       10    11  18    6.8363   564.4    4.477      75.311
2015    2       10    11  23    6.8312   564.5    4.472      75.315
2015    2       10    11  29    6.8257   564.6    4.466      75.318
2015    2       10    11  34    6.8203   564.7    4.461      75.321
2015    2       10    11  39    6.8151   564.9    4.455      75.322
2015    2       10    11  44    6.8097   565.0    4.450      75.323
2015    2       10    11  49    6.8041   565.1    4.444      75.323
2015    2       10    11  54    6.7986   565.2    4.438      75.322
2015    2       10    11  59    6.7929   565.3    4.433      75.320
2015    2       10    12   4    6.7874   565.5    4.427      75.317
2015    2       10    12  10    6.7816   565.6    4.421      75.314
2015    2       10    12  15    6.7761   565.7    4.416      75.310
2015    2       10    12  20    6.7704   565.8    4.410      75.306
2015    2       10    12  25    6.7647   565.9    4.404      75.300
2015    2       10    12  30    6.7589   566.0    4.399      75.294
2015    2       10    12  35    6.7531   566.1    4.393      75.288
2015    2       10    12  40    6.7471   566.2    4.387      75.281
2015    2       10    12  45    6.7415   566.3    4.381      75.273
2015    2       10    12  51    6.7356   566.4    4.376      75.265
2015    2       10    12  56    6.7296   566.4    4.370      75.257
2015    2       10    13   1    6.7239   566.5    4.364      75.248
2015    2       10    13   6    6.7180   566.6    4.359      75.239
2015    2       10    13  11    6.7121   566.7    4.353      75.230
2015    2       10    13  16    6.7063   566.8    4.348      75.220
2015    2       10    13  21    6.7004   566.9    4.342      75.210
2015    2       10    13  27    6.6945   566.9    4.337      75.200
2015    2       10    13  32    6.6886   567.0    4.331      75.190
2015    2       10    13  37    6.6827   567.1    4.326      75.180
2015    2       10    13  42    6.6769   567.2    4.320      75.169
2015    2       10    13  47    6.6710   567.2    4.315      75.159
2015    2       10    13  52    6.6651   567.3    4.310      75.149
2015    2       10    13  57    6.6593   567.4    4.304      75.139
2015    2       10    14   2    6.6535   567.4    4.299      75.129
2015    2       10    14   8    6.6476   567.5    4.294      75.119
2015    2       10    14  13    6.6418   567.6    4.289      75.109
2015    2       10    14  18    6.6360   567.7    4.284      75.099
2015    2       10    14  23    6.6301   567.7    4.278      75.089
2015    2       10    14  28    6.6243   567.8    4.273      75.078
2015    2       10    14  33    6.6184   567.9    4.268      75.068
2015    2       10    14  38    6.6126   567.9    4.263      75.057
2015    2       10    14  43    6.6067   568.0    4.258      75.046
2015    2       10    14  49    6.6008   568.1    4.253      75.034
2015    2       10    14  54    6.5949   568.2    4.248      75.023
2015    2       10    14  59    6.5890   568.2    4.242      75.011
2015    2       10    15   4    6.5831   568.3    4.237      74.999
2015    2       10    15   9    6.5771   568.4    4.232      74.986
2015    2       10    15  14    6.5711   568.4    4.227      74.972
2015    2       10    15  19    6.5652   568.5    4.221      74.959
2015    2       10    15  24    6.5592   568.6    4.216      74.945
2015    2       10    15  30    6.5531   568.6    4.211      74.930
2015    2       10    15  35    6.5471   568.7    4.206      74.916
2015    2       10    15  40    6.5411   568.8    4.200      74.901
2015    2       10    15  45    6.5350   568.8    4.195      74.886
2015    2       10    15  50    6.5290   568.9    4.190      74.871
2015    2       10    15  55    6.5228   568.9    4.185      74.856
2015    2       10    16   0    6.5168   569.0    4.180      74.841
2015    2       10    16   6    6.5107   569.1    4.174      74.826
2015    2       10    16  11    6.5046   569.1    4.169      74.810
2015    2       10    16  16    6.4985   569.2    4.164      74.795
2015    2       10    16  21    6.4923   569.2    4.159      74.779
2015    2       10    16  26    6.4862   569.3    4.154      74.764
2015    2       10    16  31    6.4800   569.3    4.149      74.749
2015    2       10    16  36    6.4739   569.4    4.144      74.733
2015    2       10    16  41    6.4677   569.4    4.139      74.718
2015    2       10    16  47    6.4615   569.5    4.134      74.703
2015    2       10    16  52    6.4553   569.6    4.129      74.688
2015    2       10    16  57    6.4490   569.6    4.124      74.673
2015    2       10    17   2    6.4428   569.7    4.119      74.658
2015    2       10    17   7    6.4366   569.7    4.114      74.643
2015    2       10    17  12    6.4303   569.8    4.109      74.629
2015    2       10    17  17    6.4240   569.8    4.105      74.614
2015    2       10    17  22    6.4177   569.8    4.100      74.600
2015    2       10    17  28    6.4114   569.9    4.095      74.586
2015    2       10    17  33    6.4050   569.9    4.090      74.572
2015    2       10    17  38    6.3987   570.0    4.086      74.558
2015    2       10    17  43    6.3923   570.0    4.081      74.544
2015    2       10    17  48    6.3860   570.1    4.077      74.531
2015    2       10    17  53    6.3796   570.1    4.072      74.518
2015    2       10    17  58    6.3732   570.1    4.067      74.504
2015    2       10    18   4    6.3668   570.2    4.063      74.491
2015    2       10    18   9    6.3604   570.2    4.059      74.477
2015    2       10    18  14    6.3539   570.3    4.054      74.464
2015    2       10    18  19    6.3475   570.3    4.050      74.450
2015    2       10    18  24    6.3411   570.3    4.045      74.436
2015    2       10    18  29    6.3346   570.4    4.041      74.421
2015    2       10    18  34    6.3282   570.4    4.037      74.406
2015    2       10    18  39    6.3217   570.4    4.032      74.391
2015    2       10    18  45    6.3153   570.4    4.028      74.374
2015    2       10    18  50    6.3089   570.5    4.024      74.357
2015    2       10    18  55    6.3024   570.5    4.020      74.339
2015    2       10    19   0    6.2960   570.5    4.015      74.320
2015    2       10    19   5    6.2896   570.5    4.011      74.299
2015    2       10    19  10    6.2832   570.5    4.007      74.278
2015    2       10    19  15    6.2768   570.6    4.003      74.255
2015    2       10    19  20    6.2704   570.6    3.999      74.231
2015    2       10    19  26    6.2640   570.6    3.995      74.206
2015    2       10    19  31    6.2576   570.6    3.990      74.180
2015    2       10    19  36    6.2512   570.6    3.986      74.152
2015    2       10    19  41    6.2450   570.6    3.982      74.124
2015    2       10    19  46    6.2386   570.6    3.978      74.094
2015    2       10    19  51    6.2322   570.6    3.974      74.063
2015    2       10    19  56    6.2260   570.6    3.970      74.030
2015    2       10    20   1    6.2197   570.6    3.966      73.997
2015    2       10    20   7    6.2135   570.6    3.961      73.963
2015    2       10    20  12    6.2074   570.6    3.957      73.927
2015    2       10    20  17    6.2011   570.5    3.953      73.891
2015    2       10    20  22    6.1950   570.5    3.949      73.854
2015    2       10    20  27    6.1889   570.5    3.945      73.816
2015    2       10    20  32    6.1829   570.5    3.941      73.777
2015    2       10    20  37    6.1769   570.5    3.937      73.737
2015    2       10    20  43    6.1709   570.4    3.933      73.698
2015    2       10    20  48    6.1650   570.4    3.930      73.657
2015    2       10    20  53    6.1592   570.4    3.926      73.616
2015    2       10    20  58    6.1534   570.4    3.922      73.575
2015    2       10    21   3    6.1476   570.3    3.918      73.533
2015    2       10    21   8    6.1419   570.3    3.915      73.491
2015    2       10    21  13    6.1363   570.3    3.911      73.449
2015    2       10    21  18    6.1309   570.3    3.908      73.407
2015    2       10    21  24    6.1252   570.2    3.905      73.364
2015    2       10    21  29    6.1199   570.2    3.901      73.322
2015    2       10    21  34    6.1146   570.2    3.898      73.279
2015    2       10    21  39    6.1091   570.1    3.895      73.237
2015    2       10    21  44    6.1040   570.1    3.892      73.194
2015    2       10    21  49    6.0987   570.1    3.889      73.152
2015    2       10    21  54    6.0935   570.0    3.887      73.109
2015    2       10    21  59    6.0885   570.0    3.884      73.067
2015    2       10    22   5    6.0835   570.0    3.881      73.025
2015    2       10    22  10    6.0785   569.9    3.879      72.983
2015    2       10    22  15    6.0736   569.9    3.876      72.941
2015    2       10    22  20    6.0687   569.9    3.874      72.899
2015    2       10    22  25    6.0639   569.8    3.872      72.857
2015    2       10    22  30    6.0591   569.8    3.869      72.815
2015    2       10    22  35    6.0543   569.8    3.867      72.774
2015    2       10    22  40    6.0496   569.7    3.865      72.732
2015    2       10    22  46    6.0447   569.7    3.863      72.690
2015    2       10    22  51    6.0400   569.7    3.861      72.649
2015    2       10    22  56    6.0353   569.7    3.860      72.607
2015    2       10    23   1    6.0305   569.6    3.858      72.566
2015    2       10    23   6    6.0258   569.6    3.856      72.525
2015    2       10    23  11    6.0210   569.6    3.855      72.483
2015    2       10    23  16    6.0163   569.6    3.853      72.442
2015    2       10    23  22    6.0115   569.5    3.852      72.400
2015    2       10    23  27    6.0067   569.5    3.850      72.359
2015    2       10    23  32    6.0019   569.5    3.849      72.318
2015    2       10    23  37    5.9971   569.5    3.848      72.278
2015    2       10    23  42    5.9923   569.4    3.847      72.237
2015    2       10    23  47    5.9874   569.4    3.846      72.196
2015    2       10    23  52    5.9826   569.4    3.844      72.156
2015    2       10    23  57    5.9777   569.4    3.843      72.116
2015    2       11     0   3    5.9728   569.3    3.842      72.075
2015    2       11     0   8    5.9678   569.3    3.842      72.035
2015    2       11     0  13    5.9629   569.3    3.841      71.995
2015    2       11     0  18    5.9579   569.3    3.840      71.956
2015    2       11     0  23    5.9529   569.2    3.839      71.918
2015    2       11     0  28    5.9479   569.2    3.838      71.880
2015    2       11     0  33    5.9429   569.2    3.838      71.844
2015    2       11     0  38    5.9378   569.2    3.837      71.810
2015    2       11     0  44    5.9328   569.1    3.836      71.776
2015    2       11     0  49    5.9277   569.1    3.835      71.743
2015    2       11     0  54    5.9226   569.1    3.834      71.712
2015    2       11     0  59    5.9174   569.1    3.833      71.681
2015    2       11     1   4    5.9123   569.0    3.832      71.650
2015    2       11     1   9    5.9071   569.0    3.832      71.620
2015    2       11     1  14    5.9020   569.0    3.831      71.591
2015    2       11     1  19    5.8968   569.0    3.829      71.562
2015    2       11     1  25    5.8915   568.9    3.828      71.533
2015    2       11     1  30    5.8863   568.9    3.827      71.505
2015    2       11     1  35    5.8811   568.9    3.826      71.476
2015    2       11     1  40    5.8758   568.8    3.825      71.447
2015    2       11     1  45    5.8706   568.8    3.823      71.418
2015    2       11     1  50    5.8653   568.8    3.822      71.389
2015    2       11     1  55    5.8600   568.7    3.821      71.359
2015    2       11     2   1    5.8547   568.7    3.819      71.329
2015    2       11     2   6    5.8494   568.6    3.818      71.299
2015    2       11     2  11    5.8441   568.6    3.816      71.269
2015    2       11     2  16    5.8388   568.6    3.814      71.239
2015    2       11     2  21    5.8335   568.5    3.813      71.208
2015    2       11     2  26    5.8283   568.5    3.811      71.178
2015    2       11     2  31    5.8228   568.4    3.809      71.147
2015    2       11     2  36    5.8175   568.4    3.808      71.117
2015    2       11     2  42    5.8122   568.3    3.806      71.087
2015    2       11     2  47    5.8069   568.3    3.804      71.057
2015    2       11     2  52    5.8016   568.2    3.802      71.027
2015    2       11     2  57    5.7962   568.2    3.800      70.997
2015    2       11     3   2    5.7909   568.1    3.798      70.968
2015    2       11     3   7    5.7856   568.1    3.796      70.938
2015    2       11     3  12    5.7804   568.0    3.794      70.908
2015    2       11     3  17    5.7751   567.9    3.792      70.878
2015    2       11     3  23    5.7698   567.9    3.790      70.848
2015    2       11     3  28    5.7645   567.8    3.788      70.818
2015    2       11     3  33    5.7593   567.8    3.786      70.788
2015    2       11     3  38    5.7541   567.7    3.783      70.758
2015    2       11     3  43    5.7488   567.6    3.781      70.727
2015    2       11     3  48    5.7436   567.6    3.779      70.696
2015    2       11     3  53    5.7385   567.5    3.777      70.665
2015    2       11     3  58    5.7333   567.4    3.774      70.634
2015    2       11     4   4    5.7281   567.4    3.772      70.602
2015    2       11     4   9    5.7231   567.3    3.769      70.570
2015    2       11     4  14    5.7178   567.2    3.767      70.537
2015    2       11     4  19    5.7127   567.2    3.765      70.504
2015    2       11     4  24    5.7076   567.1    3.762      70.471
2015    2       11     4  29    5.7024   567.0    3.760      70.437
2015    2       11     4  34    5.6973   567.0    3.757      70.404
2015    2       11     4  40    5.6922   566.9    3.754      70.370
2015    2       11     4  45    5.6871   566.8    3.752      70.335
2015    2       11     4  50    5.6820   566.7    3.749      70.300
2015    2       11     4  55    5.6769   566.7    3.747      70.266
2015    2       11     5   0    5.6718   566.6    3.744      70.230
2015    2       11     5   5    5.6667   566.5    3.741      70.195
2015    2       11     5  10    5.6616   566.4    3.739      70.159
2015    2       11     5  15    5.6566   566.4    3.736      70.123
2015    2       11     5  21    5.6515   566.3    3.733      70.086
2015    2       11     5  26    5.6465   566.2    3.731      70.050
2015    2       11     5  31    5.6414   566.1    3.728      70.013
2015    2       11     5  36    5.6363   566.0    3.725      69.976
2015    2       11     5  41    5.6311   566.0    3.723      69.938
2015    2       11     5  46    5.6260   565.9    3.720      69.901
2015    2       11     5  51    5.6209   565.8    3.717      69.863
2015    2       11     5  56    5.6159   565.7    3.715      69.825
2015    2       11     6   2    5.6108   565.6    3.712      69.787
2015    2       11     6   7    5.6057   565.6    3.710      69.749
2015    2       11     6  12    5.6006   565.5    3.707      69.711
2015    2       11     6  17    5.5955   565.4    3.705      69.673
2015    2       11     6  22    5.5904   565.3    3.702      69.634
2015    2       11     6  27    5.5853   565.2    3.700      69.596
2015    2       11     6  32    5.5803   565.1    3.697      69.558
2015    2       11     6  37    5.5752   565.0    3.695      69.520
2015    2       11     6  43    5.5701   565.0    3.693      69.482
2015    2       11     6  48    5.5650   564.9    3.691      69.444
2015    2       11     6  53    5.5600   564.8    3.688      69.406
2015    2       11     6  58    5.5549   564.7    3.686      69.369
2015    2       11     7   3    5.5498   564.6    3.684      69.331
2015    2       11     7   8    5.5448   564.5    3.682      69.293
2015    2       11     7  13    5.5397   564.4    3.680      69.256
2015    2       11     7  19    5.5347   564.3    3.679      69.219
2015    2       11     7  24    5.5296   564.2    3.677      69.182
2015    2       11     7  29    5.5245   564.1    3.675      69.146
2015    2       11     7  34    5.5195   564.0    3.673      69.110
2015    2       11     7  39    5.5145   563.9    3.672      69.074
2015    2       11     7  44    5.5094   563.8    3.670      69.038
2015    2       11     7  49    5.5043   563.8    3.669      69.002
2015    2       11     7  54    5.4993   563.7    3.668      68.965
2015    2       11     8   0    5.4943   563.6    3.667      68.928
2015    2       11     8   5    5.4892   563.5    3.665      68.891
2015    2       11     8  10    5.4842   563.4    3.664      68.853
2015    2       11     8  15    5.4792   563.3    3.663      68.815
2015    2       11     8  20    5.4742   563.1    3.663      68.777
2015    2       11     8  25    5.4692   563.0    3.662      68.739
2015    2       11     8  30    5.4642   562.9    3.661      68.700
2015    2       11     8  35    5.4592   562.8    3.660      68.662
2015    2       11     8  41    5.4543   562.7    3.660      68.624
2015    2       11     8  46    5.4494   562.6    3.659      68.585
2015    2       11     8  51    5.4445   562.5    3.659      68.547
2015    2       11     8  56    5.4397   562.4    3.659      68.509
2015    2       11     9   1    5.4349   562.3    3.658      68.472
2015    2       11     9   6    5.4301   562.1    3.658      68.435
2015    2       11     9  11    5.4254   562.0    3.658      68.398
2015    2       11     9  16    5.4208   561.9    3.658      68.363
2015    2       11     9  22    5.4162   561.8    3.658      68.328
2015    2       11     9  27    5.4116   561.7    3.658      68.294
2015    2       11     9  32    5.4071   561.6    3.659      68.260
2015    2       11     9  37    5.4026   561.4    3.659      68.226
2015    2       11     9  42    5.3982   561.3    3.659      68.192
2015    2       11     9  47    5.3939   561.2    3.660      68.157
2015    2       11     9  52    5.3895   561.1    3.660      68.123
2015    2       11     9  58    5.3851   561.0    3.660      68.087
2015    2       11    10   3    5.3808   560.8    3.661      68.051
2015    2       11    10   8    5.3764   560.7    3.661      68.014
2015    2       11    10  13    5.3721   560.6    3.661      67.975
2015    2       11    10  18    5.3678   560.5    3.661      67.935
2015    2       11    10  23    5.3634   560.4    3.660      67.894
2015    2       11    10  28    5.3591   560.2    3.660      67.851
2015    2       11    10  33    5.3547   560.1    3.660      67.806
2015    2       11    10  39    5.3503   560.0    3.659      67.759
2015    2       11    10  44    5.3459   559.9    3.658      67.711
2015    2       11    10  49    5.3415   559.8    3.657      67.661
2015    2       11    10  54    5.3372   559.6    3.656      67.609
2015    2       11    10  59    5.3326   559.5    3.655      67.556
2015    2       11    11   4    5.3283   559.4    3.653      67.501
2015    2       11    11   9    5.3238   559.3    3.652      67.445
2015    2       11    11  14    5.3193   559.1    3.650      67.387
2015    2       11    11  20    5.3148   559.0    3.648      67.328
2015    2       11    11  25    5.3104   558.9    3.646      67.268
2015    2       11    11  30    5.3059   558.8    3.644      67.206
2015    2       11    11  35    5.3014   558.6    3.642      67.143
2015    2       11    11  40    5.2969   558.5    3.640      67.079
2015    2       11    11  45    5.2924   558.4    3.638      67.014
2015    2       11    11  50    5.2879   558.3    3.635      66.948
2015    2       11    11  55    5.2834   558.1    3.633      66.881
2015    2       11    12   1    5.2789   558.0    3.630      66.813
2015    2       11    12   6    5.2744   557.9    3.628      66.745
2015    2       11    12  11    5.2698   557.7    3.625      66.675
2015    2       11    12  16    5.2653   557.6    3.622      66.606
2015    2       11    12  21    5.2607   557.5    3.620      66.535
2015    2       11    12  26    5.2562   557.3    3.617      66.464
2015    2       11    12  31    5.2517   557.2    3.614      66.393
2015    2       11    12  37    5.2472   557.0    3.612      66.321
2015    2       11    12  42    5.2426   556.9    3.609      66.249
2015    2       11    12  47    5.2381   556.8    3.606      66.176
2015    2       11    12  52    5.2336   556.6    3.603      66.104
2015    2       11    12  57    5.2291   556.5    3.601      66.031
2015    2       11    13   2    5.2247   556.3    3.598      65.958
2015    2       11    13   7    5.2202   556.2    3.595      65.886
2015    2       11    13  12    5.2157   556.0    3.592      65.813
2015    2       11    13  18    5.2113   555.9    3.590      65.740
2015    2       11    13  23    5.2069   555.8    3.587      65.667
2015    2       11    13  28    5.2024   555.6    3.584      65.594
2015    2       11    13  33    5.1981   555.5    3.581      65.521
2015    2       11    13  38    5.1938   555.3    3.579      65.448
2015    2       11    13  43    5.1893   555.2    3.576      65.374
2015    2       11    13  48    5.1851   555.0    3.573      65.301
2015    2       11    13  53    5.1806   554.9    3.570      65.227
2015    2       11    13  59    5.1763   554.7    3.567      65.153
2015    2       11    14   4    5.1721   554.6    3.565      65.079
2015    2       11    14   9    5.1678   554.4    3.562      65.005
2015    2       11    14  14    5.1634   554.3    3.559      64.931
2015    2       11    14  19    5.1591   554.1    3.556      64.857
2015    2       11    14  24    5.1548   554.0    3.553      64.783
2015    2       11    14  29    5.1506   553.8    3.551      64.709
2015    2       11    14  34    5.1463   553.6    3.548      64.636
2015    2       11    14  40    5.1421   553.5    3.545      64.563
2015    2       11    14  45    5.1379   553.3    3.543      64.490
2015    2       11    14  50    5.1337   553.2    3.540      64.418
2015    2       11    14  55    5.1294   553.0    3.537      64.347
2015    2       11    15   0    5.1253   552.8    3.535      64.277
2015    2       11    15   5    5.1211   552.7    3.533      64.207
2015    2       11    15  10    5.1169   552.5    3.530      64.139
2015    2       11    15  15    5.1128   552.4    3.528      64.071
2015    2       11    15  21    5.1087   552.2    3.526      64.005
2015    2       11    15  26    5.1046   552.0    3.524      63.939
2015    2       11    15  31    5.1005   551.9    3.522      63.875
2015    2       11    15  36    5.0964   551.7    3.521      63.812
2015    2       11    15  41    5.0924   551.6    3.519      63.750
2015    2       11    15  46    5.0883   551.4    3.517      63.689
2015    2       11    15  51    5.0843   551.2    3.516      63.629
2015    2       11    15  57    5.0803   551.1    3.515      63.571
2015    2       11    16   2    5.0763   550.9    3.514      63.514
2015    2       11    16   7    5.0724   550.8    3.513      63.457
2015    2       11    16  12    5.0684   550.6    3.512      63.403
2015    2       11    16  17    5.0644   550.5    3.511      63.349
2015    2       11    16  22    5.0604   550.3    3.510      63.297
2015    2       11    16  27    5.0565   550.1    3.510      63.246
2015    2       11    16  32    5.0525   550.0    3.509      63.195
2015    2       11    16  38    5.0486   549.8    3.509      63.146
2015    2       11    16  43    5.0446   549.7    3.509      63.097
2015    2       11    16  48    5.0406   549.5    3.509      63.049
2015    2       11    16  53    5.0366   549.4    3.508      63.000
2015    2       11    16  58    5.0325   549.2    3.508      62.952
2015    2       11    17   3    5.0285   549.1    3.508      62.904
2015    2       11    17   8    5.0244   548.9    3.508      62.855
2015    2       11    17  13    5.0203   548.8    3.507      62.806
2015    2       11    17  19    5.0161   548.6    3.507      62.756
2015    2       11    17  24    5.0120   548.5    3.506      62.705
2015    2       11    17  29    5.0077   548.3    3.506      62.653
2015    2       11    17  34    5.0035   548.2    3.505      62.600
2015    2       11    17  39    4.9992   548.0    3.505      62.546
2015    2       11    17  44    4.9949   547.9    3.504      62.490
2015    2       11    17  49    4.9906   547.7    3.503      62.434
2015    2       11    17  55    4.9862   547.6    3.502      62.376
2015    2       11    18   0    4.9818   547.4    3.502      62.316
2015    2       11    18   5    4.9774   547.3    3.501      62.256
2015    2       11    18  10    4.9730   547.1    3.500      62.194
2015    2       11    18  15    4.9685   546.9    3.499      62.130
2015    2       11    18  20    4.9640   546.8    3.497      62.066
2015    2       11    18  25    4.9596   546.6    3.496      62.000
2015    2       11    18  30    4.9550   546.4    3.495      61.934
2015    2       11    18  36    4.9505   546.3    3.494      61.866
2015    2       11    18  41    4.9460   546.1    3.493      61.798
2015    2       11    18  46    4.9415   545.9    3.492      61.729
2015    2       11    18  51    4.9370   545.7    3.490      61.659
2015    2       11    18  56    4.9325   545.5    3.489      61.589
2015    2       11    19   1    4.9281   545.3    3.488      61.518
2015    2       11    19   6    4.9236   545.2    3.487      61.447
2015    2       11    19  11    4.9192   545.0    3.486      61.376
2015    2       11    19  17    4.9148   544.8    3.485      61.305
2015    2       11    19  22    4.9104   544.6    3.484      61.234
2015    2       11    19  27    4.9061   544.4    3.483      61.163
2015    2       11    19  32    4.9018   544.2    3.482      61.092
2015    2       11    19  37    4.8975   544.0    3.481      61.021
2015    2       11    19  42    4.8933   543.8    3.481      60.951
2015    2       11    19  47    4.8892   543.6    3.480      60.881
2015    2       11    19  52    4.8851   543.4    3.480      60.812
2015    2       11    19  58    4.8811   543.2    3.479      60.742
2015    2       11    20   3    4.8771   543.0    3.479      60.674
2015    2       11    20   8    4.8732   542.8    3.479      60.607
2015    2       11    20  13    4.8694   542.6    3.479      60.542
2015    2       11    20  18    4.8657   542.4    3.479      60.478
2015    2       11    20  23    4.8620   542.1    3.479      60.415
2015    2       11    20  28    4.8585   541.9    3.479      60.354
2015    2       11    20  33    4.8549   541.7    3.479      60.294
2015    2       11    20  39    4.8514   541.5    3.479      60.235
2015    2       11    20  44    4.8480   541.3    3.479      60.176
2015    2       11    20  49    4.8447   541.1    3.479      60.118
2015    2       11    20  54    4.8414   540.9    3.480      60.061
2015    2       11    20  59    4.8381   540.7    3.479      60.004
2015    2       11    21   4    4.8349   540.5    3.479      59.947
2015    2       11    21   9    4.8317   540.3    3.479      59.891
2015    2       11    21  15    4.8285   540.1    3.479      59.835
2015    2       11    21  20    4.8253   539.9    3.478      59.778
2015    2       11    21  25    4.8221   539.7    3.478      59.721
2015    2       11    21  30    4.8189   539.5    3.477      59.663
2015    2       11    21  35    4.8157   539.3    3.476      59.605
2015    2       11    21  40    4.8125   539.1    3.476      59.545
2015    2       11    21  45    4.8093   539.0    3.475      59.486
2015    2       11    21  50    4.8060   538.8    3.474      59.425
2015    2       11    21  56    4.8028   538.6    3.473      59.364
2015    2       11    22   1    4.7995   538.4    3.471      59.302
2015    2       11    22   6    4.7962   538.2    3.470      59.240
2015    2       11    22  11    4.7929   538.0    3.469      59.176
2015    2       11    22  16    4.7896   537.8    3.467      59.113
2015    2       11    22  21    4.7863   537.6    3.466      59.048
2015    2       11    22  26    4.7830   537.4    3.464      58.983
2015    2       11    22  31    4.7796   537.2    3.462      58.918
2015    2       11    22  37    4.7763   537.0    3.461      58.851
2015    2       11    22  42    4.7731   536.8    3.459      58.785
2015    2       11    22  47    4.7695   536.6    3.457      58.718
2015    2       11    22  52    4.7661   536.4    3.455      58.650
2015    2       11    22  57    4.7627   536.2    3.453      58.582
2015    2       11    23   2    4.7594   536.0    3.451      58.513
2015    2       11    23   7    4.7560   535.7    3.449      58.444
2015    2       11    23  12    4.7526   535.5    3.448      58.375
2015    2       11    23  18    4.7491   535.3    3.446      58.306
2015    2       11    23  23    4.7457   535.1    3.444      58.236
2015    2       11    23  28    4.7423   534.9    3.442      58.166
2015    2       11    23  33    4.7389   534.7    3.440      58.096
2015    2       11    23  38    4.7354   534.5    3.438      58.025
2015    2       11    23  43    4.7320   534.3    3.436      57.955
2015    2       11    23  48    4.7287   534.1    3.434      57.884
2015    2       11    23  54    4.7251   533.9    3.432      57.813
2015    2       11    23  59    4.7216   533.6    3.430      57.742
2015    2       12     0   4    4.7181   533.4    3.429      57.671
2015    2       12     0   9    4.7146   533.2    3.427      57.600
2015    2       12     0  14    4.7111   533.0    3.425      57.529
2015    2       12     0  19    4.7077   532.8    3.423      57.458
2015    2       12     0  24    4.7041   532.6    3.421      57.386
2015    2       12     0  29    4.7005   532.4    3.420      57.315
2015    2       12     0  35    4.6970   532.1    3.418      57.243
2015    2       12     0  40    4.6935   531.9    3.416      57.171
2015    2       12     0  45    4.6898   531.7    3.415      57.099
2015    2       12     0  50    4.6862   531.5    3.413      57.027
2015    2       12     0  55    4.6826   531.3    3.411      56.954
2015    2       12     1   0    4.6790   531.0    3.410      56.882
2015    2       12     1   5    4.6754   530.8    3.408      56.809
2015    2       12     1  10    4.6717   530.6    3.407      56.736
2015    2       12     1  16    4.6681   530.4    3.405      56.663
2015    2       12     1  21    4.6644   530.1    3.404      56.590
2015    2       12     1  26    4.6608   529.9    3.402      56.516
2015    2       12     1  31    4.6571   529.7    3.401      56.442
2015    2       12     1  36    4.6534   529.4    3.400      56.368
2015    2       12     1  41    4.6498   529.2    3.398      56.295
2015    2       12     1  46    4.6462   529.0    3.397      56.221
2015    2       12     1  51    4.6425   528.7    3.396      56.147
2015    2       12     1  57    4.6388   528.5    3.395      56.073
2015    2       12     2   2    4.6353   528.2    3.393      55.999
2015    2       12     2   7    4.6316   528.0    3.392      55.926
2015    2       12     2  12    4.6281   527.7    3.391      55.852
2015    2       12     2  17    4.6245   527.5    3.391      55.779
2015    2       12     2  22    4.6209   527.2    3.390      55.707
2015    2       12     2  27    4.6174   527.0    3.389      55.635
2015    2       12     2  33    4.6139   526.7    3.389      55.563
2015    2       12     2  38    4.6105   526.5    3.388      55.492
2015    2       12     2  43    4.6071   526.2    3.388      55.422
2015    2       12     2  48    4.6038   526.0    3.388      55.353
2015    2       12     2  53    4.6005   525.7    3.388      55.285
2015    2       12     2  58    4.5972   525.4    3.388      55.218
2015    2       12     3   3    4.5941   525.2    3.388      55.152
2015    2       12     3   8    4.5909   524.9    3.388      55.087
2015    2       12     3  14    4.5879   524.7    3.389      55.024
2015    2       12     3  19    4.5849   524.4    3.390      54.963
2015    2       12     3  24    4.5820   524.1    3.391      54.905
2015    2       12     3  29    4.5791   523.9    3.392      54.848
2015    2       12     3  34    4.5763   523.6    3.393      54.793
2015    2       12     3  39    4.5736   523.4    3.395      54.740
2015    2       12     3  44    4.5710   523.1    3.396      54.689
2015    2       12     3  49    4.5683   522.9    3.398      54.640
2015    2       12     3  55    4.5658   522.6    3.400      54.592
2015    2       12     4   0    4.5632   522.4    3.402      54.544
2015    2       12     4   5    4.5607   522.1    3.404      54.498
2015    2       12     4  10    4.5582   521.9    3.405      54.453
2015    2       12     4  15    4.5558   521.7    3.407      54.408
2015    2       12     4  20    4.5533   521.4    3.409      54.365
2015    2       12     4  25    4.5508   521.2    3.411      54.322
2015    2       12     4  30    4.5483   520.9    3.413      54.278
2015    2       12     4  36    4.5457   520.7    3.415      54.234
2015    2       12     4  41    4.5431   520.5    3.417      54.190
2015    2       12     4  46    4.5405   520.3    3.418      54.145
2015    2       12     4  51    4.5378   520.0    3.420      54.100
2015    2       12     4  56    4.5351   519.8    3.422      54.055
2015    2       12     5   1    4.5323   519.6    3.423      54.009
2015    2       12     5   6    4.5295   519.3    3.425      53.963
2015    2       12     5  12    4.5267   519.1    3.426      53.916
2015    2       12     5  17    4.5238   518.9    3.428      53.868
2015    2       12     5  22    4.5209   518.6    3.429      53.820
2015    2       12     5  27    4.5179   518.4    3.430      53.770
2015    2       12     5  32    4.5149   518.1    3.431      53.720
2015    2       12     5  37    4.5118   517.9    3.432      53.669
2015    2       12     5  42    4.5088   517.7    3.433      53.617
2015    2       12     5  47    4.5057   517.4    3.434      53.565
2015    2       12     5  53    4.5026   517.2    3.435      53.512
2015    2       12     5  58    4.4995   516.9    3.435      53.458
2015    2       12     6   3    4.4963   516.7    3.436      53.403
2015    2       12     6   8    4.4932   516.4    3.437      53.348
2015    2       12     6  13    4.4901   516.2    3.437      53.292
2015    2       12     6  18    4.4869   515.9    3.438      53.235
2015    2       12     6  23    4.4838   515.7    3.438      53.178
2015    2       12     6  28    4.4806   515.4    3.439      53.121
2015    2       12     6  34    4.4775   515.1    3.439      53.063
2015    2       12     6  39    4.4744   514.9    3.440      53.004
2015    2       12     6  44    4.4713   514.6    3.440      52.946
2015    2       12     6  49    4.4682   514.4    3.441      52.886
2015    2       12     6  54    4.4651   514.1    3.441      52.827
2015    2       12     6  59    4.4621   513.8    3.441      52.767
2015    2       12     7   4    4.4591   513.6    3.442      52.707
2015    2       12     7   9    4.4560   513.3    3.442      52.647
2015    2       12     7  15    4.4531   513.0    3.443      52.586
2015    2       12     7  20    4.4501   512.8    3.443      52.525
2015    2       12     7  25    4.4472   512.5    3.443      52.464
2015    2       12     7  30    4.4443   512.2    3.444      52.404
2015    2       12     7  35    4.4414   512.0    3.444      52.343
2015    2       12     7  40    4.4385   511.7    3.445      52.282
2015    2       12     7  45    4.4358   511.4    3.445      52.222
2015    2       12     7  51    4.4330   511.2    3.446      52.162
2015    2       12     7  56    4.4302   510.9    3.446      52.101
2015    2       12     8   1    4.4274   510.6    3.446      52.041
2015    2       12     8   6    4.4247   510.4    3.447      51.981
2015    2       12     8  11    4.4220   510.1    3.447      51.920
2015    2       12     8  16    4.4193   509.8    3.447      51.859
2015    2       12     8  21    4.4166   509.6    3.447      51.799
2015    2       12     8  26    4.4140   509.3    3.448      51.737
2015    2       12     8  32    4.4112   509.0    3.448      51.676
2015    2       12     8  37    4.4085   508.8    3.448      51.615
2015    2       12     8  42    4.4058   508.5    3.448      51.553
2015    2       12     8  47    4.4030   508.2    3.448      51.490
2015    2       12     8  52    4.4004   508.0    3.448      51.426
2015    2       12     8  57    4.3976   507.7    3.448      51.362
2015    2       12     9   2    4.3948   507.4    3.447      51.298
2015    2       12     9   7    4.3921   507.2    3.447      51.233
2015    2       12     9  13    4.3893   506.9    3.447      51.167
2015    2       12     9  18    4.3865   506.6    3.446      51.101
2015    2       12     9  23    4.3838   506.3    3.446      51.034
2015    2       12     9  28    4.3810   506.1    3.446      50.967
2015    2       12     9  33    4.3783   505.8    3.445      50.899
2015    2       12     9  38    4.3755   505.5    3.445      50.831
2015    2       12     9  43    4.3728   505.2    3.444      50.763
2015    2       12     9  48    4.3701   504.9    3.444      50.694
2015    2       12     9  54    4.3674   504.7    3.443      50.625
2015    2       12     9  59    4.3648   504.4    3.443      50.556
2015    2       12    10   4    4.3620   504.1    3.442      50.486
2015    2       12    10   9    4.3593   503.8    3.442      50.417
2015    2       12    10  14    4.3568   503.5    3.442      50.348
2015    2       12    10  19    4.3540   503.2    3.441      50.279
2015    2       12    10  24    4.3514   503.0    3.441      50.210
2015    2       12    10  30    4.3489   502.7    3.441      50.141
2015    2       12    10  35    4.3463   502.4    3.440      50.073
2015    2       12    10  40    4.3438   502.1    3.440      50.005
2015    2       12    10  45    4.3413   501.8    3.440      49.937
2015    2       12    10  50    4.3388   501.5    3.440      49.870
2015    2       12    10  55    4.3364   501.2    3.440      49.804
2015    2       12    11   0    4.3340   500.9    3.440      49.738
2015    2       12    11   5    4.3317   500.6    3.440      49.672
2015    2       12    11  11    4.3292   500.3    3.440      49.608
2015    2       12    11  16    4.3269   500.1    3.440      49.543
2015    2       12    11  21    4.3246   499.8    3.441      49.480
2015    2       12    11  26    4.3222   499.5    3.441      49.417
2015    2       12    11  31    4.3199   499.2    3.441      49.354
2015    2       12    11  36    4.3177   498.9    3.442      49.293
2015    2       12    11  41    4.3154   498.6    3.442      49.231
2015    2       12    11  46    4.3131   498.3    3.443      49.171
2015    2       12    11  52    4.3108   498.0    3.444      49.111
2015    2       12    11  57    4.3085   497.7    3.444      49.051
2015    2       12    12   2    4.3062   497.4    3.445      48.992
2015    2       12    12   7    4.3039   497.1    3.446      48.932
2015    2       12    12  12    4.3015   496.8    3.447      48.874
2015    2       12    12  17    4.2992   496.6    3.448      48.815
2015    2       12    12  22    4.2968   496.3    3.449      48.757
2015    2       12    12  27    4.2944   496.0    3.450      48.699
2015    2       12    12  33    4.2920   495.7    3.451      48.640
2015    2       12    12  38    4.2895   495.4    3.452      48.582
2015    2       12    12  43    4.2871   495.1    3.453      48.523
2015    2       12    12  48    4.2846   494.8    3.454      48.465
2015    2       12    12  53    4.2821   494.4    3.455      48.406
2015    2       12    12  58    4.2796   494.1    3.456      48.347
2015    2       12    13   3    4.2771   493.8    3.457      48.287
2015    2       12    13   9    4.2745   493.5    3.458      48.228
2015    2       12    13  14    4.2720   493.2    3.459      48.168
2015    2       12    13  19    4.2694   492.9    3.460      48.108
2015    2       12    13  24    4.2669   492.6    3.461      48.048
2015    2       12    13  29    4.2644   492.3    3.462      47.988
2015    2       12    13  34    4.2618   491.9    3.463      47.928
2015    2       12    13  39    4.2593   491.6    3.464      47.868
2015    2       12    13  44    4.2568   491.3    3.465      47.808
2015    2       12    13  50    4.2543   491.0    3.467      47.748
2015    2       12    13  55    4.2519   490.6    3.468      47.689
2015    2       12    14   0    4.2494   490.3    3.469      47.630
2015    2       12    14   5    4.2470   490.0    3.471      47.571
2015    2       12    14  10    4.2446   489.7    3.472      47.513
2015    2       12    14  15    4.2423   489.4    3.473      47.455
2015    2       12    14  20    4.2399   489.0    3.475      47.397
2015    2       12    14  25    4.2376   488.7    3.477      47.340
2015    2       12    14  31    4.2354   488.4    3.478      47.284
2015    2       12    14  36    4.2332   488.1    3.480      47.228
2015    2       12    14  41    4.2310   487.7    3.482      47.173
2015    2       12    14  46    4.2288   487.4    3.484      47.118
2015    2       12    14  51    4.2267   487.1    3.486      47.064
2015    2       12    14  56    4.2246   486.8    3.488      47.010
2015    2       12    15   1    4.2225   486.5    3.490      46.957
2015    2       12    15   6    4.2205   486.1    3.492      46.904
2015    2       12    15  12    4.2185   485.8    3.494      46.852
2015    2       12    15  17    4.2165   485.5    3.496      46.800
2015    2       12    15  22    4.2146   485.2    3.499      46.748
2015    2       12    15  27    4.2126   484.9    3.501      46.697
2015    2       12    15  32    4.2107   484.6    3.503      46.646
2015    2       12    15  37    4.2089   484.3    3.506      46.595
2015    2       12    15  42    4.2070   483.9    3.508      46.544
2015    2       12    15  47    4.2052   483.6    3.511      46.494
2015    2       12    15  53    4.2034   483.3    3.513      46.444
2015    2       12    15  58    4.2016   483.0    3.516      46.394
2015    2       12    16   3    4.1999   482.7    3.519      46.343
2015    2       12    16   8    4.1981   482.4    3.521      46.293
2015    2       12    16  13    4.1964   482.1    3.524      46.243
2015    2       12    16  18    4.1947   481.7    3.527      46.193
2015    2       12    16  23    4.1930   481.4    3.529      46.143
2015    2       12    16  29    4.1913   481.1    3.532      46.093
2015    2       12    16  34    4.1897   480.8    3.535      46.042
2015    2       12    16  39    4.1881   480.5    3.538      45.992
2015    2       12    16  44    4.1864   480.2    3.541      45.942
2015    2       12    16  49    4.1849   479.8    3.543      45.892
2015    2       12    16  54    4.1833   479.5    3.546      45.841
2015    2       12    16  59    4.1818   479.2    3.549      45.791
2015    2       12    17   4    4.1802   478.9    3.552      45.741
2015    2       12    17  10    4.1787   478.5    3.555      45.690
2015    2       12    17  15    4.1772   478.2    3.558      45.640
2015    2       12    17  20    4.1757   477.9    3.561      45.590
2015    2       12    17  25    4.1742   477.6    3.564      45.540
2015    2       12    17  30    4.1728   477.3    3.567      45.489
2015    2       12    17  35    4.1714   476.9    3.570      45.439
2015    2       12    17  40    4.1701   476.6    3.573      45.389
2015    2       12    17  45    4.1688   476.3    3.576      45.339
2015    2       12    17  51    4.1674   476.0    3.579      45.288
2015    2       12    17  56    4.1662   475.6    3.582      45.238
2015    2       12    18   1    4.1648   475.3    3.584      45.188
2015    2       12    18   6    4.1635   475.0    3.587      45.138
2015    2       12    18  11    4.1623   474.7    3.590      45.088
2015    2       12    18  16    4.1610   474.3    3.593      45.038
2015    2       12    18  21    4.1598   474.0    3.596      44.987
2015    2       12    18  26    4.1585   473.7    3.599      44.937
2015    2       12    18  32    4.1574   473.4    3.602      44.887
2015    2       12    18  37    4.1563   473.0    3.604      44.836
2015    2       12    18  42    4.1550   472.7    3.607      44.786
2015    2       12    18  47    4.1539   472.4    3.610      44.735
2015    2       12    18  52    4.1526   472.0    3.613      44.684
2015    2       12    18  57    4.1515   471.7    3.615      44.633
2015    2       12    19   2    4.1504   471.4    3.618      44.582
2015    2       12    19   8    4.1492   471.0    3.621      44.530
2015    2       12    19  13    4.1481   470.7    3.623      44.478
2015    2       12    19  18    4.1471   470.4    3.626      44.426
2015    2       12    19  23    4.1460   470.0    3.628      44.374
2015    2       12    19  28    4.1448   469.7    3.631      44.322
2015    2       12    19  33    4.1437   469.4    3.634      44.269
2015    2       12    19  38    4.1426   469.0    3.636      44.215
2015    2       12    19  43    4.1416   468.7    3.639      44.162
2015    2       12    19  49    4.1406   468.4    3.641      44.108
2015    2       12    19  54    4.1396   468.0    3.643      44.054
2015    2       12    19  59    4.1386   467.7    3.646      43.999
2015    2       12    20   4    4.1377   467.3    3.648      43.945
2015    2       12    20   9    4.1366   467.0    3.651      43.890
2015    2       12    20  14    4.1357   466.6    3.653      43.835
2015    2       12    20  19    4.1347   466.3    3.656      43.780
2015    2       12    20  24    4.1338   466.0    3.658      43.725
2015    2       12    20  30    4.1330   465.6    3.661      43.670
2015    2       12    20  35    4.1321   465.3    3.663      43.615
2015    2       12    20  40    4.1314   464.9    3.666      43.560
2015    2       12    20  45    4.1305   464.6    3.669      43.505
2015    2       12    20  50    4.1297   464.2    3.671      43.450
2015    2       12    20  55    4.1290   463.9    3.674      43.396
2015    2       12    21   0    4.1283   463.5    3.677      43.342
2015    2       12    21   5    4.1277   463.2    3.679      43.288
2015    2       12    21  11    4.1270   462.9    3.682      43.234
2015    2       12    21  16    4.1265   462.5    3.685      43.181
2015    2       12    21  21    4.1259   462.2    3.688      43.129
2015    2       12    21  26    4.1254   461.8    3.691      43.076
2015    2       12    21  31    4.1249   461.5    3.694      43.024
2015    2       12    21  36    4.1244   461.1    3.698      42.972
2015    2       12    21  41    4.1241   460.8    3.701      42.921
2015    2       12    21  47    4.1238   460.5    3.704      42.870
2015    2       12    21  52    4.1233   460.1    3.708      42.820
2015    2       12    21  57    4.1230   459.8    3.711      42.770
2015    2       12    22   2    4.1227   459.5    3.715      42.720
2015    2       12    22   7    4.1224   459.1    3.718      42.670
2015    2       12    22  12    4.1222   458.8    3.722      42.621
2015    2       12    22  17    4.1220   458.5    3.726      42.573
2015    2       12    22  22    4.1219   458.1    3.730      42.524
2015    2       12    22  28    4.1216   457.8    3.734      42.476
2015    2       12    22  33    4.1214   457.5    3.738      42.428
2015    2       12    22  38    4.1213   457.1    3.742      42.380
2015    2       12    22  43    4.1212   456.8    3.746      42.332
2015    2       12    22  48    4.1211   456.5    3.750      42.284
2015    2       12    22  53    4.1210   456.1    3.754      42.236
2015    2       12    22  58    4.1209   455.8    3.758      42.187
2015    2       12    23   3    4.1209   455.4    3.763      42.139
2015    2       12    23   9    4.1210   455.1    3.767      42.091
2015    2       12    23  14    4.1209   454.8    3.772      42.043
2015    2       12    23  19    4.1209   454.4    3.776      41.995
2015    2       12    23  24    4.1210   454.1    3.781      41.947
2015    2       12    23  29    4.1211   453.8    3.785      41.900
2015    2       12    23  34    4.1213   453.4    3.790      41.852
2015    2       12    23  39    4.1214   453.1    3.795      41.805
2015    2       12    23  44    4.1217   452.8    3.799      41.758
2015    2       12    23  50    4.1218   452.4    3.804      41.711
2015    2       12    23  55    4.1221   452.1    3.809      41.664
2015    2       13     0   0    4.1224   451.8    3.814      41.618
2015    2       13     0   5    4.1229   451.5    3.819      41.572
2015    2       13     0  10    4.1232   451.1    3.824      41.526
2015    2       13     0  15    4.1236   450.8    3.829      41.481
2015    2       13     0  20    4.1241   450.5    3.835      41.436
2015    2       13     0  26    4.1248   450.1    3.840      41.392
2015    2       13     0  31    4.1254   449.8    3.845      41.347
2015    2       13     0  36    4.1260   449.5    3.851      41.303
2015    2       13     0  41    4.1266   449.2    3.856      41.260
2015    2       13     0  46    4.1271   448.9    3.862      41.216
2015    2       13     0  51    4.1279   448.5    3.867      41.173
2015    2       13     0  56    4.1286   448.2    3.873      41.130
2015    2       13     1   1    4.1296   447.9    3.878      41.088
2015    2       13     1   7    4.1303   447.6    3.884      41.045
2015    2       13     1  12    4.1313   447.3    3.890      41.003
2015    2       13     1  17    4.1320   446.9    3.895      40.961
2015    2       13     1  22    4.1329   446.6    3.901      40.919
2015    2       13     1  27    4.1339   446.3    3.907      40.877
2015    2       13     1  32    4.1349   446.0    3.912      40.836
2015    2       13     1  37    4.1359   445.7    3.918      40.795
2015    2       13     1  42    4.1371   445.4    3.924      40.753
2015    2       13     1  48    4.1380   445.1    3.930      40.712
2015    2       13     1  53    4.1391   444.8    3.936      40.671
2015    2       13     1  58    4.1404   444.4    3.942      40.630
2015    2       13     2   3    4.1415   444.1    3.947      40.589
2015    2       13     2   8    4.1424   443.8    3.953      40.549
2015    2       13     2  13    4.1436   443.5    3.959      40.508
2015    2       13     2  18    4.1448   443.2    3.965      40.467
2015    2       13     2  23    4.1461   442.9    3.971      40.426
2015    2       13     2  29    4.1475   442.6    3.977      40.386
2015    2       13     2  34    4.1486   442.3    3.983      40.345
2015    2       13     2  39    4.1501   442.0    3.988      40.305
2015    2       13     2  44    4.1512   441.7    3.994      40.264
2015    2       13     2  49    4.1525   441.3    4.000      40.224
2015    2       13     2  54    4.1539   441.0    4.006      40.183
2015    2       13     2  59    4.1553   440.7    4.012      40.143
2015    2       13     3   4    4.1567   440.4    4.018      40.102
2015    2       13     3  10    4.1581   440.1    4.024      40.062
2015    2       13     3  15    4.1596   439.8    4.030      40.022
2015    2       13     3  20    4.1611   439.5    4.036      39.982
2015    2       13     3  25    4.1627   439.2    4.042      39.942
2015    2       13     3  30    4.1642   438.9    4.048      39.902
2015    2       13     3  35    4.1658   438.6    4.055      39.862
2015    2       13     3  40    4.1677   438.3    4.061      39.823
2015    2       13     3  46    4.1691   438.0    4.067      39.784
2015    2       13     3  51    4.1707   437.7    4.073      39.745
2015    2       13     3  56    4.1725   437.4    4.080      39.706
2015    2       13     4   1    4.1745   437.1    4.086      39.667
2015    2       13     4   6    4.1760   436.8    4.093      39.629
2015    2       13     4  11    4.1778   436.5    4.099      39.591
2015    2       13     4  16    4.1800   436.2    4.106      39.554
2015    2       13     4  21    4.1816   435.9    4.112      39.517
2015    2       13     4  27    4.1836   435.6    4.119      39.480
2015    2       13     4  32    4.1858   435.3    4.126      39.444
2015    2       13     4  37    4.1876   435.0    4.133      39.407
2015    2       13     4  42    4.1896   434.7    4.140      39.372
2015    2       13     4  47    4.1918   434.4    4.147      39.337
2015    2       13     4  52    4.1939   434.1    4.154      39.302
2015    2       13     4  57    4.1961   433.8    4.161      39.268
2015    2       13     5   2    4.1986   433.5    4.169      39.234
2015    2       13     5   8    4.2007   433.2    4.176      39.201
2015    2       13     5  13    4.2030   432.9    4.184      39.168
2015    2       13     5  18    4.2054   432.6    4.191      39.135
2015    2       13     5  23    4.2078   432.3    4.199      39.103
2015    2       13     5  28    4.2103   432.0    4.207      39.072
2015    2       13     5  33    4.2129   431.8    4.215      39.041
2015    2       13     5  38    4.2154   431.5    4.223      39.010
2015    2       13     5  43    4.2180   431.2    4.231      38.980
2015    2       13     5  49    4.2207   430.9    4.239      38.950
2015    2       13     5  54    4.2234   430.6    4.247      38.921
2015    2       13     5  59    4.2265   430.3    4.255      38.892
2015    2       13     6   4    4.2290   430.1    4.264      38.864
2015    2       13     6   9    4.2318   429.8    4.272      38.836
2015    2       13     6  14    4.2347   429.5    4.281      38.808
2015    2       13     6  19    4.2379   429.2    4.290      38.781
2015    2       13     6  24    4.2406   429.0    4.298      38.755
2015    2       13     6  30    4.2436   428.7    4.307      38.728
2015    2       13     6  35    4.2469   428.4    4.316      38.702
2015    2       13     6  40    4.2497   428.2    4.325      38.676
2015    2       13     6  45    4.2531   427.9    4.334      38.651
2015    2       13     6  50    4.2560   427.6    4.343      38.626
2015    2       13     6  55    4.2591   427.4    4.352      38.601
2015    2       13     7   0    4.2624   427.1    4.361      38.577
2015    2       13     7   6    4.2659   426.8    4.370      38.552
2015    2       13     7  11    4.2689   426.6    4.380      38.529
2015    2       13     7  16    4.2722   426.3    4.389      38.505
2015    2       13     7  21    4.2756   426.1    4.398      38.481
2015    2       13     7  26    4.2790   425.8    4.408      38.458
2015    2       13     7  31    4.2824   425.5    4.417      38.435
2015    2       13     7  36    4.2859   425.3    4.427      38.412
2015    2       13     7  41    4.2894   425.0    4.436      38.390
2015    2       13     7  47    4.2929   424.8    4.446      38.367
2015    2       13     7  52    4.2964   424.5    4.455      38.345
2015    2       13     7  57    4.2999   424.3    4.465      38.323
2015    2       13     8   2    4.3035   424.0    4.475      38.301
2015    2       13     8   7    4.3071   423.8    4.484      38.279
2015    2       13     8  12    4.3108   423.6    4.494      38.257
2015    2       13     8  17    4.3144   423.3    4.504      38.236
2015    2       13     8  22    4.3181   423.1    4.514      38.214
2015    2       13     8  28    4.3218   422.8    4.523      38.193
2015    2       13     8  33    4.3255   422.6    4.533      38.172
2015    2       13     8  38    4.3293   422.4    4.543      38.151
2015    2       13     8  43    4.3331   422.1    4.553      38.130
2015    2       13     8  48    4.3369   421.9    4.563      38.109
2015    2       13     8  53    4.3407   421.6    4.572      38.088
2015    2       13     8  58    4.3448   421.4    4.582      38.067
2015    2       13     9   3    4.3487   421.2    4.592      38.047
2015    2       13     9   9    4.3523   420.9    4.602      38.026
2015    2       13     9  14    4.3562   420.7    4.612      38.006
2015    2       13     9  19    4.3601   420.5    4.622      37.986
2015    2       13     9  24    4.3644   420.3    4.632      37.966
2015    2       13     9  29    4.3681   420.0    4.642      37.946
2015    2       13     9  34    4.3721   419.8    4.652      37.926
2015    2       13     9  39    4.3761   419.6    4.662      37.906
2015    2       13     9  44    4.3801   419.4    4.672      37.887
2015    2       13     9  50    4.3842   419.1    4.681      37.867
2015    2       13     9  55    4.3886   418.9    4.691      37.848
2015    2       13    10   0    4.3924   418.7    4.701      37.829
2015    2       13    10   5    4.3965   418.5    4.711      37.810
2015    2       13    10  10    4.4010   418.3    4.721      37.791
2015    2       13    10  15    4.4048   418.1    4.731      37.773
2015    2       13    10  20    4.4090   417.8    4.742      37.754
2015    2       13    10  26    4.4132   417.6    4.752      37.736
2015    2       13    10  31    4.4174   417.4    4.762      37.717
2015    2       13    10  36    4.4217   417.2    4.772      37.699
2015    2       13    10  41    4.4260   417.0    4.782      37.681
2015    2       13    10  46    4.4302   416.8    4.792      37.663
2015    2       13    10  51    4.4345   416.6    4.802      37.646
2015    2       13    10  56    4.4389   416.4    4.812      37.628
2015    2       13    11   1    4.4432   416.2    4.822      37.611
2015    2       13    11   7    4.4475   416.0    4.832      37.593
2015    2       13    11  12    4.4522   415.8    4.842      37.576
2015    2       13    11  17    4.4563   415.6    4.852      37.559
2015    2       13    11  22    4.4610   415.4    4.862      37.542
2015    2       13    11  27    4.4651   415.2    4.872      37.525
2015    2       13    11  32    4.4696   415.0    4.882      37.509
2015    2       13    11  37    4.4740   414.8    4.893      37.492
2015    2       13    11  42    4.4785   414.6    4.903      37.476
2015    2       13    11  48    4.4830   414.4    4.913      37.459
2015    2       13    11  53    4.4875   414.2    4.923      37.443
2015    2       13    11  58    4.4921   414.0    4.933      37.427
2015    2       13    12   3    4.4966   413.8    4.943      37.411
2015    2       13    12   8    4.5012   413.6    4.954      37.395
2015    2       13    12  13    4.5058   413.4    4.964      37.380
2015    2       13    12  18    4.5104   413.3    4.974      37.364
2015    2       13    12  23    4.5151   413.1    4.984      37.349
2015    2       13    12  29    4.5198   412.9    4.995      37.334
2015    2       13    12  34    4.5247   412.7    5.005      37.319
2015    2       13    12  39    4.5294   412.5    5.016      37.305
2015    2       13    12  44    4.5339   412.3    5.026      37.290
2015    2       13    12  49    4.5388   412.2    5.037      37.276
2015    2       13    12  54    4.5438   412.0    5.047      37.262
2015    2       13    12  59    4.5484   411.8    5.058      37.249
2015    2       13    13   4    4.5533   411.6    5.068      37.235
2015    2       13    13  10    4.5582   411.4    5.079      37.222
2015    2       13    13  15    4.5633   411.3    5.090      37.210
2015    2       13    13  20    4.5681   411.1    5.101      37.197
2015    2       13    13  25    4.5731   410.9    5.112      37.185
2015    2       13    13  30    4.5784   410.7    5.123      37.174
2015    2       13    13  35    4.5833   410.6    5.134      37.163
2015    2       13    13  40    4.5884   410.4    5.145      37.152
2015    2       13    13  45    4.5935   410.2    5.157      37.142
2015    2       13    13  51    4.5987   410.1    5.168      37.132
2015    2       13    13  56    4.6039   409.9    5.180      37.122
2015    2       13    14   1    4.6092   409.7    5.191      37.113
2015    2       13    14   6    4.6145   409.6    5.203      37.105
2015    2       13    14  11    4.6198   409.4    5.215      37.097
2015    2       13    14  16    4.6252   409.3    5.227      37.090
2015    2       13    14  21    4.6306   409.1    5.239      37.083
2015    2       13    14  27    4.6360   408.9    5.251      37.077
2015    2       13    14  32    4.6414   408.8    5.263      37.071
2015    2       13    14  37    4.6471   408.6    5.276      37.066
2015    2       13    14  42    4.6524   408.5    5.288      37.061
2015    2       13    14  47    4.6580   408.3    5.301      37.057
2015    2       13    14  52    4.6635   408.2    5.313      37.053
2015    2       13    14  57    4.6693   408.1    5.326      37.050
2015    2       13    15   2    4.6747   407.9    5.339      37.048
2015    2       13    15   8    4.6805   407.8    5.352      37.046
2015    2       13    15  13    4.6860   407.6    5.365      37.044
2015    2       13    15  18    4.6918   407.5    5.378      37.043
2015    2       13    15  23    4.6973   407.4    5.391      37.042
2015    2       13    15  28    4.7030   407.2    5.404      37.042
2015    2       13    15  33    4.7087   407.1    5.417      37.042
2015    2       13    15  38    4.7144   407.0    5.430      37.043
2015    2       13    15  43    4.7202   406.8    5.443      37.043
2015    2       13    15  49    4.7258   406.7    5.457      37.044
2015    2       13    15  54    4.7315   406.6    5.470      37.046
2015    2       13    15  59    4.7372   406.4    5.483      37.047
2015    2       13    16   4    4.7430   406.3    5.497      37.049
2015    2       13    16   9    4.7487   406.2    5.510      37.051
2015    2       13    16  14    4.7546   406.1    5.523      37.053
2015    2       13    16  19    4.7601   406.0    5.537      37.055
2015    2       13    16  24    4.7659   405.8    5.550      37.057
2015    2       13    16  30    4.7717   405.7    5.564      37.059
2015    2       13    16  35    4.7773   405.6    5.577      37.062
2015    2       13    16  40    4.7830   405.5    5.590      37.064
2015    2       13    16  45    4.7888   405.4    5.604      37.066
2015    2       13    16  50    4.7945   405.2    5.617      37.069
2015    2       13    16  55    4.8002   405.1    5.630      37.072
2015    2       13    17   0    4.8059   405.0    5.644      37.074
2015    2       13    17   6    4.8116   404.9    5.657      37.077
2015    2       13    17  11    4.8174   404.8    5.670      37.079
2015    2       13    17  16    4.8231   404.7    5.683      37.082
2015    2       13    17  21    4.8288   404.6    5.696      37.084
2015    2       13    17  26    4.8346   404.4    5.709      37.087
2015    2       13    17  31    4.8403   404.3    5.722      37.090
2015    2       13    17  36    4.8462   404.2    5.735      37.092
2015    2       13    17  41    4.8518   404.1    5.748      37.094
2015    2       13    17  47    4.8575   404.0    5.761      37.097
2015    2       13    17  52    4.8634   403.9    5.774      37.099
2015    2       13    17  57    4.8690   403.8    5.786      37.102
2015    2       13    18   2    4.8748   403.7    5.799      37.105
2015    2       13    18   7    4.8806   403.6    5.811      37.107
2015    2       13    18  12    4.8864   403.4    5.824      37.109
2015    2       13    18  17    4.8922   403.3    5.836      37.112
2015    2       13    18  22    4.8980   403.2    5.848      37.114
2015    2       13    18  28    4.9040   403.1    5.861      37.117
2015    2       13    18  33    4.9097   403.0    5.873      37.119
2015    2       13    18  38    4.9156   402.9    5.885      37.121
2015    2       13    18  43    4.9214   402.8    5.897      37.123
2015    2       13    18  48    4.9273   402.7    5.909      37.126
2015    2       13    18  53    4.9334   402.6    5.921      37.128
2015    2       13    18  58    4.9391   402.5    5.933      37.130
2015    2       13    19   3    4.9451   402.4    5.945      37.132
2015    2       13    19   9    4.9512   402.3    5.956      37.135
2015    2       13    19  14    4.9570   402.2    5.968      37.137
2015    2       13    19  19    4.9630   402.1    5.980      37.139
2015    2       13    19  24    4.9690   402.0    5.991      37.141
2015    2       13    19  29    4.9750   401.9    6.003      37.143
2015    2       13    19  34    4.9810   401.8    6.015      37.144
2015    2       13    19  39    4.9870   401.7    6.026      37.146
2015    2       13    19  44    4.9931   401.6    6.038      37.148
2015    2       13    19  50    4.9992   401.5    6.049      37.150
2015    2       13    19  55    5.0053   401.4    6.060      37.151
2015    2       13    20   0    5.0114   401.3    6.072      37.153
2015    2       13    20   5    5.0175   401.2    6.083      37.154
2015    2       13    20  10    5.0237   401.1    6.094      37.156
2015    2       13    20  15    5.0299   401.0    6.106      37.157
2015    2       13    20  20    5.0361   400.9    6.117      37.158
2015    2       13    20  26    5.0423   400.8    6.128      37.160
2015    2       13    20  31    5.0485   400.7    6.140      37.161
2015    2       13    20  36    5.0547   400.7    6.151      37.162
2015    2       13    20  41    5.0610   400.6    6.162      37.163
2015    2       13    20  46    5.0673   400.5    6.174      37.164
2015    2       13    20  51    5.0737   400.4    6.185      37.166
2015    2       13    20  56    5.0799   400.3    6.196      37.167
2015    2       13    21   1    5.0862   400.2    6.208      37.168
2015    2       13    21   7    5.0926   400.1    6.219      37.169
2015    2       13    21  12    5.0991   400.0    6.231      37.171
2015    2       13    21  17    5.1054   400.0    6.242      37.172
2015    2       13    21  22    5.1118   399.9    6.254      37.174
2015    2       13    21  27    5.1182   399.8    6.265      37.175
2015    2       13    21  32    5.1247   399.7    6.277      37.177
2015    2       13    21  37    5.1311   399.6    6.288      37.179
2015    2       13    21  42    5.1376   399.5    6.300      37.181
2015    2       13    21  48    5.1441   399.5    6.312      37.183
2015    2       13    21  53    5.1507   399.4    6.323      37.185
2015    2       13    21  58    5.1571   399.3    6.335      37.188
2015    2       13    22   3    5.1637   399.2    6.347      37.190
2015    2       13    22   8    5.1703   399.2    6.359      37.193
2015    2       13    22  13    5.1769   399.1    6.371      37.196
2015    2       13    22  18    5.1835   399.0    6.383      37.199
2015    2       13    22  23    5.1901   398.9    6.395      37.203
2015    2       13    22  29    5.1968   398.9    6.407      37.207
2015    2       13    22  34    5.2034   398.8    6.420      37.211
2015    2       13    22  39    5.2101   398.7    6.432      37.215
2015    2       13    22  44    5.2168   398.6    6.444      37.219
2015    2       13    22  49    5.2236   398.6    6.457      37.224
2015    2       13    22  54    5.2303   398.5    6.469      37.229
2015    2       13    22  59    5.2370   398.4    6.482      37.235
2015    2       13    23   5    5.2438   398.4    6.494      37.241
2015    2       13    23  10    5.2506   398.3    6.507      37.247
2015    2       13    23  15    5.2574   398.2    6.520      37.254
2015    2       13    23  20    5.2642   398.2    6.532      37.261
2015    2       13    23  25    5.2711   398.1    6.545      37.268
2015    2       13    23  30    5.2779   398.0    6.558      37.276
2015    2       13    23  35    5.2848   398.0    6.571      37.283
2015    2       13    23  40    5.2916   397.9    6.584      37.292
2015    2       13    23  46    5.2985   397.8    6.597      37.300
2015    2       13    23  51    5.3054   397.8    6.610      37.309
2015    2       13    23  56    5.3123   397.7    6.623      37.318
2015    2       14     0   1    5.3192   397.7    6.636      37.328
2015    2       14     0   6    5.3262   397.6    6.649      37.338
2015    2       14     0  11    5.3331   397.5    6.662      37.348
2015    2       14     0  16    5.3402   397.5    6.675      37.358
2015    2       14     0  21    5.3471   397.4    6.688      37.369
2015    2       14     0  27    5.3541   397.4    6.701      37.380
2015    2       14     0  32    5.3611   397.3    6.715      37.391
2015    2       14     0  37    5.3682   397.3    6.728      37.403
2015    2       14     0  42    5.3752   397.2    6.741      37.415
2015    2       14     0  47    5.3824   397.2    6.755      37.427
2015    2       14     0  52    5.3894   397.1    6.768      37.439
2015    2       14     0  57    5.3965   397.1    6.781      37.452
2015    2       14     1   3    5.4037   397.0    6.795      37.465
2015    2       14     1   8    5.4109   397.0    6.808      37.479
2015    2       14     1  13    5.4180   396.9    6.821      37.493
2015    2       14     1  18    5.4252   396.9    6.834      37.508
2015    2       14     1  23    5.4324   396.8    6.848      37.523
2015    2       14     1  28    5.4396   396.8    6.861      37.538
2015    2       14     1  33    5.4469   396.7    6.874      37.554
2015    2       14     1  38    5.4541   396.7    6.887      37.570
2015    2       14     1  44    5.4615   396.6    6.900      37.587
2015    2       14     1  49    5.4687   396.6    6.913      37.604
2015    2       14     1  54    5.4760   396.6    6.926      37.621
2015    2       14     1  59    5.4832   396.5    6.938      37.639
2015    2       14     2   4    5.4905   396.5    6.951      37.657
2015    2       14     2   9    5.4978   396.4    6.964      37.675
2015    2       14     2  14    5.5052   396.4    6.976      37.693
2015    2       14     2  19    5.5125   396.4    6.989      37.711
2015    2       14     2  25    5.5198   396.3    7.001      37.730
2015    2       14     2  30    5.5272   396.3    7.013      37.748
2015    2       14     2  35    5.5345   396.3    7.025      37.766
2015    2       14     2  40    5.5419   396.2    7.038      37.785
2015    2       14     2  45    5.5492   396.2    7.050      37.803
2015    2       14     2  50    5.5566   396.2    7.062      37.821
2015    2       14     2  55    5.5640   396.1    7.074      37.839
2015    2       14     3   1    5.5714   396.1    7.086      37.856
2015    2       14     3   6    5.5789   396.1    7.097      37.873
2015    2       14     3  11    5.5862   396.0    7.109      37.891
2015    2       14     3  16    5.5936   396.0    7.121      37.908
2015    2       14     3  21    5.6010   396.0    7.133      37.924
2015    2       14     3  26    5.6085   395.9    7.144      37.941
2015    2       14     3  31    5.6159   395.9    7.156      37.957
2015    2       14     3  36    5.6234   395.9    7.167      37.973
2015    2       14     3  42    5.6309   395.8    7.179      37.989
2015    2       14     3  47    5.6383   395.8    7.190      38.005
2015    2       14     3  52    5.6458   395.8    7.202      38.020
2015    2       14     3  57    5.6533   395.8    7.213      38.036
2015    2       14     4   2    5.6609   395.7    7.225      38.051
2015    2       14     4   7    5.6684   395.7    7.236      38.066
2015    2       14     4  12    5.6759   395.7    7.248      38.081
2015    2       14     4  18    5.6835   395.6    7.259      38.096
2015    2       14     4  23    5.6910   395.6    7.270      38.111
2015    2       14     4  28    5.6986   395.6    7.282      38.126
2015    2       14     4  33    5.7062   395.6    7.293      38.140
2015    2       14     4  38    5.7137   395.5    7.304      38.155
2015    2       14     4  43    5.7213   395.5    7.316      38.169
2015    2       14     4  48    5.7289   395.5    7.327      38.184
2015    2       14     4  53    5.7365   395.5    7.338      38.199
2015    2       14     4  59    5.7443   395.4    7.350      38.213
2015    2       14     5   4    5.7519   395.4    7.361      38.228
2015    2       14     5   9    5.7595   395.4    7.373      38.242
2015    2       14     5  14    5.7671   395.4    7.384      38.257
2015    2       14     5  19    5.7748   395.4    7.395      38.272
2015    2       14     5  24    5.7825   395.3    7.407      38.287
2015    2       14     5  29    5.7902   395.3    7.418      38.302
2015    2       14     5  34    5.7979   395.3    7.430      38.318
2015    2       14     5  40    5.8056   395.3    7.441      38.333
2015    2       14     5  45    5.8134   395.3    7.453      38.349
2015    2       14     5  50    5.8210   395.2    7.465      38.365
2015    2       14     5  55    5.8288   395.2    7.476      38.381
2015    2       14     6   0    5.8367   395.2    7.488      38.397
2015    2       14     6   5    5.8444   395.2    7.500      38.414
2015    2       14     6  10    5.8522   395.2    7.511      38.431
2015    2       14     6  15    5.8601   395.2    7.523      38.448
2015    2       14     6  21    5.8680   395.1    7.535      38.466
2015    2       14     6  26    5.8758   395.1    7.547      38.483
2015    2       14     6  31    5.8837   395.1    7.558      38.502
2015    2       14     6  36    5.8917   395.1    7.570      38.520
2015    2       14     6  41    5.8996   395.1    7.582      38.539
2015    2       14     6  46    5.9075   395.1    7.594      38.558
2015    2       14     6  51    5.9156   395.1    7.606      38.577
2015    2       14     6  57    5.9236   395.1    7.618      38.596
2015    2       14     7   2    5.9315   395.1    7.630      38.616
2015    2       14     7   7    5.9396   395.1    7.642      38.636
2015    2       14     7  12    5.9478   395.0    7.654      38.657
2015    2       14     7  17    5.9558   395.0    7.666      38.678
2015    2       14     7  22    5.9639   395.0    7.678      38.699
2015    2       14     7  27    5.9722   395.0    7.691      38.720
2015    2       14     7  32    5.9803   395.0    7.703      38.742
2015    2       14     7  38    5.9886   395.0    7.715      38.764
2015    2       14     7  43    5.9970   395.0    7.728      38.786
2015    2       14     7  48    6.0053   395.0    7.740      38.809
2015    2       14     7  53    6.0138   395.0    7.753      38.833
2015    2       14     7  58    6.0222   395.0    7.766      38.856
2015    2       14     8   3    6.0308   395.0    7.778      38.880
2015    2       14     8   8    6.0393   395.0    7.791      38.905
2015    2       14     8  13    6.0480   395.0    7.804      38.931
2015    2       14     8  19    6.0567   395.0    7.817      38.957
2015    2       14     8  24    6.0655   395.0    7.829      38.983
2015    2       14     8  29    6.0742   395.1    7.842      39.011
2015    2       14     8  34    6.0830   395.1    7.855      39.040
2015    2       14     8  39    6.0919   395.1    7.868      39.069
2015    2       14     8  44    6.1009   395.1    7.880      39.099
2015    2       14     8  49    6.1098   395.1    7.893      39.130
2015    2       14     8  54    6.1189   395.1    7.905      39.162
2015    2       14     9   0    6.1279   395.2    7.918      39.194
2015    2       14     9   5    6.1370   395.2    7.930      39.226
2015    2       14     9  10    6.1461   395.2    7.943      39.259
2015    2       14     9  15    6.1553   395.2    7.955      39.292
2015    2       14     9  20    6.1644   395.2    7.967      39.326
2015    2       14     9  25    6.1736   395.3    7.979      39.361
2015    2       14     9  30    6.1828   395.3    7.991      39.395
2015    2       14     9  36    6.1921   395.3    8.003      39.429
2015    2       14     9  41    6.2013   395.3    8.015      39.464
2015    2       14     9  46    6.2106   395.4    8.027      39.499
2015    2       14     9  51    6.2199   395.4    8.039      39.534
2015    2       14     9  56    6.2292   395.4    8.050      39.568
2015    2       14    10   1    6.2387   395.4    8.062      39.603
2015    2       14    10   6    6.2480   395.4    8.074      39.637
2015    2       14    10  11    6.2574   395.5    8.086      39.671
2015    2       14    10  17    6.2668   395.5    8.097      39.706
2015    2       14    10  22    6.2763   395.5    8.109      39.740
2015    2       14    10  27    6.2858   395.6    8.121      39.774
2015    2       14    10  32    6.2953   395.6    8.133      39.808
2015    2       14    10  37    6.3049   395.6    8.144      39.843
2015    2       14    10  42    6.3144   395.6    8.156      39.878
2015    2       14    10  47    6.3240   395.7    8.168      39.914
2015    2       14    10  52    6.3336   395.7    8.180      39.951
2015    2       14    10  58    6.3434   395.8    8.191      39.988
2015    2       14    11   3    6.3528   395.8    8.203      40.026
2015    2       14    11   8    6.3624   395.8    8.215      40.064
2015    2       14    11  13    6.3720   395.9    8.226      40.103
2015    2       14    11  18    6.3816   395.9    8.238      40.142
2015    2       14    11  23    6.3911   396.0    8.249      40.182
2015    2       14    11  28    6.4007   396.0    8.260      40.223
2015    2       14    11  33    6.4102   396.1    8.272      40.264
2015    2       14    11  39    6.4198   396.1    8.283      40.305
2015    2       14    11  44    6.4293   396.2    8.294      40.347
2015    2       14    11  49    6.4387   396.2    8.305      40.390
2015    2       14    11  54    6.4482   396.3    8.316      40.432
2015    2       14    11  59    6.4576   396.3    8.327      40.475
2015    2       14    12   4    6.4670   396.4    8.337      40.519
2015    2       14    12   9    6.4764   396.4    8.348      40.562
2015    2       14    12  14    6.4857   396.5    8.358      40.605
2015    2       14    12  20    6.4950   396.6    8.369      40.649
2015    2       14    12  25    6.5045   396.6    8.379      40.693
2015    2       14    12  30    6.5136   396.7    8.389      40.737
2015    2       14    12  35    6.5229   396.7    8.399      40.781
2015    2       14    12  40    6.5321   396.8    8.409      40.825
2015    2       14    12  45    6.5413   396.9    8.419      40.869
2015    2       14    12  50    6.5505   396.9    8.429      40.913
2015    2       14    12  55    6.5596   397.0    8.439      40.957
2015    2       14    13   1    6.5688   397.0    8.448      41.001
2015    2       14    13   6    6.5779   397.1    8.458      41.045
2015    2       14    13  11    6.5871   397.2    8.467      41.089
2015    2       14    13  16    6.5961   397.2    8.477      41.133
2015    2       14    13  21    6.6052   397.3    8.486      41.176
2015    2       14    13  26    6.6143   397.3    8.496      41.220
2015    2       14    13  31    6.6235   397.4    8.505      41.264
2015    2       14    13  36    6.6326   397.5    8.515      41.307
2015    2       14    13  42    6.6417   397.5    8.524      41.351
2015    2       14    13  47    6.6508   397.6    8.533      41.394
2015    2       14    13  52    6.6599   397.7    8.543      41.438
2015    2       14    13  57    6.6691   397.7    8.552      41.482
2015    2       14    14   2    6.6783   397.8    8.561      41.525
2015    2       14    14   7    6.6875   397.8    8.571      41.569
2015    2       14    14  12    6.6967   397.9    8.580      41.613
2015    2       14    14  18    6.7059   398.0    8.590      41.657
2015    2       14    14  23    6.7153   398.0    8.599      41.702
2015    2       14    14  28    6.7246   398.1    8.609      41.746
2015    2       14    14  33    6.7339   398.2    8.618      41.792
2015    2       14    14  38    6.7434   398.2    8.628      41.837
2015    2       14    14  43    6.7529   398.3    8.638      41.883
2015    2       14    14  48    6.7623   398.4    8.648      41.930
2015    2       14    14  53    6.7719   398.4    8.658      41.977
2015    2       14    14  59    6.7816   398.5    8.668      42.025
2015    2       14    15   4    6.7913   398.6    8.679      42.074
2015    2       14    15   9    6.8011   398.7    8.689      42.123
2015    2       14    15  14    6.8109   398.7    8.700      42.173
2015    2       14    15  19    6.8209   398.8    8.711      42.225
2015    2       14    15  24    6.8309   398.9    8.722      42.277
2015    2       14    15  29    6.8410   399.0    8.733      42.330
2015    2       14    15  34    6.8512   399.0    8.745      42.384
2015    2       14    15  40    6.8614   399.1    8.757      42.439
2015    2       14    15  45    6.8718   399.2    8.768      42.496
2015    2       14    15  50    6.8823   399.3    8.781      42.556
2015    2       14    15  55    6.8928   399.4    8.793      42.617
2015    2       14    16   0    6.9034   399.5    8.805      42.679
2015    2       14    16   5    6.9140   399.6    8.817      42.744
2015    2       14    16  10    6.9246   399.7    8.829      42.811
2015    2       14    16  15    6.9353   399.8    8.842      42.879
2015    2       14    16  21    6.9461   399.9    8.854      42.949
2015    2       14    16  26    6.9568   400.0    8.866      43.020
2015    2       14    16  31    6.9676   400.1    8.879      43.092
2015    2       14    16  36    6.9783   400.2    8.891      43.166
2015    2       14    16  41    6.9891   400.3    8.902      43.241
2015    2       14    16  46    6.9999   400.4    8.914      43.317
2015    2       14    16  51    7.0106   400.6    8.926      43.395
2015    2       14    16  56    7.0213   400.7    8.937      43.473
2015    2       14    17   2    7.0320   400.8    8.949      43.553
2015    2       14    17   7    7.0426   400.9    8.960      43.633
2015    2       14    17  12    7.0533   401.1    8.971      43.713
2015    2       14    17  17    7.0638   401.2    8.982      43.794
2015    2       14    17  22    7.0744   401.3    8.992      43.875
2015    2       14    17  27    7.0849   401.4    9.003      43.955
2015    2       14    17  32    7.0953   401.6    9.013      44.036
2015    2       14    17  37    7.1057   401.7    9.023      44.116
2015    2       14    17  43    7.1161   401.8    9.033      44.197
2015    2       14    17  48    7.1265   401.9    9.043      44.277
2015    2       14    17  53    7.1368   402.1    9.053      44.358
2015    2       14    17  58    7.1472   402.2    9.063      44.438
2015    2       14    18   3    7.1575   402.3    9.073      44.519
2015    2       14    18   8    7.1678   402.4    9.083      44.598
2015    2       14    18  13    7.1782   402.6    9.093      44.678
2015    2       14    18  18    7.1885   402.7    9.103      44.757
2015    2       14    18  24    7.1989   402.8    9.112      44.836
2015    2       14    18  29    7.2093   403.0    9.122      44.916
2015    2       14    18  34    7.2198   403.1    9.132      44.997
2015    2       14    18  39    7.2303   403.3    9.142      45.079
2015    2       14    18  44    7.2408   403.4    9.151      45.162
2015    2       14    18  49    7.2513   403.6    9.161      45.246
2015    2       14    18  54    7.2619   403.7    9.170      45.332
2015    2       14    19   0    7.2724   403.9    9.180      45.419
2015    2       14    19   5    7.2829   404.0    9.189      45.506
2015    2       14    19  10    7.2935   404.2    9.198      45.594
2015    2       14    19  15    7.3039   404.4    9.206      45.683
2015    2       14    19  20    7.3144   404.5    9.215      45.773
2015    2       14    19  25    7.3248   404.7    9.223      45.863
2015    2       14    19  30    7.3351   404.9    9.230      45.953
2015    2       14    19  35    7.3456   405.1    9.238      46.045
2015    2       14    19  41    7.3557   405.3    9.245      46.136
2015    2       14    19  46    7.3659   405.4    9.251      46.228
2015    2       14    19  51    7.3761   405.6    9.258      46.319
2015    2       14    19  56    7.3861   405.8    9.264      46.411
2015    2       14    20   1    7.3962   406.0    9.269      46.502
2015    2       14    20   6    7.4061   406.2    9.275      46.592
2015    2       14    20  11    7.4162   406.4    9.280      46.682
2015    2       14    20  16    7.4261   406.5    9.285      46.772
2015    2       14    20  22    7.4359   406.7    9.289      46.861
2015    2       14    20  27    7.4455   406.9    9.293      46.950
2015    2       14    20  32    7.4553   407.1    9.297      47.038
2015    2       14    20  37    7.4650   407.2    9.301      47.126
2015    2       14    20  42    7.4747   407.4    9.305      47.213
2015    2       14    20  47    7.4845   407.6    9.308      47.301
2015    2       14    20  52    7.4940   407.8    9.311      47.388
2015    2       14    20  57    7.5037   407.9    9.314      47.474
2015    2       14    21   3    7.5132   408.1    9.317      47.561
2015    2       14    21   8    7.5228   408.3    9.320      47.648
2015    2       14    21  13    7.5325   408.5    9.323      47.734
2015    2       14    21  18    7.5419   408.6    9.326      47.820
2015    2       14    21  23    7.5516   408.8    9.328      47.906
2015    2       14    21  28    7.5610   409.0    9.331      47.992
2015    2       14    21  33    7.5705   409.1    9.333      48.077
2015    2       14    21  38    7.5800   409.3    9.336      48.163
2015    2       14    21  44    7.5895   409.5    9.338      48.249
2015    2       14    21  49    7.5991   409.6    9.341      48.335
2015    2       14    21  54    7.6086   409.8    9.343      48.421
2015    2       14    21  59    7.6182   410.0    9.346      48.507
2015    2       14    22   4    7.6276   410.2    9.348      48.593
2015    2       14    22   9    7.6372   410.3    9.351      48.679
2015    2       14    22  14    7.6468   410.5    9.353      48.766
2015    2       14    22  19    7.6563   410.7    9.356      48.853
2015    2       14    22  25    7.6659   410.8    9.359      48.940
2015    2       14    22  30    7.6755   411.0    9.362      49.028
2015    2       14    22  35    7.6851   411.2    9.365      49.117
2015    2       14    22  40    7.6947   411.4    9.368      49.206
2015    2       14    22  45    7.7044   411.5    9.371      49.295
2015    2       14    22  50    7.7140   411.7    9.375      49.385
2015    2       14    22  55    7.7237   411.9    9.379      49.476
2015    2       14    23   0    7.7335   412.1    9.383      49.568
2015    2       14    23   6    7.7431   412.2    9.387      49.661
2015    2       14    23  11    7.7528   412.4    9.391      49.756
2015    2       14    23  16    7.7625   412.6    9.395      49.852
2015    2       14    23  21    7.7724   412.8    9.399      49.951
2015    2       14    23  26    7.7820   413.0    9.403      50.051
2015    2       14    23  31    7.7917   413.2    9.407      50.153
2015    2       14    23  36    7.8013   413.4    9.411      50.255
2015    2       14    23  41    7.8108   413.6    9.415      50.359
2015    2       14    23  47    7.8201   413.8    9.419      50.465
2015    2       14    23  52    7.8297   414.0    9.423      50.570
2015    2       14    23  57    7.8388   414.2    9.427      50.677
2015    2       15     0   2    7.8480   414.4    9.430      50.784
2015    2       15     0   7    7.8574   414.6    9.434      50.891
2015    2       15     0  12    7.8665   414.8    9.437      50.998
2015    2       15     0  17    7.8755   415.0    9.440      51.106
2015    2       15     0  23    7.8844   415.2    9.443      51.214
2015    2       15     0  28    7.8932   415.5    9.445      51.322
2015    2       15     0  33    7.9019   415.7    9.448      51.429
2015    2       15     0  38    7.9103   415.9    9.450      51.536
2015    2       15     0  43    7.9192   416.1    9.453      51.642
2015    2       15     0  48    7.9278   416.3    9.455      51.748
2015    2       15     0  53    7.9363   416.5    9.457      51.853
2015    2       15     0  58    7.9448   416.7    9.460      51.958
2015    2       15     1   4    7.9533   416.9    9.462      52.062
2015    2       15     1   9    7.9614   417.1    9.465      52.165
2015    2       15     1  14    7.9701   417.3    9.467      52.267
2015    2       15     1  19    7.9782   417.5    9.470      52.370
2015    2       15     1  24    7.9870   417.7    9.473      52.472
2015    2       15     1  29    7.9954   418.0    9.476      52.575
2015    2       15     1  34    8.0039   418.2    9.479      52.678
2015    2       15     1  39    8.0125   418.4    9.482      52.782
2015    2       15     1  45    8.0210   418.6    9.486      52.888
2015    2       15     1  50    8.0292   418.8    9.489      52.995
2015    2       15     1  55    8.0383   419.1    9.493      53.102
2015    2       15     2   0    8.0465   419.3    9.496      53.212
2015    2       15     2   5    8.0556   419.5    9.500      53.322
2015    2       15     2  10    8.0643   419.8    9.504      53.434
2015    2       15     2  15    8.0730   420.0    9.508      53.546
2015    2       15     2  20    8.0813   420.2    9.513      53.660
2015    2       15     2  26    8.0900   420.5    9.517      53.776
2015    2       15     2  31    8.0993   420.7    9.522      53.893
2015    2       15     2  36    8.1077   421.0    9.526      54.012
2015    2       15     2  41    8.1170   421.2    9.531      54.133
2015    2       15     2  46    8.1255   421.5    9.536      54.256
2015    2       15     2  51    8.1349   421.7    9.542      54.380
2015    2       15     2  56    8.1439   422.0    9.548      54.504
2015    2       15     3   1    8.1531   422.2    9.554      54.630
2015    2       15     3   7    8.1624   422.5    9.561      54.760
2015    2       15     3  12    8.1718   422.7    9.568      54.895
2015    2       15     3  17    8.1812   423.0    9.575      55.033
2015    2       15     3  22    8.1907   423.3    9.582      55.175
2015    2       15     3  27    8.2003   423.6    9.589      55.319
2015    2       15     3  32    8.2099   423.9    9.596      55.466
2015    2       15     3  37    8.2195   424.2    9.603      55.617
2015    2       15     3  42    8.2291   424.4    9.609      55.769
2015    2       15     3  48    8.2387   424.8    9.616      55.923
2015    2       15     3  53    8.2482   425.1    9.622      56.079
2015    2       15     3  58    8.2577   425.4    9.627      56.234
2015    2       15     4   3    8.2670   425.7    9.632      56.390
2015    2       15     4   8    8.2763   426.0    9.637      56.547
2015    2       15     4  13    8.2854   426.3    9.641      56.703
2015    2       15     4  18    8.2943   426.6    9.644      56.861
2015    2       15     4  23    8.3031   427.0    9.646      57.019
2015    2       15     4  29    8.3114   427.3    9.648      57.175
2015    2       15     4  34    8.3200   427.6    9.649      57.329
2015    2       15     4  39    8.3282   428.0    9.649      57.481
2015    2       15     4  44    8.3362   428.3    9.649      57.631
2015    2       15     4  49    8.3440   428.6    9.648      57.779
2015    2       15     4  54    8.3517   428.9    9.646      57.925
2015    2       15     4  59    8.3593   429.3    9.644      58.070
2015    2       15     5   5    8.3667   429.6    9.641      58.213
2015    2       15     5  10    8.3741   429.9    9.637      58.354
2015    2       15     5  15    8.3813   430.3    9.633      58.494
2015    2       15     5  20    8.3884   430.6    9.629      58.633
2015    2       15     5  25    8.3954   430.9    9.624      58.770
2015    2       15     5  30    8.4024   431.3    9.619      58.907
2015    2       15     5  35    8.4093   431.6    9.613      59.042
2015    2       15     5  40    8.4161   431.9    9.607      59.177
2015    2       15     5  46    8.4230   432.3    9.601      59.310
2015    2       15     5  51    8.4299   432.6    9.595      59.444
2015    2       15     5  56    8.4368   432.9    9.588      59.576
2015    2       15     6   1    8.4436   433.3    9.581      59.708
2015    2       15     6   6    8.4504   433.6    9.574      59.839
2015    2       15     6  11    8.4572   434.0    9.567      59.970
2015    2       15     6  16    8.4641   434.3    9.559      60.101
2015    2       15     6  21    8.4709   434.7    9.552      60.230
2015    2       15     6  27    8.4778   435.0    9.544      60.360
2015    2       15     6  32    8.4846   435.4    9.536      60.489
2015    2       15     6  37    8.4915   435.7    9.528      60.617
2015    2       15     6  42    8.4984   436.1    9.520      60.746
2015    2       15     6  47    8.5052   436.4    9.512      60.874
2015    2       15     6  52    8.5120   436.8    9.504      61.002
2015    2       15     6  57    8.5189   437.1    9.496      61.129
2015    2       15     7   2    8.5257   437.5    9.488      61.257
2015    2       15     7   8    8.5324   437.8    9.479      61.384
2015    2       15     7  13    8.5392   438.2    9.471      61.510
2015    2       15     7  18    8.5459   438.5    9.462      61.637
2015    2       15     7  23    8.5527   438.9    9.453      61.763
2015    2       15     7  28    8.5593   439.3    9.444      61.889
2015    2       15     7  33    8.5660   439.6    9.435      62.015
2015    2       15     7  38    8.5726   440.0    9.426      62.141
2015    2       15     7  43    8.5791   440.4    9.417      62.267
2015    2       15     7  49    8.5856   440.7    9.407      62.394
2015    2       15     7  54    8.5920   441.1    9.397      62.522
2015    2       15     7  59    8.5983   441.5    9.388      62.650
2015    2       15     8   4    8.6046   441.9    9.378      62.778
2015    2       15     8   9    8.6107   442.2    9.368      62.906
2015    2       15     8  14    8.6167   442.6    9.357      63.033
2015    2       15     8  19    8.6226   443.0    9.347      63.160
2015    2       15     8  24    8.6284   443.4    9.337      63.287
2015    2       15     8  30    8.6341   443.7    9.326      63.414
2015    2       15     8  35    8.6397   444.1    9.316      63.541
2015    2       15     8  40    8.6453   444.5    9.306      63.668
2015    2       15     8  45    8.6508   444.9    9.295      63.796
2015    2       15     8  50    8.6561   445.2    9.285      63.923
2015    2       15     8  55    8.6615   445.6    9.275      64.052
2015    2       15     9   0    8.6667   446.0    9.265      64.180
2015    2       15     9   6    8.6722   446.4    9.255      64.309
2015    2       15     9  11    8.6774   446.7    9.245      64.438
2015    2       15     9  16    8.6827   447.1    9.236      64.567
2015    2       15     9  21    8.6879   447.5    9.227      64.697
2015    2       15     9  26    8.6931   447.8    9.218      64.828
2015    2       15     9  31    8.6983   448.2    9.209      64.961
2015    2       15     9  36    8.7035   448.6    9.201      65.094
2015    2       15     9  41    8.7087   448.9    9.192      65.229
2015    2       15     9  47    8.7140   449.3    9.185      65.367
2015    2       15     9  52    8.7193   449.7    9.177      65.507
2015    2       15     9  57    8.7245   450.1    9.170      65.650
2015    2       15    10   2    8.7299   450.4    9.164      65.795
2015    2       15    10   7    8.7352   450.8    9.158      65.941
2015    2       15    10  12    8.7406   451.2    9.152      66.087
2015    2       15    10  17    8.7460   451.6    9.148      66.235
2015    2       15    10  22    8.7515   452.0    9.143      66.387
2015    2       15    10  28    8.7569   452.3    9.139      66.543
2015    2       15    10  33    8.7619   452.7    9.135      66.701
2015    2       15    10  38    8.7677   453.1    9.131      66.862
2015    2       15    10  43    8.7730   453.5    9.127      67.024
2015    2       15    10  48    8.7777   454.0    9.124      67.189
2015    2       15    10  53    8.7829   454.4    9.120      67.356
2015    2       15    10  58    8.7885   454.8    9.116      67.524
2015    2       15    11   3    8.7935   455.2    9.113      67.693
2015    2       15    11   9    8.7983   455.6    9.108      67.862
2015    2       15    11  14    8.8030   456.1    9.104      68.031
2015    2       15    11  19    8.8075   456.5    9.099      68.199
2015    2       15    11  24    8.8114   456.9    9.094      68.366
2015    2       15    11  29    8.8161   457.4    9.088      68.534
2015    2       15    11  34    8.8201   457.8    9.082      68.702
2015    2       15    11  39    8.8239   458.3    9.075      68.871
2015    2       15    11  44    8.8275   458.8    9.067      69.038
2015    2       15    11  50    8.8309   459.2    9.059      69.204
2015    2       15    11  55    8.8341   459.7    9.050      69.367
2015    2       15    12   0    8.8371   460.2    9.041      69.528
2015    2       15    12   5    8.8399   460.6    9.031      69.687
2015    2       15    12  10    8.8426   461.1    9.020      69.844
2015    2       15    12  15    8.8451   461.6    9.009      70.000
2015    2       15    12  20    8.8475   462.1    8.998      70.153
2015    2       15    12  26    8.8498   462.6    8.986      70.305
2015    2       15    12  31    8.8519   463.1    8.973      70.455
2015    2       15    12  36    8.8540   463.6    8.960      70.603
2015    2       15    12  41    8.8560   464.1    8.947      70.749
2015    2       15    12  46    8.8580   464.6    8.933      70.895
2015    2       15    12  51    8.8598   465.1    8.919      71.038
2015    2       15    12  56    8.8615   465.6    8.904      71.180
2015    2       15    13   1    8.8632   466.1    8.890      71.321
2015    2       15    13   7    8.8648   466.6    8.874      71.460
2015    2       15    13  12    8.8662   467.1    8.859      71.597
2015    2       15    13  17    8.8676   467.6    8.842      71.732
2015    2       15    13  22    8.8688   468.2    8.826      71.867
2015    2       15    13  27    8.8700   468.7    8.809      71.998
2015    2       15    13  32    8.8710   469.2    8.792      72.127
2015    2       15    13  37    8.8719   469.7    8.774      72.253
2015    2       15    13  42    8.8726   470.3    8.756      72.377
2015    2       15    13  48    8.8732   470.8    8.738      72.497
2015    2       15    13  53    8.8736   471.3    8.719      72.616
2015    2       15    13  58    8.8741   471.8    8.701      72.732
2015    2       15    14   3    8.8743   472.4    8.682      72.846
2015    2       15    14   8    8.8745   472.9    8.663      72.959
2015    2       15    14  13    8.8738   473.4    8.644      73.070
2015    2       15    14  18    8.8746   473.9    8.625      73.180
2015    2       15    14  23    8.8745   474.5    8.606      73.289
2015    2       15    14  29    8.8743   475.0    8.587      73.398
2015    2       15    14  34    8.8741   475.5    8.567      73.507
2015    2       15    14  39    8.8737   476.1    8.548      73.617
2015    2       15    14  44    8.8732   476.6    8.528      73.726
2015    2       15    14  49    8.8717   477.1    8.509      73.837
2015    2       15    14  54    8.8719   477.7    8.489      73.949
2015    2       15    14  59    8.8710   478.2    8.469      74.063
2015    2       15    15   4    8.8700   478.8    8.448      74.178
2015    2       15    15  10    8.8688   479.3    8.427      74.295
2015    2       15    15  15    8.8664   479.9    8.406      74.412
2015    2       15    15  20    8.8656   480.5    8.384      74.529
2015    2       15    15  25    8.8635   481.0    8.362      74.645
2015    2       15    15  30    8.8611   481.6    8.339      74.762
2015    2       15    15  35    8.8584   482.1    8.316      74.879
2015    2       15    15  40    8.8554   482.7    8.292      74.995
2015    2       15    15  45    8.8511   483.3    8.268      75.108
2015    2       15    15  51    8.8484   483.8    8.243      75.217
2015    2       15    15  56    8.8444   484.3    8.218      75.325
2015    2       15    16   1    8.8392   484.9    8.193      75.430
2015    2       15    16   6    8.8357   485.4    8.168      75.532
2015    2       15    16  11    8.8310   485.9    8.142      75.632
2015    2       15    16  16    8.8250   486.5    8.117      75.730
2015    2       15    16  21    8.8199   487.0    8.092      75.825
2015    2       15    16  27    8.8146   487.5    8.067      75.919
2015    2       15    16  32    8.8103   488.0    8.042      76.012
2015    2       15    16  37    8.8048   488.5    8.017      76.106
2015    2       15    16  42    8.7993   489.0    7.992      76.200
2015    2       15    16  47    8.7937   489.5    7.968      76.295
2015    2       15    16  52    8.7881   490.0    7.944      76.389
2015    2       15    16  57    8.7825   490.5    7.920      76.485
2015    2       15    17   2    8.7758   491.0    7.897      76.583
2015    2       15    17   8    8.7711   491.5    7.873      76.683
2015    2       15    17  13    8.7654   492.1    7.850      76.785
2015    2       15    17  18    8.7586   492.6    7.828      76.890
2015    2       15    17  23    8.7539   493.1    7.805      76.996
2015    2       15    17  28    8.7481   493.6    7.783      77.104
2015    2       15    17  33    8.7422   494.1    7.760      77.212
2015    2       15    17  38    8.7362   494.7    7.738      77.320
2015    2       15    17  43    8.7302   495.2    7.716      77.428
2015    2       15    17  49    8.7240   495.7    7.694      77.535
2015    2       15    17  54    8.7179   496.2    7.672      77.642
2015    2       15    17  59    8.7115   496.8    7.650      77.747
2015    2       15    18   4    8.7051   497.3    7.628      77.851
2015    2       15    18   9    8.6986   497.8    7.606      77.954
2015    2       15    18  14    8.6920   498.3    7.585      78.055
2015    2       15    18  19    8.6853   498.8    7.563      78.153
2015    2       15    18  24    8.6785   499.3    7.541      78.248
2015    2       15    18  30    8.6715   499.9    7.519      78.342
2015    2       15    18  35    8.6645   500.4    7.497      78.433
2015    2       15    18  40    8.6574   500.9    7.476      78.521
2015    2       15    18  45    8.6490   501.4    7.454      78.608
2015    2       15    18  50    8.6429   501.9    7.433      78.692
2015    2       15    18  55    8.6356   502.4    7.411      78.775
2015    2       15    19   0    8.6281   502.9    7.390      78.855
2015    2       15    19   5    8.6206   503.3    7.369      78.933
2015    2       15    19  11    8.6129   503.8    7.348      79.008
2015    2       15    19  16    8.6053   504.3    7.327      79.082
2015    2       15    19  21    8.5975   504.8    7.306      79.154
2015    2       15    19  26    8.5897   505.3    7.285      79.224
2015    2       15    19  31    8.5818   505.8    7.265      79.293
2015    2       15    19  36    8.5740   506.3    7.245      79.359
2015    2       15    19  41    8.5661   506.7    7.224      79.424
2015    2       15    19  47    8.5581   507.2    7.204      79.488
2015    2       15    19  52    8.5502   507.7    7.185      79.550
2015    2       15    19  57    8.5411   508.2    7.165      79.610
2015    2       15    20   2    8.5342   508.7    7.145      79.669
2015    2       15    20   7    8.5262   509.1    7.126      79.727
2015    2       15    20  12    8.5170   509.6    7.106      79.783
2015    2       15    20  17    8.5101   510.1    7.086      79.838
2015    2       15    20  22    8.5019   510.6    7.067      79.891
2015    2       15    20  28    8.4937   511.1    7.047      79.942
2015    2       15    20  33    8.4853   511.6    7.028      79.992
2015    2       15    20  38    8.4769   512.1    7.008      80.039
2015    2       15    20  43    8.4672   512.6    6.988      80.084
2015    2       15    20  48    8.4598   513.0    6.967      80.125
2015    2       15    20  53    8.4510   513.5    6.947      80.163
2015    2       15    20  58    8.4421   514.0    6.927      80.197
2015    2       15    21   3    8.4330   514.5    6.906      80.228
2015    2       15    21   9    8.4239   515.0    6.886      80.255
2015    2       15    21  14    8.4135   515.5    6.865      80.280
2015    2       15    21  19    8.4054   516.0    6.845      80.301
2015    2       15    21  24    8.3960   516.4    6.824      80.321
2015    2       15    21  29    8.3865   516.9    6.804      80.338
2015    2       15    21  34    8.3770   517.4    6.783      80.354
2015    2       15    21  39    8.3674   517.9    6.763      80.369
2015    2       15    21  44    8.3577   518.3    6.743      80.384
2015    2       15    21  50    8.3481   518.8    6.722      80.399
2015    2       15    21  55    8.3383   519.3    6.702      80.415
2015    2       15    22   0    8.3285   519.8    6.683      80.430
2015    2       15    22   5    8.3186   520.3    6.663      80.447
2015    2       15    22  10    8.3087   520.8    6.643      80.466
2015    2       15    22  15    8.2974   521.2    6.623      80.487
2015    2       15    22  20    8.2873   521.7    6.603      80.509
2015    2       15    22  25    8.2782   522.2    6.584      80.532
2015    2       15    22  31    8.2679   522.7    6.564      80.556
2015    2       15    22  36    8.2573   523.2    6.543      80.580
2015    2       15    22  41    8.2465   523.7    6.523      80.604
2015    2       15    22  46    8.2355   524.2    6.502      80.627
2015    2       15    22  51    8.2243   524.7    6.481      80.652
2015    2       15    22  56    8.2128   525.2    6.460      80.676
2015    2       15    23   1    8.2012   525.7    6.438      80.698
2015    2       15    23   7    8.1891   526.2    6.416      80.714
2015    2       15    23  12    8.1757   526.7    6.393      80.725
2015    2       15    23  17    8.1642   527.2    6.370      80.730
2015    2       15    23  22    8.1513   527.6    6.347      80.729
2015    2       15    23  27    8.1381   528.1    6.324      80.724
2015    2       15    23  32    8.1248   528.5    6.300      80.713
2015    2       15    23  37    8.1112   529.0    6.277      80.696
2015    2       15    23  42    8.0975   529.4    6.253      80.675
2015    2       15    23  48    8.0836   529.9    6.230      80.650
2015    2       15    23  53    8.0696   530.3    6.206      80.620
2015    2       15    23  58    8.0556   530.7    6.183      80.588
2015    2       16     0   3    8.0415   531.1    6.160      80.553
2015    2       16     0   8    8.0273   531.6    6.137      80.515
2015    2       16     0  13    8.0133   532.0    6.115      80.474
2015    2       16     0  18    7.9992   532.3    6.093      80.429
2015    2       16     0  23    7.9852   532.7    6.072      80.383
2015    2       16     0  29    7.9714   533.1    6.051      80.339
2015    2       16     0  34    7.9577   533.5    6.030      80.296
2015    2       16     0  39    7.9441   533.8    6.010      80.254
2015    2       16     0  44    7.9307   534.2    5.990      80.213
2015    2       16     0  49    7.9174   534.6    5.971      80.172
2015    2       16     0  54    7.9043   534.9    5.952      80.132
2015    2       16     0  59    7.8913   535.3    5.933      80.093
2015    2       16     1   4    7.8784   535.6    5.915      80.055
2015    2       16     1  10    7.8656   536.0    5.898      80.019
2015    2       16     1  15    7.8531   536.3    5.880      79.984
2015    2       16     1  20    7.8406   536.6    5.863      79.951
2015    2       16     1  25    7.8283   536.9    5.847      79.920
2015    2       16     1  30    7.8160   537.2    5.831      79.891
2015    2       16     1  35    7.8040   537.5    5.815      79.864
2015    2       16     1  40    7.7920   537.8    5.799      79.838
2015    2       16     1  45    7.7801   538.2    5.784      79.814
2015    2       16     1  51    7.7683   538.5    5.769      79.791
2015    2       16     1  56    7.7565   538.8    5.754      79.769
2015    2       16     2   1    7.7448   539.1    5.739      79.749
2015    2       16     2   6    7.7331   539.4    5.725      79.730
2015    2       16     2  11    7.7214   539.8    5.710      79.712
2015    2       16     2  16    7.7097   540.1    5.695      79.694
2015    2       16     2  21    7.6979   540.4    5.681      79.676
2015    2       16     2  27    7.6861   540.8    5.666      79.657
2015    2       16     2  32    7.6741   541.1    5.651      79.637
2015    2       16     2  37    7.6620   541.4    5.636      79.613
2015    2       16     2  42    7.6497   541.8    5.621      79.586
2015    2       16     2  47    7.6368   542.1    5.605      79.554
2015    2       16     2  52    7.6249   542.4    5.590      79.519
2015    2       16     2  57    7.6124   542.7    5.575      79.479
2015    2       16     3   2    7.5992   543.0    5.559      79.434
2015    2       16     3   8    7.5870   543.2    5.544      79.385
2015    2       16     3  13    7.5737   543.5    5.528      79.329
2015    2       16     3  18    7.5613   543.8    5.513      79.269
2015    2       16     3  23    7.5484   544.1    5.497      79.205
2015    2       16     3  28    7.5355   544.3    5.482      79.136
2015    2       16     3  33    7.5226   544.6    5.466      79.064
2015    2       16     3  38    7.5097   544.8    5.451      78.990
2015    2       16     3  43    7.4968   545.1    5.436      78.913
2015    2       16     3  49    7.4836   545.3    5.421      78.834
2015    2       16     3  54    7.4711   545.6    5.407      78.755
2015    2       16     3  59    7.4579   545.8    5.392      78.675
2015    2       16     4   4    7.4455   546.0    5.378      78.596
2015    2       16     4   9    7.4328   546.2    5.364      78.516
2015    2       16     4  14    7.4199   546.4    5.350      78.437
2015    2       16     4  19    7.4076   546.6    5.336      78.358
2015    2       16     4  24    7.3951   546.9    5.323      78.281
2015    2       16     4  30    7.3826   547.1    5.310      78.204
2015    2       16     4  35    7.3703   547.3    5.297      78.129
2015    2       16     4  40    7.3580   547.5    5.284      78.054
2015    2       16     4  45    7.3458   547.7    5.272      77.979
2015    2       16     4  50    7.3336   547.9    5.260      77.905
2015    2       16     4  55    7.3215   548.1    5.248      77.832
2015    2       16     5   0    7.3095   548.3    5.236      77.759
2015    2       16     5   6    7.2974   548.5    5.224      77.687
2015    2       16     5  11    7.2853   548.7    5.213      77.615
2015    2       16     5  16    7.2735   548.9    5.202      77.543
2015    2       16     5  21    7.2615   549.1    5.191      77.472
2015    2       16     5  26    7.2496   549.3    5.180      77.402
2015    2       16     5  31    7.2376   549.5    5.169      77.331
2015    2       16     5  36    7.2257   549.7    5.159      77.261
2015    2       16     5  41    7.2138   549.9    5.148      77.190
2015    2       16     5  47    7.2019   550.1    5.138      77.120
2015    2       16     5  52    7.1900   550.2    5.128      77.050
2015    2       16     5  57    7.1781   550.4    5.118      76.980
2015    2       16     6   2    7.1661   550.6    5.108      76.911
2015    2       16     6   7    7.1542   550.8    5.098      76.841
2015    2       16     6  12    7.1423   551.0    5.088      76.772
2015    2       16     6  17    7.1304   551.1    5.078      76.703
2015    2       16     6  22    7.1185   551.3    5.068      76.633
2015    2       16     6  28    7.1069   551.5    5.058      76.563
2015    2       16     6  33    7.0948   551.6    5.049      76.493
2015    2       16     6  38    7.0830   551.8    5.039      76.422
2015    2       16     6  43    7.0712   551.9    5.029      76.352
2015    2       16     6  48    7.0594   552.1    5.020      76.282
2015    2       16     6  53    7.0476   552.2    5.010      76.211
2015    2       16     6  58    7.0359   552.4    5.001      76.141
2015    2       16     7   3    7.0242   552.5    4.992      76.070
2015    2       16     7   9    7.0125   552.6    4.983      75.998
2015    2       16     7  14    7.0011   552.8    4.973      75.927
2015    2       16     7  19    6.9892   552.9    4.964      75.855
2015    2       16     7  24    6.9776   553.0    4.955      75.783
2015    2       16     7  29    6.9664   553.2    4.946      75.711
2015    2       16     7  34    6.9544   553.3    4.937      75.638
2015    2       16     7  39    6.9434   553.4    4.928      75.566
2015    2       16     7  45    6.9319   553.6    4.920      75.494
2015    2       16     7  50    6.9206   553.7    4.911      75.421
2015    2       16     7  55    6.9092   553.8    4.902      75.349
2015    2       16     8   0    6.8979   553.9    4.894      75.275
2015    2       16     8   5    6.8861   554.1    4.885      75.202
2015    2       16     8  10    6.8755   554.2    4.876      75.128
2015    2       16     8  15    6.8643   554.3    4.868      75.054
2015    2       16     8  20    6.8533   554.4    4.859      74.981
2015    2       16     8  26    6.8418   554.5    4.851      74.907
2015    2       16     8  31    6.8315   554.6    4.843      74.835
2015    2       16     8  36    6.8201   554.8    4.834      74.763
2015    2       16     8  41    6.8094   554.9    4.826      74.692
2015    2       16     8  46    6.7993   555.0    4.818      74.622
2015    2       16     8  51    6.7888   555.0    4.810      74.553
2015    2       16     8  56    6.7778   555.1    4.803      74.484
2015    2       16     9   1    6.7675   555.2    4.795      74.417
2015    2       16     9   7    6.7572   555.3    4.787      74.351
2015    2       16     9  12    6.7470   555.4    4.780      74.285
2015    2       16     9  17    6.7369   555.5    4.772      74.220
2015    2       16     9  22    6.7269   555.5    4.765      74.156
2015    2       16     9  27    6.7169   555.6    4.758      74.092
2015    2       16     9  32    6.7071   555.7    4.751      74.028
2015    2       16     9  37    6.6972   555.8    4.743      73.965
2015    2       16     9  42    6.6874   555.9    4.736      73.901
2015    2       16     9  48    6.6777   556.0    4.729      73.837
2015    2       16     9  53    6.6679   556.1    4.722      73.773
2015    2       16     9  58    6.6582   556.2    4.715      73.708
2015    2       16    10   3    6.6484   556.3    4.708      73.643
2015    2       16    10   8    6.6387   556.4    4.700      73.576
2015    2       16    10  13    6.6290   556.5    4.693      73.509
2015    2       16    10  18    6.6193   556.6    4.686      73.442
2015    2       16    10  24    6.6096   556.7    4.679      73.373
2015    2       16    10  29    6.5999   556.8    4.671      73.303
2015    2       16    10  34    6.5903   556.9    4.664      73.232
2015    2       16    10  39    6.5811   557.0    4.657      73.160
2015    2       16    10  44    6.5710   557.1    4.649      73.087
2015    2       16    10  49    6.5619   557.1    4.642      73.013
2015    2       16    10  54    6.5519   557.2    4.634      72.940
2015    2       16    10  59    6.5424   557.3    4.627      72.865
2015    2       16    11   5    6.5329   557.4    4.620      72.791
2015    2       16    11  10    6.5235   557.5    4.613      72.716
2015    2       16    11  15    6.5146   557.5    4.605      72.642
2015    2       16    11  20    6.5048   557.6    4.598      72.568
2015    2       16    11  25    6.4959   557.6    4.591      72.495
2015    2       16    11  30    6.4862   557.7    4.584      72.423
2015    2       16    11  35    6.4770   557.8    4.577      72.350
2015    2       16    11  40    6.4679   557.8    4.571      72.279
2015    2       16    11  46    6.4593   557.9    4.564      72.209
2015    2       16    11  51    6.4498   557.9    4.558      72.139
2015    2       16    11  56    6.4409   558.0    4.552      72.069
2015    2       16    12   1    6.4319   558.0    4.545      71.999
2015    2       16    12   6    6.4230   558.1    4.540      71.929
2015    2       16    12  11    6.4142   558.2    4.534      71.858
2015    2       16    12  16    6.4054   558.2    4.528      71.788
2015    2       16    12  21    6.3971   558.3    4.522      71.717
2015    2       16    12  27    6.3878   558.4    4.516      71.646
2015    2       16    12  32    6.3790   558.4    4.511      71.575
2015    2       16    12  37    6.3707   558.5    4.505      71.502
2015    2       16    12  42    6.3615   558.6    4.500      71.430
2015    2       16    12  47    6.3527   558.7    4.494      71.357
2015    2       16    12  52    6.3440   558.7    4.489      71.283
2015    2       16    12  57    6.3352   558.8    4.484      71.209
2015    2       16    13   3    6.3265   558.8    4.478      71.135
2015    2       16    13   8    6.3177   558.9    4.473      71.061
2015    2       16    13  13    6.3090   559.0    4.468      70.987
2015    2       16    13  18    6.3007   559.0    4.462      70.913
2015    2       16    13  23    6.2915   559.1    4.457      70.838
2015    2       16    13  28    6.2828   559.1    4.452      70.764
2015    2       16    13  33    6.2741   559.2    4.447      70.689
2015    2       16    13  38    6.2655   559.2    4.441      70.615
2015    2       16    13  44    6.2573   559.2    4.436      70.542
2015    2       16    13  49    6.2487   559.3    4.431      70.469
2015    2       16    13  54    6.2396   559.3    4.426      70.396
2015    2       16    13  59    6.2310   559.4    4.421      70.324
2015    2       16    14   4    6.2225   559.4    4.416      70.252
2015    2       16    14   9    6.2140   559.4    4.411      70.181
2015    2       16    14  14    6.2055   559.4    4.406      70.110
2015    2       16    14  19    6.1971   559.5    4.401      70.040
2015    2       16    14  25    6.1892   559.5    4.396      69.971
2015    2       16    14  30    6.1803   559.5    4.392      69.902
2015    2       16    14  35    6.1720   559.5    4.387      69.834
2015    2       16    14  40    6.1643   559.5    4.383      69.767
2015    2       16    14  45    6.1555   559.5    4.378      69.701
2015    2       16    14  50    6.1474   559.5    4.374      69.635
2015    2       16    14  55    6.1392   559.5    4.369      69.571
2015    2       16    15   0    6.1316   559.5    4.365      69.508
2015    2       16    15   6    6.1230   559.5    4.361      69.446
2015    2       16    15  11    6.1150   559.5    4.357      69.385
2015    2       16    15  16    6.1071   559.5    4.352      69.325
2015    2       16    15  21    6.0997   559.5    4.348      69.266
2015    2       16    15  26    6.0912   559.5    4.344      69.208
2015    2       16    15  31    6.0834   559.5    4.340      69.150
2015    2       16    15  36    6.0757   559.5    4.336      69.094
2015    2       16    15  42    6.0685   559.5    4.332      69.038
2015    2       16    15  47    6.0607   559.5    4.328      68.982
2015    2       16    15  52    6.0526   559.4    4.324      68.927
2015    2       16    15  57    6.0455   559.4    4.320      68.871
2015    2       16    16   2    6.0379   559.4    4.316      68.816
2015    2       16    16   7    6.0299   559.4    4.312      68.761
2015    2       16    16  12    6.0229   559.4    4.308      68.706
2015    2       16    16  17    6.0155   559.3    4.304      68.651
2015    2       16    16  23    6.0076   559.3    4.300      68.596
2015    2       16    16  28    6.0007   559.3    4.296      68.541
2015    2       16    16  33    5.9934   559.3    4.292      68.485
2015    2       16    16  38    5.9855   559.2    4.288      68.430
2015    2       16    16  43    5.9783   559.2    4.284      68.373
2015    2       16    16  48    5.9711   559.2    4.280      68.316
2015    2       16    16  53    5.9643   559.1    4.276      68.258
2015    2       16    16  58    5.9567   559.1    4.272      68.200
2015    2       16    17   4    5.9496   559.1    4.267      68.141
2015    2       16    17   9    5.9424   559.0    4.263      68.081
2015    2       16    17  14    5.9354   559.0    4.259      68.021
2015    2       16    17  19    5.9283   559.0    4.255      67.961
2015    2       16    17  24    5.9217   558.9    4.251      67.900
2015    2       16    17  29    5.9143   558.9    4.247      67.838
2015    2       16    17  34    5.9078   558.9    4.242      67.776
2015    2       16    17  39    5.9004   558.8    4.238      67.714
2015    2       16    17  45    5.8935   558.8    4.234      67.651
2015    2       16    17  50    5.8871   558.8    4.230      67.588
2015    2       16    17  55    5.8803   558.7    4.226      67.525
2015    2       16    18   0    5.8735   558.7    4.222      67.461
2015    2       16    18   5    5.8663   558.6    4.218      67.397
2015    2       16    18  10    5.8596   558.6    4.214      67.332
2015    2       16    18  15    5.8529   558.5    4.210      67.267
2015    2       16    18  21    5.8467   558.5    4.206      67.201
2015    2       16    18  26    5.8396   558.5    4.202      67.135
2015    2       16    18  31    5.8334   558.4    4.198      67.068
2015    2       16    18  36    5.8265   558.4    4.194      67.001
2015    2       16    18  41    5.8200   558.3    4.190      66.933
2015    2       16    18  46    5.8139   558.3    4.186      66.864
2015    2       16    18  51    5.8070   558.2    4.183      66.795
2015    2       16    18  56    5.8006   558.2    4.179      66.726
2015    2       16    19   2    5.7946   558.1    4.175      66.656
2015    2       16    19   7    5.7882   558.1    4.171      66.585
2015    2       16    19  12    5.7814   558.1    4.168      66.513
2015    2       16    19  17    5.7751   558.0    4.164      66.442
2015    2       16    19  22    5.7688   558.0    4.161      66.370
2015    2       16    19  27    5.7625   557.9    4.157      66.297
2015    2       16    19  32    5.7562   557.9    4.154      66.224
2015    2       16    19  37    5.7499   557.8    4.150      66.151
2015    2       16    19  43    5.7437   557.7    4.147      66.078
2015    2       16    19  48    5.7374   557.7    4.143      66.005
2015    2       16    19  53    5.7312   557.6    4.140      65.931
2015    2       16    19  58    5.7250   557.6    4.137      65.858
2015    2       16    20   3    5.7188   557.5    4.134      65.784
2015    2       16    20   8    5.7127   557.5    4.131      65.711
2015    2       16    20  13    5.7066   557.4    4.127      65.637
2015    2       16    20  18    5.7005   557.3    4.124      65.564
2015    2       16    20  24    5.6944   557.3    4.121      65.491
2015    2       16    20  29    5.6883   557.2    4.118      65.418
2015    2       16    20  34    5.6822   557.1    4.115      65.346
2015    2       16    20  39    5.6762   557.1    4.112      65.274
2015    2       16    20  44    5.6705   557.0    4.110      65.202
2015    2       16    20  49    5.6646   556.9    4.107      65.131
2015    2       16    20  54    5.6586   556.9    4.104      65.061
2015    2       16    21   0    5.6525   556.8    4.102      64.991
2015    2       16    21   5    5.6466   556.7    4.099      64.921
2015    2       16    21  10    5.6408   556.7    4.096      64.853
2015    2       16    21  15    5.6350   556.6    4.094      64.785
2015    2       16    21  20    5.6293   556.5    4.092      64.718
2015    2       16    21  25    5.6239   556.4    4.089      64.652
2015    2       16    21  30    5.6180   556.4    4.087      64.588
2015    2       16    21  35    5.6123   556.3    4.085      64.524
2015    2       16    21  41    5.6068   556.2    4.083      64.461
2015    2       16    21  46    5.6013   556.1    4.081      64.400
2015    2       16    21  51    5.5958   556.1    4.079      64.340
2015    2       16    21  56    5.5904   556.0    4.077      64.281
2015    2       16    22   1    5.5850   555.9    4.076      64.224
2015    2       16    22   6    5.5799   555.8    4.074      64.167
2015    2       16    22  11    5.5744   555.7    4.072      64.112
2015    2       16    22  16    5.5691   555.7    4.071      64.058
2015    2       16    22  22    5.5641   555.6    4.070      64.006
2015    2       16    22  27    5.5587   555.5    4.068      63.955
2015    2       16    22  32    5.5535   555.4    4.067      63.905
2015    2       16    22  37    5.5483   555.3    4.066      63.857
2015    2       16    22  42    5.5435   555.3    4.065      63.809
2015    2       16    22  47    5.5381   555.2    4.064      63.763
2015    2       16    22  52    5.5330   555.1    4.063      63.718
2015    2       16    22  57    5.5278   555.0    4.062      63.674
2015    2       16    23   3    5.5227   554.9    4.061      63.630
2015    2       16    23   8    5.5176   554.9    4.060      63.588
2015    2       16    23  13    5.5125   554.8    4.059      63.546
2015    2       16    23  18    5.5074   554.7    4.058      63.504
2015    2       16    23  23    5.5023   554.6    4.057      63.463
2015    2       16    23  28    5.4972   554.5    4.056      63.422
2015    2       16    23  33    5.4921   554.4    4.055      63.380
2015    2       16    23  39    5.4870   554.3    4.054      63.339
2015    2       16    23  44    5.4819   554.2    4.053      63.297
2015    2       16    23  49    5.4771   554.1    4.051      63.254
2015    2       16    23  54    5.4720   554.0    4.050      63.212
2015    2       16    23  59    5.4669   553.9    4.049      63.168
2015    2       17     0   4    5.4619   553.8    4.047      63.125
