year    month   day   hour  minute  B_enl V_enl   n_enl       T_enl
[year] [month] [day] [hour][minute] [nT]  [km/s]  [cm-3]      [kK]
2015    4        1     0   3    6.1017   586.7    4.803      65.353
2015    4        1     0   8    6.0981   587.1    4.795      65.383
2015    4        1     0  14    6.0945   587.4    4.787      65.412
2015    4        1     0  20    6.0910   587.8    4.779      65.441
2015    4        1     0  26    6.0874   588.1    4.771      65.470
2015    4        1     0  32    6.0838   588.4    4.763      65.498
2015    4        1     0  37    6.0802   588.8    4.756      65.526
2015    4        1     0  43    6.0766   589.1    4.748      65.554
2015    4        1     0  49    6.0730   589.5    4.740      65.582
2015    4        1     0  55    6.0694   589.8    4.732      65.610
2015    4        1     1   1    6.0658   590.2    4.724      65.637
2015    4        1     1   6    6.0622   590.5    4.716      65.664
2015    4        1     1  12    6.0586   590.8    4.708      65.691
2015    4        1     1  18    6.0550   591.2    4.700      65.719
2015    4        1     1  24    6.0514   591.5    4.692      65.746
2015    4        1     1  30    6.0477   591.9    4.685      65.773
2015    4        1     1  35    6.0441   592.2    4.677      65.800
2015    4        1     1  41    6.0405   592.6    4.669      65.827
2015    4        1     1  47    6.0369   592.9    4.661      65.853
2015    4        1     1  53    6.0333   593.2    4.653      65.880
2015    4        1     1  59    6.0296   593.6    4.646      65.907
2015    4        1     2   4    6.0260   593.9    4.638      65.933
2015    4        1     2  10    6.0224   594.3    4.630      65.960
2015    4        1     2  16    6.0187   594.6    4.622      65.986
2015    4        1     2  22    6.0151   594.9    4.615      66.012
2015    4        1     2  28    6.0114   595.3    4.607      66.038
2015    4        1     2  33    6.0078   595.6    4.600      66.064
2015    4        1     2  39    6.0041   596.0    4.592      66.091
2015    4        1     2  45    6.0005   596.3    4.585      66.117
2015    4        1     2  51    5.9968   596.6    4.577      66.143
2015    4        1     2  57    5.9931   597.0    4.570      66.169
2015    4        1     3   2    5.9895   597.3    4.562      66.195
2015    4        1     3   8    5.9859   597.7    4.555      66.221
2015    4        1     3  14    5.9822   598.0    4.548      66.247
2015    4        1     3  20    5.9786   598.3    4.540      66.273
2015    4        1     3  26    5.9749   598.7    4.533      66.299
2015    4        1     3  31    5.9713   599.0    4.526      66.325
2015    4        1     3  37    5.9677   599.3    4.518      66.350
2015    4        1     3  43    5.9641   599.7    4.511      66.376
2015    4        1     3  49    5.9604   600.0    4.504      66.401
2015    4        1     3  55    5.9569   600.3    4.497      66.426
2015    4        1     4   0    5.9533   600.7    4.490      66.451
2015    4        1     4   6    5.9497   601.0    4.482      66.476
2015    4        1     4  12    5.9461   601.3    4.475      66.501
2015    4        1     4  18    5.9425   601.7    4.468      66.526
2015    4        1     4  24    5.9390   602.0    4.461      66.551
2015    4        1     4  29    5.9354   602.3    4.454      66.575
2015    4        1     4  35    5.9319   602.6    4.447      66.600
2015    4        1     4  41    5.9284   603.0    4.440      66.624
2015    4        1     4  47    5.9248   603.3    4.433      66.648
2015    4        1     4  53    5.9213   603.6    4.426      66.672
2015    4        1     4  59    5.9178   604.0    4.419      66.696
2015    4        1     5   4    5.9143   604.3    4.412      66.720
2015    4        1     5  10    5.9108   604.6    4.405      66.743
2015    4        1     5  16    5.9074   604.9    4.398      66.767
2015    4        1     5  22    5.9039   605.3    4.391      66.791
2015    4        1     5  28    5.9004   605.6    4.384      66.814
2015    4        1     5  33    5.8970   605.9    4.377      66.838
2015    4        1     5  39    5.8935   606.2    4.370      66.862
2015    4        1     5  45    5.8901   606.6    4.363      66.886
2015    4        1     5  51    5.8866   606.9    4.356      66.910
2015    4        1     5  57    5.8832   607.2    4.350      66.934
2015    4        1     6   2    5.8797   607.5    4.343      66.958
2015    4        1     6   8    5.8763   607.9    4.336      66.982
2015    4        1     6  14    5.8728   608.2    4.330      67.007
2015    4        1     6  20    5.8694   608.5    4.323      67.031
2015    4        1     6  26    5.8660   608.8    4.316      67.056
2015    4        1     6  31    5.8625   609.1    4.310      67.081
2015    4        1     6  37    5.8591   609.5    4.303      67.106
2015    4        1     6  43    5.8556   609.8    4.297      67.131
2015    4        1     6  49    5.8521   610.1    4.290      67.156
2015    4        1     6  55    5.8487   610.4    4.284      67.180
2015    4        1     7   0    5.8452   610.7    4.277      67.205
2015    4        1     7   6    5.8417   611.1    4.271      67.230
2015    4        1     7  12    5.8382   611.4    4.264      67.255
2015    4        1     7  18    5.8347   611.7    4.258      67.279
2015    4        1     7  24    5.8312   612.0    4.252      67.303
2015    4        1     7  29    5.8277   612.3    4.245      67.327
2015    4        1     7  35    5.8241   612.7    4.239      67.350
2015    4        1     7  41    5.8206   613.0    4.232      67.374
2015    4        1     7  47    5.8170   613.3    4.226      67.397
2015    4        1     7  52    5.8135   613.6    4.219      67.419
2015    4        1     7  58    5.8099   613.9    4.213      67.441
2015    4        1     8   4    5.8064   614.2    4.206      67.463
2015    4        1     8  10    5.8028   614.6    4.200      67.485
2015    4        1     8  16    5.7992   614.9    4.193      67.506
2015    4        1     8  21    5.7957   615.2    4.187      67.527
2015    4        1     8  27    5.7921   615.5    4.180      67.548
2015    4        1     8  33    5.7885   615.8    4.174      67.569
2015    4        1     8  39    5.7850   616.1    4.167      67.590
2015    4        1     8  45    5.7814   616.4    4.161      67.611
2015    4        1     8  50    5.7778   616.8    4.155      67.631
2015    4        1     8  56    5.7742   617.1    4.148      67.652
2015    4        1     9   2    5.7707   617.4    4.142      67.673
2015    4        1     9   8    5.7671   617.7    4.136      67.693
2015    4        1     9  14    5.7635   618.0    4.130      67.714
2015    4        1     9  19    5.7599   618.3    4.123      67.735
2015    4        1     9  25    5.7564   618.6    4.117      67.756
2015    4        1     9  31    5.7528   618.9    4.111      67.777
2015    4        1     9  37    5.7492   619.2    4.105      67.798
2015    4        1     9  43    5.7457   619.5    4.099      67.819
2015    4        1     9  48    5.7421   619.8    4.093      67.840
2015    4        1     9  54    5.7386   620.1    4.087      67.862
2015    4        1    10   0    5.7350   620.4    4.081      67.883
2015    4        1    10   6    5.7315   620.8    4.075      67.904
2015    4        1    10  12    5.7280   621.1    4.069      67.925
2015    4        1    10  18    5.7245   621.4    4.063      67.947
2015    4        1    10  23    5.7209   621.7    4.057      67.968
2015    4        1    10  29    5.7174   622.0    4.051      67.989
2015    4        1    10  35    5.7139   622.3    4.045      68.010
2015    4        1    10  41    5.7104   622.6    4.039      68.031
2015    4        1    10  47    5.7069   622.9    4.034      68.051
2015    4        1    10  52    5.7034   623.2    4.028      68.071
2015    4        1    10  58    5.6999   623.5    4.022      68.091
2015    4        1    11   4    5.6964   623.8    4.016      68.111
2015    4        1    11  10    5.6930   624.1    4.010      68.130
2015    4        1    11  16    5.6895   624.4    4.004      68.150
2015    4        1    11  21    5.6860   624.7    3.998      68.169
2015    4        1    11  27    5.6825   625.0    3.992      68.187
2015    4        1    11  33    5.6791   625.3    3.987      68.206
2015    4        1    11  39    5.6756   625.5    3.981      68.224
2015    4        1    11  45    5.6722   625.8    3.975      68.242
2015    4        1    11  50    5.6687   626.1    3.969      68.260
2015    4        1    11  56    5.6653   626.4    3.963      68.277
2015    4        1    12   2    5.6619   626.7    3.957      68.294
2015    4        1    12   8    5.6584   627.0    3.951      68.312
2015    4        1    12  14    5.6550   627.3    3.946      68.329
2015    4        1    12  19    5.6516   627.6    3.940      68.347
2015    4        1    12  25    5.6482   627.9    3.934      68.364
2015    4        1    12  31    5.6448   628.2    3.929      68.381
2015    4        1    12  37    5.6413   628.5    3.923      68.399
2015    4        1    12  43    5.6379   628.8    3.917      68.416
2015    4        1    12  48    5.6345   629.0    3.912      68.434
2015    4        1    12  54    5.6311   629.3    3.906      68.452
2015    4        1    13   0    5.6277   629.6    3.901      68.469
2015    4        1    13   6    5.6243   629.9    3.895      68.487
2015    4        1    13  12    5.6208   630.2    3.890      68.505
2015    4        1    13  17    5.6174   630.5    3.884      68.523
2015    4        1    13  23    5.6140   630.8    3.879      68.541
2015    4        1    13  29    5.6106   631.0    3.874      68.560
2015    4        1    13  35    5.6071   631.3    3.868      68.578
2015    4        1    13  41    5.6037   631.6    3.863      68.596
2015    4        1    13  46    5.6002   631.9    3.858      68.614
2015    4        1    13  52    5.5968   632.2    3.852      68.632
2015    4        1    13  58    5.5933   632.5    3.847      68.649
2015    4        1    14   4    5.5898   632.7    3.842      68.667
2015    4        1    14  10    5.5863   633.0    3.837      68.684
2015    4        1    14  15    5.5828   633.3    3.831      68.702
2015    4        1    14  21    5.5793   633.6    3.826      68.719
2015    4        1    14  27    5.5758   633.9    3.821      68.736
2015    4        1    14  33    5.5723   634.1    3.815      68.752
2015    4        1    14  39    5.5688   634.4    3.810      68.768
2015    4        1    14  44    5.5653   634.7    3.805      68.784
2015    4        1    14  50    5.5617   635.0    3.800      68.800
2015    4        1    14  56    5.5582   635.3    3.794      68.816
2015    4        1    15   2    5.5547   635.5    3.789      68.831
2015    4        1    15   8    5.5512   635.8    3.784      68.847
2015    4        1    15  13    5.5477   636.1    3.779      68.862
2015    4        1    15  19    5.5442   636.3    3.773      68.877
2015    4        1    15  25    5.5407   636.6    3.768      68.892
2015    4        1    15  31    5.5371   636.9    3.763      68.907
2015    4        1    15  37    5.5337   637.1    3.758      68.922
2015    4        1    15  42    5.5302   637.4    3.753      68.937
2015    4        1    15  48    5.5267   637.7    3.748      68.952
2015    4        1    15  54    5.5232   637.9    3.742      68.967
2015    4        1    16   0    5.5198   638.2    3.737      68.982
2015    4        1    16   6    5.5163   638.5    3.732      68.997
2015    4        1    16  11    5.5129   638.7    3.727      69.012
2015    4        1    16  17    5.5094   639.0    3.722      69.027
2015    4        1    16  23    5.5060   639.3    3.718      69.042
2015    4        1    16  29    5.5026   639.5    3.713      69.058
2015    4        1    16  35    5.4992   639.8    3.708      69.072
2015    4        1    16  40    5.4957   640.0    3.703      69.087
2015    4        1    16  46    5.4923   640.3    3.698      69.102
2015    4        1    16  52    5.4889   640.6    3.693      69.116
2015    4        1    16  58    5.4855   640.8    3.688      69.130
2015    4        1    17   4    5.4822   641.1    3.684      69.144
2015    4        1    17   9    5.4788   641.3    3.679      69.157
2015    4        1    17  15    5.4754   641.6    3.674      69.170
2015    4        1    17  21    5.4721   641.8    3.669      69.182
2015    4        1    17  27    5.4687   642.1    3.664      69.195
2015    4        1    17  33    5.4653   642.3    3.659      69.206
2015    4        1    17  38    5.4620   642.6    3.655      69.218
2015    4        1    17  44    5.4586   642.8    3.650      69.229
2015    4        1    17  50    5.4553   643.1    3.645      69.239
2015    4        1    17  56    5.4519   643.3    3.640      69.250
2015    4        1    18   2    5.4486   643.6    3.635      69.260
2015    4        1    18   7    5.4452   643.8    3.630      69.270
2015    4        1    18  13    5.4419   644.1    3.626      69.279
2015    4        1    18  19    5.4386   644.3    3.621      69.289
2015    4        1    18  25    5.4353   644.6    3.616      69.298
2015    4        1    18  31    5.4319   644.8    3.611      69.308
2015    4        1    18  36    5.4286   645.1    3.607      69.317
2015    4        1    18  42    5.4253   645.3    3.602      69.326
2015    4        1    18  48    5.4220   645.6    3.597      69.336
2015    4        1    18  54    5.4187   645.8    3.593      69.345
2015    4        1    19   0    5.4153   646.1    3.588      69.354
2015    4        1    19   5    5.4120   646.3    3.583      69.364
2015    4        1    19  11    5.4087   646.5    3.579      69.374
2015    4        1    19  17    5.4054   646.8    3.574      69.383
2015    4        1    19  23    5.4021   647.0    3.570      69.393
2015    4        1    19  29    5.3988   647.3    3.565      69.403
2015    4        1    19  35    5.3955   647.5    3.561      69.414
2015    4        1    19  40    5.3922   647.7    3.556      69.424
2015    4        1    19  46    5.3889   648.0    3.552      69.435
2015    4        1    19  52    5.3856   648.2    3.548      69.446
2015    4        1    19  58    5.3823   648.5    3.543      69.457
2015    4        1    20   4    5.3790   648.7    3.539      69.468
2015    4        1    20   9    5.3757   648.9    3.535      69.479
2015    4        1    20  15    5.3723   649.2    3.530      69.490
2015    4        1    20  21    5.3690   649.4    3.526      69.501
2015    4        1    20  27    5.3657   649.6    3.522      69.513
2015    4        1    20  33    5.3624   649.9    3.518      69.524
2015    4        1    20  38    5.3591   650.1    3.514      69.535
2015    4        1    20  44    5.3558   650.3    3.509      69.547
2015    4        1    20  50    5.3525   650.5    3.505      69.558
2015    4        1    20  56    5.3491   650.8    3.501      69.569
2015    4        1    21   2    5.3458   651.0    3.497      69.581
2015    4        1    21   7    5.3425   651.2    3.493      69.592
2015    4        1    21  13    5.3392   651.5    3.489      69.603
2015    4        1    21  19    5.3359   651.7    3.485      69.614
2015    4        1    21  25    5.3326   651.9    3.480      69.625
2015    4        1    21  31    5.3293   652.1    3.476      69.636
2015    4        1    21  36    5.3259   652.3    3.472      69.647
2015    4        1    21  42    5.3226   652.6    3.468      69.657
2015    4        1    21  48    5.3193   652.8    3.464      69.667
2015    4        1    21  54    5.3160   653.0    3.460      69.677
2015    4        1    22   0    5.3127   653.2    3.456      69.687
2015    4        1    22   5    5.3095   653.4    3.452      69.697
2015    4        1    22  11    5.3062   653.7    3.448      69.706
2015    4        1    22  17    5.3029   653.9    3.444      69.716
2015    4        1    22  23    5.2996   654.1    3.440      69.724
2015    4        1    22  28    5.2964   654.3    3.436      69.733
2015    4        1    22  34    5.2931   654.5    3.432      69.742
2015    4        1    22  40    5.2899   654.7    3.428      69.749
2015    4        1    22  46    5.2866   654.9    3.424      69.757
2015    4        1    22  52    5.2834   655.1    3.420      69.765
2015    4        1    22  57    5.2802   655.4    3.416      69.772
2015    4        1    23   3    5.2770   655.6    3.412      69.779
2015    4        1    23   9    5.2737   655.8    3.408      69.785
2015    4        1    23  15    5.2705   656.0    3.404      69.791
2015    4        1    23  21    5.2673   656.2    3.400      69.797
2015    4        1    23  26    5.2641   656.4    3.396      69.802
2015    4        1    23  32    5.2610   656.6    3.392      69.807
2015    4        1    23  38    5.2578   656.8    3.388      69.812
2015    4        1    23  44    5.2546   657.0    3.384      69.817
2015    4        1    23  50    5.2515   657.2    3.380      69.821
2015    4        1    23  55    5.2483   657.4    3.376      69.825
2015    4        2     0   1    5.2452   657.6    3.373      69.828
2015    4        2     0   7    5.2420   657.8    3.369      69.832
2015    4        2     0  13    5.2389   658.0    3.365      69.835
2015    4        2     0  19    5.2358   658.2    3.361      69.837
2015    4        2     0  24    5.2326   658.4    3.357      69.840
2015    4        2     0  30    5.2295   658.6    3.353      69.843
2015    4        2     0  36    5.2264   658.8    3.350      69.845
2015    4        2     0  42    5.2233   659.0    3.346      69.847
2015    4        2     0  48    5.2202   659.2    3.342      69.850
2015    4        2     0  54    5.2171   659.3    3.338      69.852
2015    4        2     0  59    5.2140   659.5    3.334      69.854
2015    4        2     1   5    5.2109   659.7    3.331      69.856
2015    4        2     1  11    5.2078   659.9    3.327      69.858
2015    4        2     1  17    5.2047   660.1    3.323      69.860
2015    4        2     1  23    5.2016   660.3    3.320      69.862
2015    4        2     1  28    5.1986   660.5    3.316      69.865
2015    4        2     1  34    5.1955   660.7    3.312      69.867
2015    4        2     1  40    5.1924   660.9    3.309      69.870
2015    4        2     1  46    5.1894   661.0    3.305      69.873
2015    4        2     1  52    5.1863   661.2    3.302      69.876
2015    4        2     1  57    5.1833   661.4    3.298      69.879
2015    4        2     2   3    5.1802   661.6    3.295      69.882
2015    4        2     2   9    5.1772   661.8    3.291      69.886
2015    4        2     2  15    5.1741   662.0    3.288      69.890
2015    4        2     2  21    5.1711   662.1    3.284      69.894
2015    4        2     2  26    5.1681   662.3    3.281      69.898
2015    4        2     2  32    5.1650   662.5    3.277      69.902
2015    4        2     2  38    5.1620   662.7    3.274      69.907
2015    4        2     2  44    5.1590   662.9    3.271      69.912
2015    4        2     2  50    5.1560   663.0    3.267      69.917
2015    4        2     2  55    5.1529   663.2    3.264      69.922
2015    4        2     3   1    5.1499   663.4    3.261      69.928
2015    4        2     3   7    5.1469   663.6    3.258      69.933
2015    4        2     3  13    5.1439   663.8    3.254      69.939
2015    4        2     3  19    5.1409   663.9    3.251      69.945
2015    4        2     3  24    5.1379   664.1    3.248      69.951
2015    4        2     3  30    5.1349   664.3    3.245      69.957
2015    4        2     3  36    5.1319   664.4    3.242      69.963
2015    4        2     3  42    5.1290   664.6    3.239      69.969
2015    4        2     3  48    5.1260   664.8    3.236      69.976
2015    4        2     3  53    5.1230   665.0    3.232      69.982
2015    4        2     3  59    5.1200   665.1    3.229      69.988
2015    4        2     4   5    5.1170   665.3    3.226      69.994
2015    4        2     4  11    5.1141   665.5    3.223      70.000
2015    4        2     4  17    5.1111   665.6    3.220      70.006
2015    4        2     4  22    5.1082   665.8    3.217      70.011
2015    4        2     4  28    5.1052   666.0    3.214      70.017
2015    4        2     4  34    5.1022   666.1    3.211      70.022
2015    4        2     4  40    5.0993   666.3    3.208      70.027
2015    4        2     4  46    5.0964   666.4    3.205      70.032
2015    4        2     4  51    5.0934   666.6    3.202      70.037
2015    4        2     4  57    5.0905   666.8    3.199      70.041
2015    4        2     5   3    5.0876   666.9    3.196      70.045
2015    4        2     5   9    5.0846   667.1    3.193      70.049
2015    4        2     5  15    5.0817   667.2    3.190      70.052
2015    4        2     5  20    5.0788   667.4    3.187      70.055
2015    4        2     5  26    5.0759   667.5    3.184      70.058
2015    4        2     5  32    5.0730   667.7    3.181      70.060
2015    4        2     5  38    5.0701   667.9    3.178      70.062
2015    4        2     5  44    5.0672   668.0    3.175      70.064
2015    4        2     5  49    5.0644   668.2    3.172      70.065
2015    4        2     5  55    5.0615   668.3    3.169      70.066
2015    4        2     6   1    5.0586   668.5    3.166      70.067
2015    4        2     6   7    5.0558   668.6    3.163      70.067
2015    4        2     6  13    5.0529   668.8    3.160      70.067
2015    4        2     6  18    5.0501   668.9    3.157      70.066
2015    4        2     6  24    5.0473   669.0    3.155      70.065
2015    4        2     6  30    5.0445   669.2    3.152      70.064
2015    4        2     6  36    5.0416   669.3    3.149      70.063
2015    4        2     6  42    5.0388   669.5    3.146      70.061
2015    4        2     6  47    5.0360   669.6    3.143      70.059
2015    4        2     6  53    5.0332   669.8    3.140      70.057
2015    4        2     6  59    5.0305   669.9    3.137      70.055
2015    4        2     7   5    5.0277   670.0    3.134      70.052
2015    4        2     7  11    5.0249   670.2    3.131      70.050
2015    4        2     7  16    5.0221   670.3    3.128      70.047
2015    4        2     7  22    5.0194   670.5    3.125      70.044
2015    4        2     7  28    5.0167   670.6    3.122      70.041
2015    4        2     7  34    5.0139   670.7    3.119      70.038
2015    4        2     7  40    5.0112   670.9    3.117      70.035
2015    4        2     7  45    5.0085   671.0    3.114      70.033
2015    4        2     7  51    5.0058   671.1    3.111      70.030
2015    4        2     7  57    5.0030   671.3    3.108      70.027
2015    4        2     8   3    5.0004   671.4    3.105      70.024
2015    4        2     8   9    4.9977   671.5    3.102      70.022
2015    4        2     8  14    4.9950   671.7    3.100      70.019
2015    4        2     8  20    4.9923   671.8    3.097      70.017
2015    4        2     8  26    4.9896   671.9    3.094      70.015
2015    4        2     8  32    4.9870   672.0    3.091      70.013
2015    4        2     8  38    4.9843   672.2    3.089      70.011
2015    4        2     8  43    4.9817   672.3    3.086      70.010
2015    4        2     8  49    4.9790   672.4    3.083      70.009
2015    4        2     8  55    4.9764   672.5    3.081      70.007
2015    4        2     9   1    4.9738   672.7    3.078      70.007
2015    4        2     9   7    4.9712   672.8    3.075      70.006
2015    4        2     9  12    4.9685   672.9    3.073      70.006
2015    4        2     9  18    4.9659   673.0    3.070      70.005
2015    4        2     9  24    4.9633   673.2    3.068      70.005
2015    4        2     9  30    4.9607   673.3    3.065      70.006
2015    4        2     9  36    4.9581   673.4    3.063      70.006
2015    4        2     9  41    4.9556   673.5    3.060      70.007
2015    4        2     9  47    4.9530   673.7    3.058      70.008
2015    4        2     9  53    4.9504   673.8    3.055      70.009
2015    4        2     9  59    4.9478   673.9    3.053      70.010
2015    4        2    10   5    4.9453   674.0    3.050      70.012
2015    4        2    10  10    4.9427   674.1    3.048      70.013
2015    4        2    10  16    4.9402   674.3    3.046      70.015
2015    4        2    10  22    4.9376   674.4    3.043      70.017
2015    4        2    10  28    4.9351   674.5    3.041      70.019
2015    4        2    10  34    4.9325   674.6    3.039      70.020
2015    4        2    10  40    4.9300   674.7    3.037      70.022
2015    4        2    10  45    4.9275   674.8    3.034      70.025
2015    4        2    10  51    4.9249   675.0    3.032      70.027
2015    4        2    10  57    4.9224   675.1    3.030      70.029
2015    4        2    11   3    4.9199   675.2    3.028      70.031
2015    4        2    11   9    4.9174   675.3    3.026      70.033
2015    4        2    11  14    4.9149   675.4    3.023      70.035
2015    4        2    11  20    4.9123   675.5    3.021      70.037
2015    4        2    11  26    4.9098   675.6    3.019      70.039
2015    4        2    11  32    4.9074   675.7    3.017      70.040
2015    4        2    11  38    4.9049   675.8    3.015      70.042
2015    4        2    11  43    4.9024   675.9    3.013      70.043
2015    4        2    11  49    4.8999   676.1    3.011      70.045
2015    4        2    11  55    4.8974   676.2    3.009      70.046
2015    4        2    12   1    4.8949   676.3    3.007      70.047
2015    4        2    12   6    4.8925   676.4    3.005      70.048
2015    4        2    12  12    4.8900   676.5    3.003      70.048
2015    4        2    12  18    4.8876   676.6    3.000      70.049
2015    4        2    12  24    4.8851   676.7    2.998      70.049
2015    4        2    12  30    4.8827   676.8    2.996      70.049
2015    4        2    12  35    4.8803   676.9    2.994      70.049
2015    4        2    12  41    4.8779   677.0    2.992      70.048
2015    4        2    12  47    4.8754   677.1    2.990      70.048
2015    4        2    12  53    4.8731   677.2    2.988      70.047
2015    4        2    12  59    4.8707   677.3    2.986      70.046
2015    4        2    13   4    4.8683   677.4    2.984      70.044
2015    4        2    13  10    4.8659   677.5    2.982      70.043
2015    4        2    13  16    4.8635   677.6    2.980      70.041
2015    4        2    13  22    4.8612   677.7    2.978      70.039
2015    4        2    13  28    4.8588   677.7    2.976      70.037
2015    4        2    13  33    4.8565   677.8    2.974      70.035
2015    4        2    13  39    4.8542   677.9    2.972      70.032
2015    4        2    13  45    4.8518   678.0    2.970      70.030
2015    4        2    13  51    4.8495   678.1    2.968      70.027
2015    4        2    13  57    4.8472   678.2    2.966      70.024
2015    4        2    14   2    4.8449   678.3    2.964      70.021
2015    4        2    14   8    4.8426   678.4    2.962      70.018
2015    4        2    14  14    4.8404   678.5    2.960      70.014
2015    4        2    14  20    4.8381   678.5    2.958      70.011
2015    4        2    14  26    4.8359   678.6    2.956      70.008
2015    4        2    14  31    4.8336   678.7    2.954      70.004
2015    4        2    14  37    4.8314   678.8    2.952      70.001
2015    4        2    14  43    4.8291   678.9    2.949      69.997
2015    4        2    14  49    4.8269   679.0    2.947      69.994
2015    4        2    14  55    4.8247   679.0    2.945      69.990
2015    4        2    15   0    4.8225   679.1    2.943      69.987
2015    4        2    15   6    4.8203   679.2    2.941      69.984
2015    4        2    15  12    4.8181   679.3    2.939      69.981
2015    4        2    15  18    4.8159   679.4    2.937      69.977
2015    4        2    15  24    4.8138   679.4    2.935      69.974
2015    4        2    15  29    4.8116   679.5    2.933      69.972
2015    4        2    15  35    4.8094   679.6    2.931      69.969
2015    4        2    15  41    4.8073   679.7    2.929      69.966
2015    4        2    15  47    4.8051   679.8    2.927      69.964
2015    4        2    15  53    4.8030   679.8    2.925      69.961
2015    4        2    15  58    4.8008   679.9    2.923      69.959
2015    4        2    16   4    4.7987   680.0    2.921      69.957
2015    4        2    16  10    4.7966   680.1    2.920      69.956
2015    4        2    16  16    4.7945   680.1    2.918      69.954
2015    4        2    16  22    4.7923   680.2    2.916      69.952
2015    4        2    16  27    4.7902   680.3    2.914      69.951
2015    4        2    16  33    4.7881   680.4    2.912      69.950
2015    4        2    16  39    4.7860   680.4    2.910      69.949
2015    4        2    16  45    4.7839   680.5    2.908      69.948
2015    4        2    16  51    4.7818   680.6    2.907      69.947
2015    4        2    16  56    4.7797   680.6    2.905      69.946
2015    4        2    17   2    4.7777   680.7    2.903      69.946
2015    4        2    17   8    4.7756   680.8    2.901      69.945
2015    4        2    17  14    4.7735   680.9    2.900      69.945
2015    4        2    17  20    4.7714   680.9    2.898      69.944
2015    4        2    17  25    4.7693   681.0    2.896      69.944
2015    4        2    17  31    4.7673   681.1    2.895      69.943
2015    4        2    17  37    4.7652   681.1    2.893      69.943
2015    4        2    17  43    4.7631   681.2    2.891      69.943
2015    4        2    17  49    4.7611   681.3    2.890      69.942
2015    4        2    17  54    4.7590   681.3    2.888      69.942
2015    4        2    18   0    4.7570   681.4    2.887      69.942
2015    4        2    18   6    4.7549   681.5    2.885      69.941
2015    4        2    18  12    4.7529   681.5    2.884      69.941
2015    4        2    18  18    4.7508   681.6    2.882      69.940
2015    4        2    18  23    4.7488   681.7    2.881      69.939
2015    4        2    18  29    4.7468   681.7    2.879      69.939
2015    4        2    18  35    4.7447   681.8    2.878      69.938
2015    4        2    18  41    4.7427   681.8    2.877      69.937
2015    4        2    18  47    4.7407   681.9    2.875      69.936
2015    4        2    18  52    4.7387   682.0    2.874      69.936
2015    4        2    18  58    4.7367   682.0    2.872      69.935
2015    4        2    19   4    4.7347   682.1    2.871      69.934
2015    4        2    19  10    4.7327   682.1    2.870      69.933
2015    4        2    19  16    4.7307   682.2    2.868      69.931
2015    4        2    19  21    4.7287   682.3    2.867      69.930
2015    4        2    19  27    4.7268   682.3    2.866      69.929
2015    4        2    19  33    4.7248   682.4    2.865      69.928
2015    4        2    19  39    4.7229   682.4    2.863      69.927
2015    4        2    19  45    4.7209   682.5    2.862      69.925
2015    4        2    19  50    4.7190   682.5    2.861      69.924
2015    4        2    19  56    4.7171   682.6    2.860      69.922
2015    4        2    20   2    4.7151   682.6    2.858      69.921
2015    4        2    20   8    4.7132   682.7    2.857      69.920
2015    4        2    20  14    4.7113   682.8    2.856      69.918
2015    4        2    20  19    4.7095   682.8    2.854      69.916
2015    4        2    20  25    4.7076   682.9    2.853      69.915
2015    4        2    20  31    4.7057   682.9    2.852      69.913
2015    4        2    20  37    4.7038   683.0    2.851      69.912
2015    4        2    20  43    4.7020   683.0    2.849      69.910
2015    4        2    20  48    4.7001   683.1    2.848      69.908
2015    4        2    20  54    4.6983   683.1    2.847      69.906
2015    4        2    21   0    4.6965   683.2    2.846      69.904
2015    4        2    21   6    4.6947   683.2    2.844      69.902
2015    4        2    21  12    4.6929   683.2    2.843      69.900
2015    4        2    21  17    4.6910   683.3    2.842      69.898
2015    4        2    21  23    4.6893   683.3    2.840      69.896
2015    4        2    21  29    4.6875   683.4    2.839      69.893
2015    4        2    21  35    4.6857   683.4    2.837      69.891
2015    4        2    21  41    4.6839   683.5    2.836      69.888
2015    4        2    21  46    4.6821   683.5    2.835      69.886
2015    4        2    21  52    4.6803   683.6    2.833      69.883
2015    4        2    21  58    4.6786   683.6    2.832      69.880
2015    4        2    22   4    4.6768   683.7    2.830      69.877
2015    4        2    22  10    4.6750   683.7    2.829      69.875
2015    4        2    22  15    4.6733   683.7    2.827      69.871
2015    4        2    22  21    4.6715   683.8    2.826      69.868
2015    4        2    22  27    4.6697   683.8    2.824      69.865
2015    4        2    22  33    4.6680   683.9    2.823      69.862
2015    4        2    22  39    4.6662   683.9    2.821      69.859
2015    4        2    22  44    4.6645   683.9    2.820      69.856
2015    4        2    22  50    4.6627   684.0    2.818      69.852
2015    4        2    22  56    4.6610   684.0    2.817      69.849
2015    4        2    23   2    4.6593   684.1    2.816      69.846
2015    4        2    23   8    4.6575   684.1    2.814      69.843
2015    4        2    23  13    4.6558   684.1    2.813      69.839
2015    4        2    23  19    4.6541   684.2    2.811      69.836
2015    4        2    23  25    4.6524   684.2    2.810      69.833
2015    4        2    23  31    4.6506   684.2    2.808      69.830
2015    4        2    23  37    4.6489   684.3    2.807      69.827
2015    4        2    23  42    4.6472   684.3    2.806      69.825
2015    4        2    23  48    4.6455   684.3    2.804      69.822
2015    4        2    23  54    4.6438   684.4    2.803      69.819
2015    4        3     0   0    4.6421   684.4    2.802      69.817
2015    4        3     0   6    4.6404   684.4    2.800      69.814
2015    4        3     0  11    4.6387   684.5    2.799      69.812
2015    4        3     0  17    4.6371   684.5    2.798      69.810
2015    4        3     0  23    4.6354   684.5    2.797      69.808
2015    4        3     0  29    4.6337   684.6    2.795      69.806
2015    4        3     0  35    4.6320   684.6    2.794      69.804
2015    4        3     0  40    4.6304   684.6    2.793      69.802
2015    4        3     0  46    4.6287   684.7    2.792      69.801
2015    4        3     0  52    4.6271   684.7    2.791      69.799
2015    4        3     0  58    4.6254   684.7    2.790      69.797
2015    4        3     1   4    4.6238   684.8    2.789      69.796
2015    4        3     1   9    4.6222   684.8    2.788      69.794
2015    4        3     1  15    4.6205   684.8    2.787      69.792
2015    4        3     1  21    4.6189   684.8    2.786      69.790
2015    4        3     1  27    4.6173   684.9    2.785      69.789
2015    4        3     1  33    4.6157   684.9    2.784      69.787
2015    4        3     1  38    4.6141   684.9    2.783      69.785
2015    4        3     1  44    4.6124   685.0    2.783      69.783
2015    4        3     1  50    4.6108   685.0    2.782      69.781
2015    4        3     1  56    4.6092   685.0    2.781      69.780
2015    4        3     2   2    4.6076   685.0    2.780      69.778
2015    4        3     2   7    4.6060   685.1    2.779      69.776
2015    4        3     2  13    4.6044   685.1    2.778      69.774
2015    4        3     2  19    4.6028   685.1    2.778      69.772
2015    4        3     2  25    4.6012   685.1    2.777      69.770
2015    4        3     2  31    4.5996   685.2    2.776      69.769
2015    4        3     2  37    4.5981   685.2    2.775      69.767
2015    4        3     2  42    4.5965   685.2    2.775      69.765
2015    4        3     2  48    4.5949   685.2    2.774      69.764
2015    4        3     2  54    4.5934   685.3    2.773      69.762
2015    4        3     3   0    4.5918   685.3    2.772      69.761
2015    4        3     3   6    4.5903   685.3    2.772      69.759
2015    4        3     3  11    4.5887   685.3    2.771      69.758
2015    4        3     3  17    4.5872   685.3    2.770      69.757
2015    4        3     3  23    4.5857   685.4    2.769      69.756
2015    4        3     3  29    4.5841   685.4    2.769      69.754
2015    4        3     3  35    4.5826   685.4    2.768      69.754
2015    4        3     3  40    4.5811   685.4    2.767      69.752
2015    4        3     3  46    4.5796   685.5    2.766      69.751
2015    4        3     3  52    4.5781   685.5    2.766      69.750
2015    4        3     3  58    4.5766   685.5    2.765      69.749
2015    4        3     4   4    4.5751   685.5    2.764      69.748
2015    4        3     4   9    4.5737   685.5    2.763      69.747
2015    4        3     4  15    4.5722   685.5    2.762      69.746
2015    4        3     4  21    4.5707   685.6    2.761      69.745
2015    4        3     4  27    4.5693   685.6    2.760      69.743
2015    4        3     4  33    4.5678   685.6    2.760      69.742
2015    4        3     4  38    4.5664   685.6    2.759      69.740
2015    4        3     4  44    4.5649   685.6    2.758      69.738
2015    4        3     4  50    4.5635   685.7    2.757      69.736
2015    4        3     4  56    4.5620   685.7    2.756      69.734
2015    4        3     5   2    4.5606   685.7    2.755      69.732
2015    4        3     5   7    4.5591   685.7    2.754      69.729
2015    4        3     5  13    4.5577   685.7    2.753      69.727
2015    4        3     5  19    4.5562   685.7    2.752      69.724
2015    4        3     5  25    4.5548   685.8    2.751      69.721
2015    4        3     5  31    4.5533   685.8    2.750      69.717
2015    4        3     5  36    4.5519   685.8    2.749      69.714
2015    4        3     5  42    4.5504   685.8    2.748      69.710
2015    4        3     5  48    4.5490   685.8    2.746      69.707
2015    4        3     5  54    4.5476   685.8    2.745      69.703
2015    4        3     6   0    4.5461   685.8    2.744      69.698
2015    4        3     6   5    4.5447   685.8    2.743      69.694
2015    4        3     6  11    4.5432   685.9    2.742      69.690
2015    4        3     6  17    4.5418   685.9    2.741      69.686
2015    4        3     6  23    4.5404   685.9    2.740      69.681
2015    4        3     6  29    4.5389   685.9    2.739      69.677
2015    4        3     6  34    4.5375   685.9    2.738      69.672
2015    4        3     6  40    4.5361   685.9    2.737      69.668
2015    4        3     6  46    4.5347   685.9    2.736      69.663
2015    4        3     6  52    4.5333   685.9    2.735      69.659
2015    4        3     6  58    4.5319   685.9    2.734      69.654
2015    4        3     7   3    4.5305   685.9    2.733      69.650
2015    4        3     7   9    4.5291   685.9    2.733      69.646
2015    4        3     7  15    4.5277   685.9    2.732      69.642
2015    4        3     7  21    4.5263   686.0    2.731      69.638
2015    4        3     7  27    4.5250   686.0    2.730      69.635
2015    4        3     7  32    4.5236   686.0    2.730      69.631
2015    4        3     7  38    4.5223   686.0    2.729      69.628
2015    4        3     7  44    4.5209   686.0    2.728      69.625
2015    4        3     7  50    4.5196   686.0    2.727      69.622
2015    4        3     7  56    4.5183   686.0    2.727      69.619
2015    4        3     8   1    4.5169   686.0    2.726      69.616
2015    4        3     8   7    4.5156   686.0    2.726      69.614
2015    4        3     8  13    4.5143   686.0    2.725      69.611
2015    4        3     8  19    4.5129   686.0    2.725      69.609
2015    4        3     8  25    4.5116   686.0    2.724      69.606
2015    4        3     8  30    4.5103   686.0    2.723      69.604
2015    4        3     8  36    4.5089   686.0    2.723      69.602
2015    4        3     8  42    4.5076   686.1    2.722      69.599
2015    4        3     8  48    4.5063   686.1    2.722      69.597
2015    4        3     8  54    4.5050   686.1    2.722      69.595
2015    4        3     8  59    4.5036   686.1    2.721      69.592
2015    4        3     9   5    4.5023   686.1    2.721      69.590
2015    4        3     9  11    4.5009   686.1    2.720      69.588
2015    4        3     9  17    4.4996   686.1    2.720      69.585
2015    4        3     9  23    4.4982   686.1    2.719      69.583
2015    4        3     9  28    4.4969   686.1    2.719      69.580
2015    4        3     9  34    4.4956   686.1    2.718      69.577
2015    4        3     9  40    4.4942   686.1    2.718      69.575
2015    4        3     9  46    4.4929   686.1    2.717      69.572
2015    4        3     9  52    4.4915   686.1    2.717      69.569
2015    4        3     9  57    4.4902   686.1    2.716      69.566
2015    4        3    10   3    4.4889   686.1    2.716      69.564
2015    4        3    10   9    4.4875   686.1    2.715      69.561
2015    4        3    10  15    4.4862   686.1    2.715      69.558
2015    4        3    10  21    4.4849   686.1    2.714      69.555
2015    4        3    10  26    4.4835   686.1    2.714      69.552
2015    4        3    10  32    4.4822   686.1    2.713      69.549
2015    4        3    10  38    4.4809   686.1    2.713      69.546
2015    4        3    10  44    4.4796   686.1    2.712      69.543
2015    4        3    10  50    4.4783   686.1    2.712      69.540
2015    4        3    10  55    4.4770   686.1    2.711      69.537
2015    4        3    11   1    4.4757   686.1    2.710      69.534
2015    4        3    11   7    4.4745   686.2    2.710      69.531
2015    4        3    11  13    4.4732   686.2    2.709      69.527
2015    4        3    11  19    4.4719   686.2    2.709      69.524
2015    4        3    11  24    4.4706   686.2    2.708      69.520
2015    4        3    11  30    4.4694   686.2    2.708      69.516
2015    4        3    11  36    4.4681   686.2    2.707      69.513
2015    4        3    11  42    4.4668   686.2    2.706      69.508
2015    4        3    11  48    4.4656   686.2    2.706      69.504
2015    4        3    11  53    4.4643   686.2    2.705      69.500
2015    4        3    11  59    4.4631   686.2    2.704      69.495
2015    4        3    12   5    4.4618   686.1    2.704      69.490
2015    4        3    12  11    4.4606   686.1    2.703      69.485
2015    4        3    12  17    4.4593   686.1    2.702      69.480
2015    4        3    12  22    4.4580   686.1    2.702      69.475
2015    4        3    12  28    4.4568   686.1    2.701      69.469
2015    4        3    12  34    4.4555   686.1    2.700      69.464
2015    4        3    12  40    4.4543   686.1    2.699      69.458
2015    4        3    12  46    4.4530   686.1    2.699      69.453
2015    4        3    12  51    4.4517   686.1    2.698      69.447
2015    4        3    12  57    4.4505   686.1    2.697      69.441
2015    4        3    13   3    4.4492   686.1    2.697      69.435
2015    4        3    13   9    4.4480   686.1    2.696      69.429
2015    4        3    13  15    4.4467   686.1    2.695      69.424
2015    4        3    13  20    4.4454   686.1    2.695      69.418
2015    4        3    13  26    4.4442   686.1    2.694      69.412
2015    4        3    13  32    4.4429   686.1    2.693      69.406
2015    4        3    13  38    4.4417   686.1    2.692      69.400
2015    4        3    13  44    4.4404   686.1    2.692      69.394
2015    4        3    13  49    4.4391   686.1    2.691      69.388
2015    4        3    13  55    4.4379   686.1    2.691      69.383
2015    4        3    14   1    4.4366   686.1    2.690      69.377
2015    4        3    14   7    4.4354   686.0    2.689      69.371
2015    4        3    14  13    4.4341   686.0    2.689      69.366
2015    4        3    14  18    4.4329   686.0    2.688      69.360
2015    4        3    14  24    4.4316   686.0    2.688      69.355
2015    4        3    14  30    4.4303   686.0    2.687      69.350
2015    4        3    14  36    4.4291   686.0    2.687      69.345
2015    4        3    14  42    4.4278   686.0    2.686      69.340
2015    4        3    14  48    4.4266   686.0    2.686      69.335
2015    4        3    14  53    4.4253   686.0    2.685      69.330
2015    4        3    14  59    4.4241   686.0    2.685      69.325
2015    4        3    15   5    4.4229   686.0    2.685      69.321
2015    4        3    15  11    4.4216   686.0    2.684      69.317
2015    4        3    15  17    4.4204   686.0    2.684      69.312
2015    4        3    15  22    4.4191   685.9    2.683      69.308
2015    4        3    15  28    4.4179   685.9    2.683      69.304
2015    4        3    15  34    4.4166   685.9    2.683      69.301
2015    4        3    15  40    4.4154   685.9    2.682      69.297
2015    4        3    15  46    4.4142   685.9    2.682      69.293
2015    4        3    15  51    4.4129   685.9    2.682      69.290
2015    4        3    15  57    4.4117   685.9    2.682      69.287
2015    4        3    16   3    4.4104   685.9    2.681      69.283
2015    4        3    16   9    4.4092   685.9    2.681      69.279
2015    4        3    16  15    4.4079   685.9    2.681      69.276
2015    4        3    16  20    4.4067   685.8    2.680      69.272
2015    4        3    16  26    4.4054   685.8    2.680      69.268
2015    4        3    16  32    4.4042   685.8    2.680      69.264
2015    4        3    16  38    4.4029   685.8    2.680      69.260
2015    4        3    16  44    4.4017   685.8    2.679      69.255
2015    4        3    16  49    4.4004   685.8    2.679      69.251
2015    4        3    16  55    4.3991   685.8    2.679      69.246
2015    4        3    17   1    4.3979   685.8    2.678      69.240
2015    4        3    17   7    4.3966   685.8    2.678      69.234
2015    4        3    17  13    4.3953   685.7    2.678      69.228
2015    4        3    17  18    4.3940   685.7    2.677      69.222
2015    4        3    17  24    4.3928   685.7    2.677      69.215
2015    4        3    17  30    4.3915   685.7    2.676      69.208
2015    4        3    17  36    4.3902   685.7    2.676      69.201
2015    4        3    17  42    4.3889   685.7    2.675      69.193
2015    4        3    17  47    4.3876   685.7    2.675      69.184
2015    4        3    17  53    4.3863   685.6    2.674      69.176
2015    4        3    17  59    4.3851   685.6    2.674      69.167
2015    4        3    18   5    4.3838   685.6    2.673      69.158
2015    4        3    18  11    4.3825   685.6    2.673      69.149
2015    4        3    18  16    4.3812   685.6    2.672      69.139
2015    4        3    18  22    4.3799   685.6    2.671      69.129
2015    4        3    18  28    4.3786   685.5    2.671      69.119
2015    4        3    18  34    4.3773   685.5    2.670      69.109
2015    4        3    18  40    4.3760   685.5    2.670      69.099
2015    4        3    18  45    4.3747   685.5    2.669      69.088
2015    4        3    18  51    4.3735   685.5    2.668      69.077
2015    4        3    18  57    4.3722   685.5    2.668      69.066
2015    4        3    19   3    4.3709   685.4    2.667      69.055
2015    4        3    19   9    4.3696   685.4    2.666      69.043
2015    4        3    19  14    4.3683   685.4    2.666      69.032
2015    4        3    19  20    4.3670   685.4    2.665      69.020
2015    4        3    19  26    4.3656   685.4    2.664      69.009
2015    4        3    19  32    4.3643   685.4    2.664      68.997
2015    4        3    19  38    4.3630   685.3    2.663      68.985
2015    4        3    19  43    4.3617   685.3    2.662      68.973
2015    4        3    19  49    4.3604   685.3    2.661      68.961
2015    4        3    19  55    4.3590   685.3    2.661      68.949
2015    4        3    20   1    4.3577   685.3    2.660      68.936
2015    4        3    20   7    4.3564   685.2    2.659      68.924
2015    4        3    20  12    4.3551   685.2    2.659      68.912
2015    4        3    20  18    4.3537   685.2    2.658      68.900
2015    4        3    20  24    4.3524   685.2    2.658      68.888
2015    4        3    20  30    4.3510   685.1    2.657      68.876
2015    4        3    20  36    4.3497   685.1    2.656      68.865
2015    4        3    20  41    4.3484   685.1    2.656      68.853
2015    4        3    20  47    4.3471   685.1    2.655      68.842
2015    4        3    20  53    4.3457   685.0    2.655      68.831
2015    4        3    20  59    4.3444   685.0    2.654      68.820
2015    4        3    21   5    4.3431   685.0    2.654      68.809
2015    4        3    21  10    4.3418   684.9    2.653      68.799
2015    4        3    21  16    4.3404   684.9    2.653      68.789
2015    4        3    21  22    4.3391   684.9    2.652      68.779
2015    4        3    21  28    4.3378   684.9    2.652      68.769
2015    4        3    21  34    4.3365   684.8    2.651      68.760
2015    4        3    21  39    4.3351   684.8    2.651      68.751
2015    4        3    21  45    4.3338   684.8    2.651      68.742
2015    4        3    21  51    4.3325   684.7    2.650      68.734
2015    4        3    21  57    4.3312   684.7    2.650      68.726
2015    4        3    22   3    4.3299   684.7    2.650      68.718
2015    4        3    22   8    4.3286   684.6    2.649      68.710
2015    4        3    22  14    4.3273   684.6    2.649      68.703
2015    4        3    22  20    4.3260   684.5    2.649      68.696
2015    4        3    22  26    4.3247   684.5    2.648      68.689
2015    4        3    22  32    4.3233   684.5    2.648      68.682
2015    4        3    22  37    4.3220   684.4    2.648      68.675
2015    4        3    22  43    4.3207   684.4    2.648      68.669
2015    4        3    22  49    4.3194   684.4    2.648      68.662
2015    4        3    22  55    4.3181   684.3    2.647      68.655
2015    4        3    23   1    4.3168   684.3    2.647      68.649
2015    4        3    23   6    4.3155   684.3    2.647      68.642
2015    4        3    23  12    4.3142   684.2    2.647      68.635
2015    4        3    23  18    4.3129   684.2    2.647      68.628
2015    4        3    23  24    4.3116   684.1    2.646      68.620
2015    4        3    23  30    4.3102   684.1    2.646      68.613
2015    4        3    23  35    4.3089   684.1    2.646      68.605
2015    4        3    23  41    4.3075   684.0    2.646      68.596
2015    4        3    23  47    4.3062   684.0    2.646      68.587
2015    4        3    23  53    4.3048   684.0    2.645      68.578
2015    4        3    23  59    4.3035   683.9    2.645      68.568
2015    4        4     0   4    4.3021   683.9    2.645      68.557
2015    4        4     0  10    4.3007   683.9    2.644      68.546
2015    4        4     0  16    4.2993   683.8    2.644      68.534
2015    4        4     0  22    4.2979   683.8    2.644      68.522
2015    4        4     0  28    4.2965   683.8    2.643      68.509
2015    4        4     0  33    4.2950   683.7    2.643      68.496
2015    4        4     0  39    4.2936   683.7    2.642      68.482
2015    4        4     0  45    4.2921   683.6    2.642      68.467
2015    4        4     0  51    4.2906   683.6    2.641      68.451
2015    4        4     0  57    4.2892   683.6    2.641      68.435
2015    4        4     1   2    4.2877   683.5    2.640      68.418
2015    4        4     1   8    4.2862   683.5    2.639      68.401
2015    4        4     1  14    4.2847   683.4    2.639      68.383
2015    4        4     1  20    4.2831   683.4    2.638      68.364
2015    4        4     1  26    4.2816   683.4    2.637      68.345
2015    4        4     1  31    4.2801   683.3    2.636      68.325
2015    4        4     1  37    4.2785   683.3    2.635      68.305
2015    4        4     1  43    4.2769   683.2    2.635      68.284
2015    4        4     1  49    4.2754   683.2    2.634      68.263
2015    4        4     1  55    4.2738   683.1    2.633      68.241
2015    4        4     2   0    4.2722   683.1    2.632      68.220
2015    4        4     2   6    4.2707   683.0    2.631      68.198
2015    4        4     2  12    4.2691   683.0    2.630      68.176
2015    4        4     2  18    4.2675   682.9    2.629      68.154
2015    4        4     2  24    4.2659   682.9    2.629      68.132
2015    4        4     2  29    4.2643   682.8    2.628      68.111
2015    4        4     2  35    4.2628   682.8    2.627      68.089
2015    4        4     2  41    4.2612   682.7    2.626      68.068
2015    4        4     2  47    4.2596   682.7    2.625      68.046
2015    4        4     2  53    4.2581   682.6    2.625      68.026
2015    4        4     2  58    4.2565   682.5    2.624      68.005
2015    4        4     3   4    4.2550   682.5    2.623      67.985
2015    4        4     3  10    4.2534   682.4    2.622      67.966
2015    4        4     3  16    4.2519   682.4    2.622      67.947
2015    4        4     3  22    4.2504   682.3    2.621      67.928
2015    4        4     3  27    4.2489   682.2    2.621      67.910
2015    4        4     3  33    4.2474   682.2    2.620      67.893
2015    4        4     3  39    4.2459   682.1    2.620      67.876
2015    4        4     3  45    4.2444   682.0    2.619      67.859
2015    4        4     3  51    4.2429   682.0    2.619      67.843
2015    4        4     3  56    4.2415   681.9    2.619      67.828
2015    4        4     4   2    4.2400   681.8    2.618      67.813
2015    4        4     4   8    4.2386   681.8    2.618      67.798
2015    4        4     4  14    4.2371   681.7    2.618      67.784
2015    4        4     4  20    4.2357   681.6    2.617      67.770
2015    4        4     4  25    4.2343   681.5    2.617      67.757
2015    4        4     4  31    4.2328   681.5    2.617      67.744
2015    4        4     4  37    4.2314   681.4    2.617      67.732
2015    4        4     4  43    4.2299   681.3    2.617      67.719
2015    4        4     4  49    4.2285   681.3    2.616      67.707
2015    4        4     4  54    4.2271   681.2    2.616      67.695
2015    4        4     5   0    4.2256   681.1    2.616      67.684
2015    4        4     5   6    4.2241   681.1    2.616      67.672
2015    4        4     5  12    4.2227   681.0    2.616      67.661
2015    4        4     5  18    4.2212   680.9    2.615      67.650
2015    4        4     5  23    4.2197   680.8    2.615      67.638
2015    4        4     5  29    4.2183   680.8    2.615      67.627
2015    4        4     5  35    4.2168   680.7    2.615      67.615
2015    4        4     5  41    4.2153   680.6    2.615      67.603
2015    4        4     5  47    4.2138   680.5    2.614      67.590
2015    4        4     5  52    4.2123   680.5    2.614      67.577
2015    4        4     5  58    4.2108   680.4    2.614      67.564
2015    4        4     6   4    4.2093   680.3    2.614      67.550
2015    4        4     6  10    4.2077   680.3    2.614      67.536
2015    4        4     6  16    4.2062   680.2    2.613      67.521
2015    4        4     6  21    4.2046   680.1    2.613      67.506
2015    4        4     6  27    4.2031   680.1    2.613      67.490
2015    4        4     6  33    4.2015   680.0    2.612      67.474
2015    4        4     6  39    4.1999   679.9    2.612      67.457
2015    4        4     6  45    4.1983   679.8    2.612      67.439
2015    4        4     6  50    4.1967   679.8    2.612      67.421
2015    4        4     6  56    4.1951   679.7    2.611      67.402
2015    4        4     7   2    4.1935   679.6    2.611      67.382
2015    4        4     7   8    4.1919   679.6    2.611      67.362
2015    4        4     7  14    4.1902   679.5    2.610      67.342
2015    4        4     7  19    4.1886   679.4    2.610      67.320
2015    4        4     7  25    4.1869   679.3    2.609      67.298
2015    4        4     7  31    4.1852   679.3    2.609      67.276
2015    4        4     7  37    4.1835   679.2    2.609      67.252
2015    4        4     7  43    4.1818   679.1    2.608      67.228
2015    4        4     7  48    4.1801   679.0    2.608      67.204
2015    4        4     7  54    4.1784   679.0    2.607      67.178
2015    4        4     8   0    4.1767   678.9    2.607      67.153
2015    4        4     8   6    4.1749   678.8    2.606      67.126
2015    4        4     8  12    4.1732   678.7    2.605      67.099
2015    4        4     8  17    4.1714   678.6    2.605      67.072
2015    4        4     8  23    4.1697   678.5    2.604      67.044
2015    4        4     8  29    4.1679   678.4    2.604      67.016
2015    4        4     8  35    4.1661   678.4    2.603      66.987
2015    4        4     8  41    4.1644   678.3    2.602      66.958
2015    4        4     8  46    4.1626   678.2    2.602      66.929
2015    4        4     8  52    4.1608   678.1    2.601      66.900
2015    4        4     8  58    4.1590   678.0    2.600      66.870
2015    4        4     9   4    4.1573   677.9    2.600      66.840
2015    4        4     9  10    4.1555   677.8    2.599      66.811
2015    4        4     9  15    4.1537   677.7    2.598      66.781
2015    4        4     9  21    4.1520   677.6    2.598      66.751
2015    4        4     9  27    4.1502   677.5    2.597      66.721
2015    4        4     9  33    4.1484   677.4    2.596      66.691
2015    4        4     9  39    4.1467   677.3    2.596      66.661
2015    4        4     9  44    4.1449   677.2    2.595      66.632
2015    4        4     9  50    4.1432   677.1    2.595      66.603
2015    4        4     9  56    4.1415   676.9    2.594      66.574
2015    4        4    10   2    4.1398   676.8    2.594      66.545
2015    4        4    10   8    4.1381   676.7    2.593      66.517
2015    4        4    10  13    4.1364   676.6    2.593      66.490
2015    4        4    10  19    4.1347   676.5    2.592      66.463
2015    4        4    10  25    4.1330   676.4    2.592      66.436
2015    4        4    10  31    4.1314   676.3    2.592      66.410
2015    4        4    10  37    4.1297   676.2    2.591      66.384
2015    4        4    10  42    4.1281   676.1    2.591      66.359
2015    4        4    10  48    4.1265   675.9    2.591      66.334
2015    4        4    10  54    4.1249   675.8    2.590      66.310
2015    4        4    11   0    4.1232   675.7    2.590      66.286
2015    4        4    11   6    4.1216   675.6    2.590      66.263
2015    4        4    11  11    4.1200   675.5    2.590      66.239
2015    4        4    11  17    4.1184   675.4    2.589      66.216
2015    4        4    11  23    4.1168   675.3    2.589      66.194
2015    4        4    11  29    4.1151   675.1    2.589      66.171
2015    4        4    11  35    4.1135   675.0    2.589      66.149
2015    4        4    11  40    4.1119   674.9    2.588      66.127
2015    4        4    11  46    4.1103   674.8    2.588      66.105
2015    4        4    11  52    4.1087   674.7    2.588      66.082
2015    4        4    11  58    4.1071   674.6    2.588      66.060
2015    4        4    12   4    4.1055   674.5    2.587      66.038
2015    4        4    12   9    4.1038   674.4    2.587      66.016
2015    4        4    12  15    4.1022   674.2    2.587      65.993
2015    4        4    12  21    4.1006   674.1    2.586      65.971
2015    4        4    12  27    4.0989   674.0    2.586      65.948
2015    4        4    12  33    4.0972   673.9    2.586      65.924
2015    4        4    12  38    4.0956   673.8    2.585      65.901
2015    4        4    12  44    4.0939   673.7    2.585      65.877
2015    4        4    12  50    4.0922   673.6    2.584      65.852
2015    4        4    12  56    4.0904   673.5    2.584      65.828
2015    4        4    13   2    4.0887   673.3    2.584      65.802
2015    4        4    13   7    4.0869   673.2    2.583      65.777
2015    4        4    13  13    4.0852   673.1    2.583      65.751
2015    4        4    13  19    4.0834   673.0    2.582      65.724
2015    4        4    13  25    4.0816   672.9    2.582      65.698
2015    4        4    13  31    4.0798   672.8    2.581      65.671
2015    4        4    13  36    4.0780   672.6    2.581      65.643
2015    4        4    13  42    4.0762   672.5    2.581      65.615
2015    4        4    13  48    4.0743   672.4    2.580      65.587
2015    4        4    13  54    4.0725   672.3    2.580      65.559
2015    4        4    14   0    4.0706   672.2    2.580      65.531
2015    4        4    14   5    4.0688   672.0    2.579      65.502
2015    4        4    14  11    4.0669   671.9    2.579      65.473
2015    4        4    14  17    4.0651   671.8    2.579      65.444
2015    4        4    14  23    4.0632   671.7    2.579      65.415
2015    4        4    14  29    4.0613   671.5    2.578      65.386
2015    4        4    14  35    4.0594   671.4    2.578      65.356
2015    4        4    14  40    4.0575   671.3    2.578      65.326
2015    4        4    14  46    4.0557   671.2    2.578      65.297
2015    4        4    14  52    4.0538   671.0    2.578      65.267
2015    4        4    14  58    4.0519   670.9    2.578      65.237
2015    4        4    15   4    4.0500   670.8    2.578      65.206
2015    4        4    15   9    4.0482   670.6    2.578      65.176
2015    4        4    15  15    4.0463   670.5    2.578      65.145
2015    4        4    15  21    4.0444   670.4    2.578      65.115
2015    4        4    15  27    4.0426   670.2    2.578      65.085
2015    4        4    15  32    4.0407   670.1    2.578      65.054
2015    4        4    15  38    4.0389   670.0    2.579      65.023
2015    4        4    15  44    4.0370   669.8    2.579      64.993
2015    4        4    15  50    4.0352   669.7    2.579      64.963
2015    4        4    15  56    4.0333   669.5    2.579      64.932
2015    4        4    16   1    4.0315   669.4    2.579      64.902
2015    4        4    16   7    4.0297   669.3    2.579      64.872
2015    4        4    16  13    4.0278   669.1    2.579      64.841
2015    4        4    16  19    4.0260   669.0    2.579      64.811
2015    4        4    16  25    4.0242   668.8    2.579      64.779
2015    4        4    16  30    4.0224   668.7    2.579      64.748
2015    4        4    16  36    4.0206   668.6    2.579      64.717
2015    4        4    16  42    4.0188   668.4    2.579      64.686
2015    4        4    16  48    4.0170   668.3    2.579      64.654
2015    4        4    16  54    4.0152   668.1    2.579      64.623
2015    4        4    16  59    4.0134   668.0    2.579      64.591
2015    4        4    17   5    4.0117   667.9    2.579      64.559
2015    4        4    17  11    4.0099   667.7    2.579      64.528
2015    4        4    17  17    4.0081   667.6    2.579      64.496
2015    4        4    17  23    4.0064   667.4    2.579      64.464
2015    4        4    17  28    4.0046   667.3    2.578      64.432
2015    4        4    17  34    4.0028   667.1    2.578      64.400
2015    4        4    17  40    4.0011   667.0    2.578      64.368
2015    4        4    17  46    3.9993   666.9    2.578      64.336
2015    4        4    17  52    3.9976   666.7    2.578      64.304
2015    4        4    17  57    3.9958   666.6    2.578      64.272
2015    4        4    18   3    3.9940   666.4    2.578      64.239
2015    4        4    18   9    3.9923   666.3    2.578      64.207
2015    4        4    18  15    3.9905   666.2    2.578      64.174
2015    4        4    18  21    3.9887   666.0    2.578      64.141
2015    4        4    18  26    3.9869   665.9    2.577      64.108
2015    4        4    18  32    3.9851   665.7    2.577      64.074
2015    4        4    18  38    3.9833   665.6    2.577      64.041
2015    4        4    18  44    3.9815   665.4    2.577      64.007
2015    4        4    18  50    3.9797   665.3    2.576      63.973
2015    4        4    18  55    3.9779   665.1    2.576      63.938
2015    4        4    19   1    3.9760   665.0    2.576      63.904
2015    4        4    19   7    3.9742   664.8    2.575      63.869
2015    4        4    19  13    3.9724   664.7    2.575      63.833
2015    4        4    19  19    3.9706   664.5    2.575      63.798
2015    4        4    19  24    3.9687   664.4    2.574      63.762
2015    4        4    19  30    3.9669   664.2    2.574      63.725
2015    4        4    19  36    3.9650   664.1    2.573      63.689
2015    4        4    19  42    3.9632   663.9    2.573      63.652
2015    4        4    19  48    3.9613   663.8    2.572      63.614
2015    4        4    19  53    3.9594   663.6    2.572      63.576
2015    4        4    19  59    3.9576   663.5    2.571      63.538
2015    4        4    20   5    3.9557   663.3    2.571      63.498
2015    4        4    20  11    3.9538   663.2    2.570      63.459
2015    4        4    20  17    3.9519   663.0    2.570      63.419
2015    4        4    20  22    3.9500   662.8    2.569      63.379
2015    4        4    20  28    3.9481   662.7    2.569      63.339
2015    4        4    20  34    3.9462   662.5    2.568      63.298
2015    4        4    20  40    3.9443   662.3    2.568      63.256
2015    4        4    20  46    3.9424   662.2    2.567      63.215
2015    4        4    20  51    3.9404   662.0    2.567      63.173
2015    4        4    20  57    3.9385   661.8    2.566      63.132
2015    4        4    21   3    3.9366   661.7    2.566      63.090
2015    4        4    21   9    3.9347   661.5    2.565      63.048
2015    4        4    21  15    3.9327   661.3    2.565      63.007
2015    4        4    21  20    3.9308   661.1    2.564      62.965
2015    4        4    21  26    3.9289   661.0    2.564      62.924
2015    4        4    21  32    3.9270   660.8    2.563      62.883
2015    4        4    21  38    3.9250   660.6    2.563      62.843
2015    4        4    21  44    3.9231   660.5    2.563      62.803
2015    4        4    21  49    3.9212   660.3    2.563      62.763
2015    4        4    21  55    3.9193   660.1    2.563      62.724
2015    4        4    22   1    3.9173   659.9    2.563      62.686
2015    4        4    22   7    3.9154   659.7    2.563      62.648
2015    4        4    22  13    3.9135   659.6    2.563      62.611
2015    4        4    22  18    3.9116   659.4    2.563      62.574
2015    4        4    22  24    3.9098   659.2    2.563      62.538
2015    4        4    22  30    3.9079   659.0    2.563      62.502
2015    4        4    22  36    3.9060   658.8    2.563      62.467
2015    4        4    22  42    3.9041   658.7    2.563      62.432
2015    4        4    22  47    3.9022   658.5    2.564      62.398
2015    4        4    22  53    3.9004   658.3    2.564      62.364
2015    4        4    22  59    3.8985   658.1    2.564      62.330
2015    4        4    23   5    3.8967   657.9    2.565      62.296
2015    4        4    23  11    3.8948   657.8    2.565      62.262
2015    4        4    23  16    3.8930   657.6    2.565      62.228
2015    4        4    23  22    3.8911   657.4    2.566      62.195
2015    4        4    23  28    3.8893   657.2    2.566      62.161
2015    4        4    23  34    3.8875   657.0    2.567      62.128
2015    4        4    23  40    3.8857   656.8    2.567      62.095
2015    4        4    23  45    3.8839   656.7    2.568      62.061
2015    4        4    23  51    3.8822   656.5    2.568      62.028
2015    4        4    23  57    3.8804   656.3    2.569      61.995
2015    4        5     0   3    3.8787   656.1    2.569      61.961
2015    4        5     0   9    3.8769   655.9    2.570      61.927
2015    4        5     0  14    3.8752   655.8    2.570      61.892
2015    4        5     0  20    3.8734   655.6    2.570      61.855
2015    4        5     0  26    3.8717   655.4    2.571      61.817
2015    4        5     0  32    3.8699   655.2    2.571      61.779
2015    4        5     0  38    3.8681   655.1    2.571      61.739
2015    4        5     0  43    3.8664   654.9    2.571      61.698
2015    4        5     0  49    3.8645   654.7    2.571      61.656
2015    4        5     0  55    3.8628   654.6    2.571      61.613
2015    4        5     1   1    3.8609   654.4    2.570      61.570
2015    4        5     1   7    3.8591   654.2    2.570      61.525
2015    4        5     1  12    3.8573   654.1    2.570      61.480
2015    4        5     1  18    3.8555   653.9    2.570      61.434
2015    4        5     1  24    3.8537   653.7    2.569      61.388
2015    4        5     1  30    3.8519   653.5    2.569      61.340
2015    4        5     1  36    3.8500   653.4    2.569      61.293
2015    4        5     1  41    3.8482   653.2    2.568      61.245
2015    4        5     1  47    3.8464   653.0    2.568      61.196
2015    4        5     1  53    3.8446   652.9    2.567      61.147
2015    4        5     1  59    3.8428   652.7    2.567      61.097
2015    4        5     2   5    3.8409   652.5    2.566      61.047
2015    4        5     2  10    3.8391   652.3    2.566      60.997
2015    4        5     2  16    3.8373   652.1    2.565      60.946
2015    4        5     2  22    3.8354   652.0    2.565      60.895
2015    4        5     2  28    3.8336   651.8    2.564      60.844
2015    4        5     2  34    3.8318   651.6    2.564      60.792
2015    4        5     2  39    3.8300   651.4    2.563      60.740
2015    4        5     2  45    3.8282   651.2    2.562      60.688
2015    4        5     2  51    3.8263   651.1    2.562      60.636
2015    4        5     2  57    3.8245   650.9    2.561      60.583
2015    4        5     3   3    3.8227   650.7    2.561      60.530
2015    4        5     3   8    3.8209   650.5    2.560      60.477
2015    4        5     3  14    3.8191   650.3    2.559      60.423
2015    4        5     3  20    3.8173   650.1    2.559      60.370
2015    4        5     3  26    3.8155   649.9    2.558      60.317
2015    4        5     3  32    3.8137   649.7    2.558      60.263
2015    4        5     3  37    3.8119   649.5    2.557      60.210
2015    4        5     3  43    3.8101   649.3    2.556      60.157
2015    4        5     3  49    3.8083   649.1    2.556      60.103
2015    4        5     3  55    3.8066   648.9    2.555      60.051
2015    4        5     4   1    3.8048   648.7    2.555      59.998
2015    4        5     4   6    3.8030   648.5    2.554      59.945
2015    4        5     4  12    3.8013   648.3    2.554      59.893
2015    4        5     4  18    3.7995   648.1    2.553      59.841
2015    4        5     4  24    3.7978   647.9    2.553      59.789
2015    4        5     4  30    3.7961   647.7    2.553      59.737
2015    4        5     4  35    3.7943   647.5    2.552      59.685
2015    4        5     4  41    3.7926   647.2    2.552      59.634
2015    4        5     4  47    3.7909   647.0    2.552      59.583
2015    4        5     4  53    3.7892   646.8    2.551      59.532
2015    4        5     4  59    3.7875   646.6    2.551      59.482
2015    4        5     5   4    3.7858   646.4    2.551      59.431
2015    4        5     5  10    3.7841   646.1    2.551      59.381
2015    4        5     5  16    3.7824   645.9    2.550      59.331
2015    4        5     5  22    3.7808   645.7    2.550      59.281
2015    4        5     5  28    3.7791   645.5    2.550      59.232
2015    4        5     5  33    3.7774   645.2    2.550      59.183
2015    4        5     5  39    3.7758   645.0    2.550      59.134
2015    4        5     5  45    3.7741   644.8    2.550      59.086
2015    4        5     5  51    3.7725   644.6    2.550      59.038
2015    4        5     5  57    3.7709   644.3    2.550      58.991
2015    4        5     6   2    3.7692   644.1    2.551      58.944
2015    4        5     6   8    3.7677   643.9    2.551      58.899
2015    4        5     6  14    3.7661   643.6    2.551      58.854
2015    4        5     6  20    3.7645   643.4    2.552      58.809
2015    4        5     6  26    3.7629   643.2    2.552      58.766
2015    4        5     6  31    3.7614   643.0    2.553      58.723
2015    4        5     6  37    3.7598   642.7    2.553      58.680
2015    4        5     6  43    3.7583   642.5    2.554      58.638
2015    4        5     6  49    3.7567   642.3    2.555      58.597
2015    4        5     6  55    3.7552   642.1    2.555      58.555
2015    4        5     7   0    3.7536   641.8    2.556      58.513
2015    4        5     7   6    3.7521   641.6    2.557      58.471
2015    4        5     7  12    3.7505   641.4    2.557      58.429
2015    4        5     7  18    3.7489   641.2    2.558      58.386
2015    4        5     7  24    3.7473   640.9    2.559      58.344
2015    4        5     7  29    3.7458   640.7    2.560      58.301
2015    4        5     7  35    3.7442   640.5    2.561      58.259
2015    4        5     7  41    3.7426   640.3    2.561      58.216
2015    4        5     7  47    3.7410   640.0    2.562      58.174
2015    4        5     7  53    3.7395   639.8    2.563      58.132
2015    4        5     7  58    3.7379   639.6    2.564      58.089
2015    4        5     8   4    3.7363   639.4    2.565      58.047
2015    4        5     8  10    3.7347   639.1    2.566      58.005
2015    4        5     8  16    3.7330   638.9    2.566      57.962
2015    4        5     8  22    3.7314   638.7    2.567      57.919
2015    4        5     8  27    3.7297   638.5    2.568      57.876
2015    4        5     8  33    3.7281   638.3    2.568      57.831
2015    4        5     8  39    3.7264   638.1    2.569      57.786
2015    4        5     8  45    3.7247   637.8    2.569      57.739
2015    4        5     8  51    3.7229   637.6    2.570      57.691
2015    4        5     8  56    3.7212   637.4    2.570      57.643
2015    4        5     9   2    3.7194   637.2    2.570      57.594
2015    4        5     9   8    3.7177   637.0    2.570      57.544
2015    4        5     9  14    3.7159   636.8    2.571      57.493
2015    4        5     9  20    3.7141   636.5    2.571      57.442
2015    4        5     9  25    3.7123   636.3    2.571      57.391
2015    4        5     9  31    3.7106   636.1    2.571      57.339
2015    4        5     9  37    3.7088   635.9    2.571      57.287
2015    4        5     9  43    3.7070   635.6    2.571      57.235
2015    4        5     9  49    3.7052   635.4    2.571      57.182
2015    4        5     9  54    3.7034   635.2    2.571      57.130
2015    4        5    10   0    3.7016   635.0    2.571      57.078
2015    4        5    10   6    3.6998   634.7    2.572      57.027
2015    4        5    10  12    3.6980   634.5    2.572      56.976
2015    4        5    10  18    3.6963   634.3    2.572      56.925
2015    4        5    10  23    3.6945   634.0    2.573      56.875
2015    4        5    10  29    3.6928   633.8    2.573      56.825
2015    4        5    10  35    3.6911   633.5    2.573      56.776
2015    4        5    10  41    3.6894   633.3    2.574      56.728
2015    4        5    10  47    3.6877   633.1    2.575      56.681
2015    4        5    10  52    3.6860   632.8    2.575      56.634
2015    4        5    10  58    3.6843   632.6    2.576      56.588
2015    4        5    11   4    3.6827   632.3    2.577      56.543
2015    4        5    11  10    3.6811   632.1    2.578      56.498
2015    4        5    11  16    3.6795   631.8    2.578      56.455
2015    4        5    11  21    3.6779   631.6    2.579      56.412
2015    4        5    11  27    3.6763   631.4    2.580      56.370
2015    4        5    11  33    3.6747   631.1    2.581      56.328
2015    4        5    11  39    3.6731   630.9    2.582      56.285
2015    4        5    11  45    3.6715   630.6    2.583      56.242
2015    4        5    11  50    3.6698   630.4    2.584      56.198
2015    4        5    11  56    3.6682   630.2    2.584      56.155
2015    4        5    12   2    3.6666   629.9    2.585      56.111
2015    4        5    12   8    3.6650   629.7    2.586      56.068
2015    4        5    12  14    3.6633   629.5    2.587      56.025
2015    4        5    12  19    3.6617   629.2    2.588      55.981
2015    4        5    12  25    3.6601   629.0    2.589      55.939
2015    4        5    12  31    3.6585   628.7    2.590      55.896
2015    4        5    12  37    3.6569   628.5    2.591      55.854
2015    4        5    12  43    3.6553   628.2    2.592      55.812
2015    4        5    12  48    3.6537   628.0    2.593      55.770
2015    4        5    12  54    3.6521   627.8    2.594      55.728
2015    4        5    13   0    3.6505   627.5    2.594      55.686
2015    4        5    13   6    3.6489   627.3    2.595      55.644
2015    4        5    13  12    3.6472   627.0    2.596      55.602
2015    4        5    13  17    3.6456   626.8    2.597      55.559
2015    4        5    13  23    3.6439   626.6    2.598      55.516
2015    4        5    13  29    3.6422   626.3    2.598      55.472
2015    4        5    13  35    3.6405   626.1    2.599      55.426
2015    4        5    13  41    3.6388   625.9    2.600      55.380
2015    4        5    13  46    3.6371   625.6    2.600      55.333
2015    4        5    13  52    3.6354   625.4    2.600      55.285
2015    4        5    13  58    3.6336   625.1    2.601      55.236
2015    4        5    14   4    3.6319   624.9    2.601      55.186
2015    4        5    14  10    3.6301   624.7    2.601      55.136
2015    4        5    14  15    3.6284   624.4    2.601      55.084
2015    4        5    14  21    3.6266   624.2    2.602      55.033
2015    4        5    14  27    3.6248   623.9    2.602      54.981
2015    4        5    14  33    3.6230   623.7    2.602      54.928
2015    4        5    14  39    3.6212   623.4    2.602      54.875
2015    4        5    14  44    3.6194   623.2    2.602      54.822
2015    4        5    14  50    3.6177   623.0    2.602      54.769
2015    4        5    14  56    3.6159   622.7    2.603      54.717
2015    4        5    15   2    3.6141   622.5    2.603      54.664
2015    4        5    15   8    3.6124   622.2    2.603      54.612
2015    4        5    15  13    3.6106   622.0    2.603      54.560
2015    4        5    15  19    3.6089   621.7    2.603      54.508
2015    4        5    15  25    3.6072   621.5    2.604      54.457
2015    4        5    15  31    3.6054   621.2    2.604      54.407
2015    4        5    15  37    3.6037   621.0    2.605      54.357
2015    4        5    15  42    3.6021   620.7    2.605      54.307
2015    4        5    15  48    3.6004   620.5    2.605      54.258
2015    4        5    15  54    3.5987   620.2    2.606      54.210
2015    4        5    16   0    3.5970   620.0    2.606      54.161
2015    4        5    16   6    3.5953   619.7    2.607      54.113
2015    4        5    16  11    3.5936   619.5    2.608      54.065
2015    4        5    16  17    3.5919   619.2    2.608      54.017
2015    4        5    16  23    3.5903   618.9    2.609      53.968
2015    4        5    16  29    3.5886   618.7    2.609      53.920
2015    4        5    16  35    3.5869   618.4    2.610      53.872
2015    4        5    16  40    3.5852   618.2    2.610      53.824
2015    4        5    16  46    3.5834   617.9    2.611      53.776
2015    4        5    16  52    3.5817   617.6    2.612      53.728
2015    4        5    16  58    3.5800   617.4    2.612      53.680
2015    4        5    17   4    3.5784   617.1    2.613      53.633
2015    4        5    17   9    3.5767   616.8    2.613      53.585
2015    4        5    17  15    3.5750   616.6    2.614      53.538
2015    4        5    17  21    3.5734   616.3    2.615      53.491
2015    4        5    17  27    3.5717   616.0    2.616      53.445
2015    4        5    17  33    3.5701   615.7    2.616      53.399
2015    4        5    17  38    3.5685   615.5    2.617      53.354
2015    4        5    17  44    3.5668   615.2    2.618      53.309
2015    4        5    17  50    3.5652   614.9    2.619      53.264
2015    4        5    17  56    3.5636   614.7    2.620      53.220
2015    4        5    18   2    3.5620   614.4    2.621      53.176
2015    4        5    18   7    3.5604   614.1    2.622      53.131
2015    4        5    18  13    3.5588   613.9    2.623      53.087
2015    4        5    18  19    3.5572   613.6    2.623      53.043
2015    4        5    18  25    3.5555   613.3    2.624      52.999
2015    4        5    18  31    3.5539   613.1    2.625      52.954
2015    4        5    18  36    3.5522   612.8    2.626      52.910
2015    4        5    18  42    3.5506   612.5    2.627      52.864
2015    4        5    18  48    3.5489   612.2    2.628      52.818
2015    4        5    18  54    3.5473   612.0    2.628      52.772
2015    4        5    19   0    3.5456   611.7    2.629      52.726
2015    4        5    19   5    3.5440   611.4    2.630      52.679
2015    4        5    19  11    3.5423   611.1    2.631      52.633
2015    4        5    19  17    3.5407   610.9    2.631      52.587
2015    4        5    19  23    3.5390   610.6    2.632      52.540
2015    4        5    19  29    3.5374   610.3    2.633      52.494
2015    4        5    19  34    3.5357   610.0    2.634      52.448
2015    4        5    19  40    3.5341   609.7    2.635      52.403
2015    4        5    19  46    3.5325   609.5    2.636      52.357
2015    4        5    19  52    3.5309   609.2    2.637      52.312
2015    4        5    19  57    3.5293   608.9    2.638      52.267
2015    4        5    20   3    3.5277   608.6    2.639      52.223
2015    4        5    20   9    3.5261   608.4    2.640      52.179
2015    4        5    20  15    3.5245   608.1    2.641      52.135
2015    4        5    20  21    3.5229   607.8    2.642      52.091
2015    4        5    20  26    3.5214   607.5    2.643      52.048
2015    4        5    20  32    3.5198   607.3    2.645      52.005
2015    4        5    20  38    3.5182   607.0    2.646      51.961
2015    4        5    20  44    3.5167   606.7    2.647      51.918
2015    4        5    20  50    3.5151   606.4    2.648      51.875
2015    4        5    20  55    3.5135   606.1    2.649      51.831
2015    4        5    21   1    3.5119   605.9    2.650      51.787
2015    4        5    21   7    3.5103   605.6    2.651      51.742
2015    4        5    21  13    3.5087   605.3    2.652      51.697
2015    4        5    21  19    3.5071   605.0    2.653      51.651
2015    4        5    21  24    3.5055   604.8    2.654      51.606
2015    4        5    21  30    3.5039   604.5    2.655      51.560
2015    4        5    21  36    3.5023   604.2    2.656      51.515
2015    4        5    21  42    3.5007   604.0    2.657      51.469
2015    4        5    21  48    3.4991   603.7    2.658      51.423
2015    4        5    21  53    3.4975   603.4    2.659      51.377
2015    4        5    21  59    3.4960   603.1    2.661      51.332
2015    4        5    22   5    3.4944   602.9    2.662      51.286
2015    4        5    22  11    3.4928   602.6    2.663      51.241
2015    4        5    22  17    3.4912   602.3    2.664      51.195
2015    4        5    22  22    3.4896   602.0    2.665      51.149
2015    4        5    22  28    3.4880   601.8    2.666      51.103
2015    4        5    22  34    3.4864   601.5    2.667      51.057
2015    4        5    22  40    3.4848   601.2    2.668      51.011
2015    4        5    22  46    3.4831   600.9    2.668      50.965
2015    4        5    22  51    3.4815   600.7    2.669      50.919
2015    4        5    22  57    3.4798   600.4    2.670      50.872
2015    4        5    23   3    3.4782   600.1    2.671      50.824
2015    4        5    23   9    3.4765   599.8    2.672      50.776
2015    4        5    23  15    3.4748   599.5    2.672      50.727
2015    4        5    23  20    3.4732   599.3    2.673      50.678
2015    4        5    23  26    3.4715   599.0    2.673      50.628
2015    4        5    23  32    3.4698   598.7    2.674      50.578
2015    4        5    23  38    3.4681   598.4    2.675      50.527
2015    4        5    23  44    3.4665   598.1    2.675      50.475
2015    4        5    23  49    3.4648   597.8    2.676      50.424
2015    4        5    23  55    3.4631   597.5    2.676      50.372
2015    4        6     0   1    3.4614   597.3    2.677      50.320
2015    4        6     0   7    3.4598   597.0    2.677      50.269
2015    4        6     0  13    3.4581   596.7    2.678      50.217
2015    4        6     0  18    3.4564   596.4    2.679      50.166
2015    4        6     0  24    3.4548   596.1    2.679      50.115
2015    4        6     0  30    3.4532   595.8    2.680      50.065
2015    4        6     0  36    3.4516   595.5    2.681      50.015
2015    4        6     0  42    3.4500   595.2    2.681      49.966
2015    4        6     0  47    3.4484   594.9    2.682      49.917
2015    4        6     0  53    3.4468   594.6    2.683      49.869
2015    4        6     0  59    3.4452   594.4    2.684      49.822
2015    4        6     1   5    3.4437   594.1    2.685      49.775
2015    4        6     1  11    3.4421   593.8    2.686      49.729
2015    4        6     1  16    3.4406   593.5    2.687      49.682
2015    4        6     1  22    3.4390   593.2    2.688      49.636
2015    4        6     1  28    3.4375   592.9    2.689      49.591
2015    4        6     1  34    3.4359   592.6    2.690      49.545
2015    4        6     1  40    3.4343   592.3    2.691      49.499
2015    4        6     1  45    3.4327   592.0    2.692      49.454
2015    4        6     1  51    3.4312   591.7    2.693      49.408
2015    4        6     1  57    3.4296   591.4    2.694      49.363
2015    4        6     2   3    3.4280   591.1    2.695      49.317
2015    4        6     2   9    3.4264   590.8    2.696      49.270
2015    4        6     2  14    3.4249   590.5    2.697      49.224
2015    4        6     2  20    3.4233   590.2    2.698      49.177
2015    4        6     2  26    3.4218   589.9    2.699      49.131
2015    4        6     2  32    3.4202   589.6    2.700      49.085
2015    4        6     2  38    3.4187   589.3    2.701      49.039
2015    4        6     2  43    3.4172   589.0    2.702      48.993
2015    4        6     2  49    3.4158   588.7    2.703      48.947
2015    4        6     2  55    3.4143   588.4    2.704      48.903
2015    4        6     3   1    3.4128   588.1    2.706      48.858
2015    4        6     3   7    3.4114   587.9    2.707      48.813
2015    4        6     3  12    3.4100   587.6    2.708      48.769
2015    4        6     3  18    3.4086   587.3    2.709      48.725
2015    4        6     3  24    3.4071   587.0    2.711      48.681
2015    4        6     3  30    3.4057   586.7    2.712      48.637
2015    4        6     3  36    3.4043   586.4    2.713      48.593
2015    4        6     3  41    3.4029   586.1    2.715      48.550
2015    4        6     3  47    3.4014   585.8    2.716      48.506
2015    4        6     3  53    3.4000   585.5    2.717      48.461
2015    4        6     3  59    3.3985   585.2    2.719      48.417
2015    4        6     4   5    3.3971   584.9    2.720      48.373
2015    4        6     4  10    3.3956   584.6    2.721      48.328
2015    4        6     4  16    3.3941   584.3    2.722      48.283
2015    4        6     4  22    3.3927   584.0    2.724      48.239
2015    4        6     4  28    3.3912   583.7    2.725      48.194
2015    4        6     4  34    3.3897   583.3    2.726      48.149
2015    4        6     4  39    3.3883   583.0    2.727      48.104
2015    4        6     4  45    3.3868   582.7    2.728      48.060
2015    4        6     4  51    3.3854   582.4    2.730      48.015
2015    4        6     4  57    3.3840   582.1    2.731      47.971
2015    4        6     5   3    3.3825   581.8    2.732      47.927
2015    4        6     5   8    3.3811   581.5    2.734      47.883
2015    4        6     5  14    3.3798   581.2    2.735      47.840
2015    4        6     5  20    3.3784   580.9    2.736      47.796
2015    4        6     5  26    3.3770   580.6    2.738      47.753
2015    4        6     5  32    3.3756   580.3    2.739      47.710
2015    4        6     5  37    3.3743   580.0    2.740      47.667
2015    4        6     5  43    3.3729   579.7    2.742      47.625
2015    4        6     5  49    3.3716   579.4    2.743      47.582
2015    4        6     5  55    3.3702   579.1    2.745      47.540
2015    4        6     6   1    3.3688   578.8    2.746      47.497
2015    4        6     6   6    3.3674   578.5    2.748      47.454
2015    4        6     6  12    3.3660   578.2    2.749      47.412
2015    4        6     6  18    3.3646   577.9    2.750      47.369
2015    4        6     6  24    3.3632   577.6    2.752      47.326
2015    4        6     6  30    3.3618   577.3    2.753      47.282
2015    4        6     6  35    3.3604   577.0    2.754      47.239
2015    4        6     6  41    3.3590   576.6    2.756      47.196
2015    4        6     6  47    3.3575   576.3    2.757      47.152
2015    4        6     6  53    3.3561   576.0    2.758      47.108
2015    4        6     6  58    3.3547   575.7    2.760      47.064
2015    4        6     7   4    3.3533   575.4    2.761      47.020
2015    4        6     7  10    3.3519   575.1    2.762      46.976
2015    4        6     7  16    3.3506   574.8    2.763      46.932
2015    4        6     7  22    3.3492   574.5    2.765      46.887
2015    4        6     7  28    3.3478   574.1    2.766      46.843
2015    4        6     7  33    3.3465   573.8    2.767      46.799
2015    4        6     7  39    3.3451   573.5    2.769      46.754
2015    4        6     7  45    3.3438   573.2    2.770      46.710
2015    4        6     7  51    3.3424   572.9    2.771      46.666
2015    4        6     7  57    3.3411   572.6    2.773      46.621
2015    4        6     8   2    3.3398   572.3    2.774      46.577
2015    4        6     8   8    3.3385   572.0    2.775      46.532
2015    4        6     8  14    3.3371   571.6    2.777      46.488
2015    4        6     8  20    3.3358   571.3    2.778      46.444
2015    4        6     8  26    3.3345   571.0    2.779      46.399
2015    4        6     8  31    3.3332   570.7    2.781      46.354
2015    4        6     8  37    3.3318   570.4    2.782      46.309
2015    4        6     8  43    3.3305   570.1    2.783      46.263
2015    4        6     8  49    3.3291   569.8    2.784      46.217
2015    4        6     8  55    3.3278   569.5    2.786      46.171
2015    4        6     9   0    3.3264   569.1    2.787      46.125
2015    4        6     9   6    3.3251   568.8    2.788      46.078
2015    4        6     9  12    3.3237   568.5    2.789      46.031
2015    4        6     9  18    3.3223   568.2    2.790      45.983
2015    4        6     9  23    3.3210   567.9    2.791      45.936
2015    4        6     9  29    3.3196   567.5    2.793      45.888
2015    4        6     9  35    3.3182   567.2    2.794      45.840
2015    4        6     9  41    3.3169   566.9    2.795      45.792
2015    4        6     9  47    3.3156   566.6    2.796      45.743
2015    4        6     9  52    3.3142   566.2    2.797      45.696
2015    4        6     9  58    3.3129   565.9    2.799      45.648
2015    4        6    10   4    3.3116   565.6    2.800      45.600
2015    4        6    10  10    3.3104   565.3    2.801      45.553
2015    4        6    10  16    3.3091   564.9    2.803      45.506
2015    4        6    10  21    3.3079   564.6    2.804      45.460
2015    4        6    10  27    3.3066   564.3    2.806      45.414
2015    4        6    10  33    3.3054   564.0    2.807      45.368
2015    4        6    10  39    3.3043   563.6    2.809      45.323
2015    4        6    10  45    3.3031   563.3    2.810      45.278
2015    4        6    10  50    3.3019   563.0    2.812      45.234
2015    4        6    10  56    3.3008   562.7    2.814      45.190
2015    4        6    11   2    3.2996   562.3    2.816      45.146
2015    4        6    11   8    3.2985   562.0    2.817      45.103
2015    4        6    11  14    3.2973   561.7    2.819      45.059
2015    4        6    11  19    3.2961   561.4    2.821      45.016
2015    4        6    11  25    3.2950   561.1    2.823      44.973
2015    4        6    11  31    3.2938   560.7    2.825      44.930
2015    4        6    11  37    3.2927   560.4    2.827      44.888
2015    4        6    11  43    3.2915   560.1    2.829      44.845
2015    4        6    11  48    3.2904   559.7    2.830      44.803
2015    4        6    11  54    3.2893   559.4    2.832      44.761
2015    4        6    12   0    3.2881   559.1    2.834      44.718
2015    4        6    12   6    3.2870   558.8    2.836      44.676
2015    4        6    12  12    3.2859   558.4    2.838      44.634
2015    4        6    12  17    3.2848   558.1    2.840      44.592
2015    4        6    12  23    3.2837   557.8    2.842      44.551
2015    4        6    12  29    3.2826   557.4    2.844      44.509
2015    4        6    12  35    3.2815   557.1    2.846      44.468
2015    4        6    12  41    3.2805   556.8    2.848      44.426
2015    4        6    12  46    3.2794   556.5    2.850      44.385
2015    4        6    12  52    3.2784   556.1    2.852      44.343
2015    4        6    12  58    3.2773   555.8    2.854      44.302
2015    4        6    13   4    3.2763   555.5    2.856      44.260
2015    4        6    13  10    3.2752   555.2    2.858      44.219
2015    4        6    13  15    3.2742   554.8    2.860      44.177
2015    4        6    13  21    3.2732   554.5    2.862      44.135
2015    4        6    13  27    3.2721   554.2    2.864      44.094
2015    4        6    13  33    3.2711   553.8    2.866      44.052
2015    4        6    13  39    3.2701   553.5    2.868      44.010
2015    4        6    13  44    3.2691   553.2    2.870      43.968
2015    4        6    13  50    3.2680   552.9    2.872      43.926
2015    4        6    13  56    3.2670   552.5    2.874      43.883
2015    4        6    14   2    3.2660   552.2    2.875      43.841
2015    4        6    14   8    3.2650   551.9    2.877      43.799
2015    4        6    14  13    3.2639   551.6    2.879      43.756
2015    4        6    14  19    3.2629   551.2    2.881      43.714
2015    4        6    14  25    3.2619   550.9    2.883      43.671
2015    4        6    14  31    3.2609   550.6    2.885      43.628
2015    4        6    14  37    3.2599   550.2    2.887      43.586
2015    4        6    14  42    3.2589   549.9    2.889      43.543
2015    4        6    14  48    3.2580   549.6    2.891      43.501
2015    4        6    14  54    3.2570   549.3    2.893      43.459
2015    4        6    15   0    3.2560   548.9    2.895      43.416
2015    4        6    15   6    3.2551   548.6    2.897      43.374
2015    4        6    15  11    3.2541   548.3    2.899      43.333
2015    4        6    15  17    3.2532   547.9    2.901      43.291
2015    4        6    15  23    3.2523   547.6    2.903      43.249
2015    4        6    15  29    3.2513   547.3    2.905      43.208
2015    4        6    15  35    3.2504   547.0    2.907      43.167
2015    4        6    15  40    3.2495   546.6    2.909      43.126
2015    4        6    15  46    3.2486   546.3    2.912      43.085
2015    4        6    15  52    3.2477   546.0    2.914      43.044
2015    4        6    15  58    3.2469   545.7    2.916      43.003
2015    4        6    16   4    3.2460   545.3    2.918      42.962
2015    4        6    16   9    3.2451   545.0    2.920      42.921
2015    4        6    16  15    3.2442   544.7    2.923      42.879
2015    4        6    16  21    3.2433   544.4    2.925      42.838
2015    4        6    16  27    3.2424   544.0    2.927      42.797
2015    4        6    16  33    3.2415   543.7    2.929      42.755
2015    4        6    16  38    3.2406   543.4    2.931      42.713
2015    4        6    16  44    3.2397   543.0    2.933      42.671
2015    4        6    16  50    3.2388   542.7    2.936      42.628
2015    4        6    16  56    3.2379   542.4    2.938      42.586
2015    4        6    17   2    3.2371   542.0    2.940      42.543
2015    4        6    17   7    3.2362   541.7    2.942      42.500
2015    4        6    17  13    3.2353   541.4    2.944      42.456
2015    4        6    17  19    3.2345   541.0    2.946      42.413
2015    4        6    17  25    3.2336   540.7    2.948      42.369
2015    4        6    17  30    3.2327   540.4    2.950      42.326
2015    4        6    17  36    3.2319   540.0    2.953      42.282
2015    4        6    17  42    3.2311   539.7    2.955      42.237
2015    4        6    17  48    3.2302   539.4    2.957      42.193
2015    4        6    17  54    3.2294   539.0    2.959      42.149
2015    4        6    17  59    3.2286   538.7    2.961      42.105
2015    4        6    18   5    3.2278   538.3    2.963      42.060
2015    4        6    18  11    3.2270   538.0    2.965      42.015
2015    4        6    18  17    3.2262   537.7    2.968      41.971
2015    4        6    18  23    3.2254   537.3    2.970      41.926
2015    4        6    18  28    3.2246   537.0    2.972      41.882
2015    4        6    18  34    3.2239   536.7    2.974      41.837
2015    4        6    18  40    3.2231   536.3    2.976      41.793
2015    4        6    18  46    3.2224   536.0    2.979      41.749
2015    4        6    18  52    3.2216   535.6    2.981      41.705
2015    4        6    18  57    3.2210   535.3    2.983      41.662
2015    4        6    19   3    3.2203   535.0    2.986      41.618
2015    4        6    19   9    3.2196   534.6    2.988      41.575
2015    4        6    19  15    3.2189   534.3    2.991      41.532
2015    4        6    19  21    3.2183   533.9    2.993      41.490
2015    4        6    19  26    3.2177   533.6    2.996      41.448
2015    4        6    19  32    3.2171   533.3    2.999      41.407
2015    4        6    19  38    3.2165   532.9    3.001      41.365
2015    4        6    19  44    3.2159   532.6    3.004      41.325
2015    4        6    19  50    3.2154   532.2    3.007      41.284
2015    4        6    19  55    3.2149   531.9    3.010      41.244
2015    4        6    20   1    3.2144   531.6    3.013      41.204
2015    4        6    20   7    3.2138   531.2    3.015      41.164
2015    4        6    20  13    3.2134   530.9    3.018      41.125
2015    4        6    20  19    3.2129   530.6    3.021      41.086
2015    4        6    20  24    3.2125   530.2    3.024      41.047
2015    4        6    20  30    3.2120   529.9    3.028      41.008
2015    4        6    20  36    3.2116   529.6    3.031      40.969
2015    4        6    20  42    3.2111   529.2    3.034      40.931
2015    4        6    20  48    3.2107   528.9    3.037      40.892
2015    4        6    20  53    3.2103   528.6    3.040      40.854
2015    4        6    20  59    3.2099   528.2    3.043      40.815
2015    4        6    21   5    3.2095   527.9    3.046      40.776
2015    4        6    21  11    3.2091   527.6    3.049      40.737
2015    4        6    21  17    3.2087   527.3    3.052      40.698
2015    4        6    21  22    3.2083   526.9    3.055      40.659
2015    4        6    21  28    3.2079   526.6    3.059      40.620
2015    4        6    21  34    3.2075   526.3    3.062      40.580
2015    4        6    21  40    3.2071   525.9    3.065      40.540
2015    4        6    21  46    3.2067   525.6    3.068      40.500
2015    4        6    21  51    3.2063   525.3    3.071      40.460
2015    4        6    21  57    3.2060   524.9    3.074      40.420
2015    4        6    22   3    3.2056   524.6    3.077      40.379
2015    4        6    22   9    3.2052   524.3    3.080      40.338
2015    4        6    22  15    3.2048   523.9    3.083      40.297
2015    4        6    22  20    3.2045   523.6    3.086      40.257
2015    4        6    22  26    3.2041   523.3    3.089      40.215
2015    4        6    22  32    3.2038   522.9    3.092      40.174
2015    4        6    22  38    3.2035   522.6    3.095      40.133
2015    4        6    22  44    3.2031   522.3    3.098      40.092
2015    4        6    22  49    3.2029   521.9    3.101      40.051
2015    4        6    22  55    3.2026   521.6    3.104      40.010
2015    4        6    23   1    3.2023   521.3    3.108      39.969
2015    4        6    23   7    3.2020   520.9    3.111      39.928
2015    4        6    23  13    3.2018   520.6    3.114      39.887
2015    4        6    23  18    3.2016   520.3    3.117      39.846
2015    4        6    23  24    3.2013   519.9    3.120      39.806
2015    4        6    23  30    3.2011   519.6    3.123      39.766
2015    4        6    23  36    3.2010   519.3    3.127      39.726
2015    4        6    23  42    3.2008   519.0    3.130      39.686
2015    4        6    23  47    3.2006   518.6    3.133      39.646
2015    4        6    23  53    3.2005   518.3    3.137      39.606
2015    4        6    23  59    3.2004   518.0    3.140      39.567
2015    4        7     0   5    3.2003   517.6    3.143      39.528
2015    4        7     0  11    3.2001   517.3    3.147      39.488
2015    4        7     0  16    3.2001   517.0    3.150      39.449
2015    4        7     0  22    3.2000   516.7    3.154      39.410
2015    4        7     0  28    3.1999   516.3    3.157      39.371
2015    4        7     0  34    3.1998   516.0    3.161      39.331
2015    4        7     0  40    3.1997   515.7    3.164      39.292
2015    4        7     0  45    3.1997   515.4    3.167      39.253
2015    4        7     0  51    3.1996   515.0    3.171      39.214
2015    4        7     0  57    3.1995   514.7    3.174      39.174
2015    4        7     1   3    3.1995   514.4    3.178      39.135
2015    4        7     1   9    3.1995   514.1    3.181      39.095
2015    4        7     1  14    3.1994   513.7    3.185      39.055
2015    4        7     1  20    3.1994   513.4    3.188      39.015
2015    4        7     1  26    3.1994   513.1    3.192      38.975
2015    4        7     1  32    3.1993   512.7    3.195      38.935
2015    4        7     1  37    3.1993   512.4    3.198      38.895
2015    4        7     1  43    3.1993   512.1    3.202      38.854
2015    4        7     1  49    3.1993   511.8    3.205      38.814
2015    4        7     1  55    3.1993   511.4    3.209      38.773
2015    4        7     2   1    3.1994   511.1    3.212      38.732
2015    4        7     2   6    3.1994   510.8    3.215      38.692
2015    4        7     2  12    3.1995   510.4    3.219      38.651
2015    4        7     2  18    3.1995   510.1    3.222      38.610
2015    4        7     2  24    3.1996   509.8    3.226      38.569
2015    4        7     2  30    3.1997   509.5    3.229      38.529
2015    4        7     2  35    3.1998   509.1    3.233      38.488
2015    4        7     2  41    3.1999   508.8    3.236      38.447
2015    4        7     2  47    3.2001   508.5    3.240      38.407
2015    4        7     2  53    3.2002   508.1    3.243      38.367
2015    4        7     2  59    3.2004   507.8    3.247      38.327
2015    4        7     3   4    3.2006   507.5    3.251      38.287
2015    4        7     3  10    3.2008   507.2    3.254      38.247
2015    4        7     3  16    3.2011   506.8    3.258      38.208
2015    4        7     3  22    3.2013   506.5    3.262      38.168
2015    4        7     3  28    3.2016   506.2    3.266      38.129
2015    4        7     3  33    3.2019   505.9    3.270      38.090
2015    4        7     3  39    3.2022   505.5    3.274      38.052
2015    4        7     3  45    3.2026   505.2    3.278      38.014
2015    4        7     3  51    3.2029   504.9    3.282      37.975
2015    4        7     3  57    3.2033   504.6    3.286      37.938
2015    4        7     4   2    3.2037   504.2    3.290      37.900
2015    4        7     4   8    3.2041   503.9    3.294      37.862
2015    4        7     4  14    3.2045   503.6    3.298      37.825
2015    4        7     4  20    3.2050   503.3    3.303      37.788
2015    4        7     4  26    3.2054   502.9    3.307      37.751
2015    4        7     4  31    3.2059   502.6    3.311      37.714
2015    4        7     4  37    3.2063   502.3    3.315      37.677
2015    4        7     4  43    3.2068   502.0    3.320      37.641
2015    4        7     4  49    3.2073   501.7    3.324      37.604
2015    4        7     4  55    3.2078   501.3    3.329      37.567
2015    4        7     5   0    3.2083   501.0    3.333      37.531
2015    4        7     5   6    3.2088   500.7    3.338      37.495
2015    4        7     5  12    3.2093   500.4    3.342      37.458
2015    4        7     5  18    3.2099   500.1    3.346      37.422
2015    4        7     5  24    3.2104   499.7    3.351      37.386
2015    4        7     5  29    3.2110   499.4    3.356      37.350
2015    4        7     5  35    3.2115   499.1    3.360      37.314
2015    4        7     5  41    3.2121   498.8    3.365      37.278
2015    4        7     5  47    3.2127   498.5    3.369      37.242
2015    4        7     5  53    3.2133   498.1    3.374      37.206
2015    4        7     5  58    3.2139   497.8    3.378      37.170
2015    4        7     6   4    3.2145   497.5    3.383      37.134
2015    4        7     6  10    3.2152   497.2    3.388      37.098
2015    4        7     6  16    3.2158   496.9    3.392      37.063
2015    4        7     6  22    3.2165   496.5    3.397      37.027
2015    4        7     6  27    3.2172   496.2    3.402      36.991
2015    4        7     6  33    3.2179   495.9    3.406      36.956
2015    4        7     6  39    3.2186   495.6    3.411      36.921
2015    4        7     6  45    3.2193   495.3    3.416      36.886
2015    4        7     6  51    3.2201   495.0    3.421      36.850
2015    4        7     6  56    3.2209   494.6    3.425      36.816
2015    4        7     7   2    3.2217   494.3    3.430      36.781
2015    4        7     7   8    3.2225   494.0    3.435      36.746
2015    4        7     7  14    3.2233   493.7    3.440      36.711
2015    4        7     7  20    3.2241   493.4    3.445      36.677
2015    4        7     7  25    3.2250   493.1    3.450      36.643
2015    4        7     7  31    3.2259   492.7    3.455      36.608
2015    4        7     7  37    3.2268   492.4    3.460      36.574
2015    4        7     7  43    3.2277   492.1    3.465      36.540
2015    4        7     7  49    3.2287   491.8    3.470      36.507
2015    4        7     7  54    3.2296   491.5    3.475      36.473
2015    4        7     8   0    3.2306   491.2    3.480      36.439
2015    4        7     8   6    3.2315   490.9    3.485      36.405
2015    4        7     8  12    3.2325   490.6    3.490      36.372
2015    4        7     8  18    3.2335   490.3    3.495      36.338
2015    4        7     8  23    3.2346   489.9    3.500      36.305
2015    4        7     8  29    3.2356   489.6    3.505      36.272
2015    4        7     8  35    3.2366   489.3    3.510      36.238
2015    4        7     8  41    3.2377   489.0    3.515      36.205
2015    4        7     8  47    3.2388   488.7    3.520      36.172
2015    4        7     8  52    3.2399   488.4    3.525      36.138
2015    4        7     8  58    3.2410   488.1    3.531      36.105
2015    4        7     9   4    3.2420   487.8    3.536      36.072
2015    4        7     9  10    3.2432   487.5    3.541      36.039
2015    4        7     9  16    3.2443   487.2    3.546      36.006
2015    4        7     9  21    3.2455   486.9    3.551      35.973
2015    4        7     9  27    3.2466   486.6    3.556      35.940
2015    4        7     9  33    3.2478   486.3    3.561      35.907
2015    4        7     9  39    3.2490   486.0    3.567      35.874
2015    4        7     9  45    3.2502   485.6    3.572      35.841
2015    4        7     9  50    3.2514   485.3    3.577      35.808
2015    4        7     9  56    3.2526   485.0    3.582      35.775
2015    4        7    10   2    3.2539   484.7    3.587      35.742
2015    4        7    10   8    3.2551   484.4    3.593      35.709
2015    4        7    10  13    3.2564   484.1    3.598      35.677
2015    4        7    10  19    3.2577   483.8    3.603      35.644
2015    4        7    10  25    3.2590   483.5    3.608      35.612
2015    4        7    10  31    3.2603   483.2    3.614      35.580
2015    4        7    10  37    3.2617   482.9    3.619      35.548
2015    4        7    10  42    3.2630   482.6    3.624      35.516
2015    4        7    10  48    3.2644   482.3    3.630      35.484
2015    4        7    10  54    3.2658   482.0    3.635      35.452
2015    4        7    11   0    3.2673   481.7    3.641      35.421
2015    4        7    11   6    3.2687   481.4    3.646      35.389
2015    4        7    11  11    3.2702   481.1    3.652      35.358
2015    4        7    11  17    3.2717   480.8    3.658      35.327
2015    4        7    11  23    3.2732   480.5    3.663      35.297
2015    4        7    11  29    3.2747   480.2    3.669      35.266
2015    4        7    11  35    3.2762   479.9    3.675      35.236
2015    4        7    11  40    3.2778   479.6    3.681      35.206
2015    4        7    11  46    3.2794   479.3    3.687      35.176
2015    4        7    11  52    3.2810   479.0    3.693      35.147
2015    4        7    11  58    3.2826   478.7    3.699      35.118
2015    4        7    12   4    3.2843   478.5    3.705      35.089
2015    4        7    12   9    3.2859   478.2    3.711      35.060
2015    4        7    12  15    3.2876   477.9    3.717      35.032
2015    4        7    12  21    3.2893   477.6    3.724      35.004
2015    4        7    12  27    3.2910   477.3    3.730      34.976
2015    4        7    12  33    3.2928   477.0    3.737      34.949
2015    4        7    12  38    3.2946   476.7    3.743      34.922
2015    4        7    12  44    3.2963   476.4    3.750      34.895
2015    4        7    12  50    3.2981   476.1    3.756      34.869
2015    4        7    12  56    3.3000   475.8    3.763      34.843
2015    4        7    13   2    3.3018   475.5    3.770      34.817
2015    4        7    13   7    3.3037   475.2    3.777      34.791
2015    4        7    13  13    3.3056   475.0    3.784      34.766
2015    4        7    13  19    3.3075   474.7    3.791      34.742
2015    4        7    13  25    3.3094   474.4    3.798      34.718
2015    4        7    13  31    3.3114   474.1    3.805      34.694
2015    4        7    13  36    3.3134   473.8    3.812      34.670
2015    4        7    13  42    3.3154   473.5    3.820      34.647
2015    4        7    13  48    3.3174   473.2    3.827      34.625
2015    4        7    13  54    3.3195   473.0    3.834      34.602
2015    4        7    14   0    3.3216   472.7    3.842      34.580
2015    4        7    14   5    3.3237   472.4    3.849      34.559
2015    4        7    14  11    3.3258   472.1    3.857      34.538
2015    4        7    14  17    3.3280   471.8    3.865      34.517
2015    4        7    14  23    3.3302   471.6    3.872      34.496
2015    4        7    14  29    3.3324   471.3    3.880      34.476
2015    4        7    14  34    3.3346   471.0    3.888      34.456
2015    4        7    14  40    3.3369   470.7    3.896      34.437
2015    4        7    14  46    3.3392   470.5    3.904      34.417
2015    4        7    14  52    3.3415   470.2    3.912      34.398
2015    4        7    14  58    3.3438   469.9    3.920      34.380
2015    4        7    15   3    3.3461   469.6    3.928      34.361
2015    4        7    15   9    3.3485   469.4    3.936      34.343
2015    4        7    15  15    3.3509   469.1    3.944      34.325
2015    4        7    15  21    3.3533   468.8    3.952      34.307
2015    4        7    15  27    3.3558   468.6    3.960      34.290
2015    4        7    15  32    3.3582   468.3    3.968      34.272
2015    4        7    15  38    3.3607   468.0    3.976      34.255
2015    4        7    15  44    3.3632   467.8    3.984      34.238
2015    4        7    15  50    3.3657   467.5    3.992      34.221
2015    4        7    15  56    3.3682   467.2    4.000      34.204
2015    4        7    16   1    3.3708   467.0    4.008      34.187
2015    4        7    16   7    3.3733   466.7    4.016      34.171
2015    4        7    16  13    3.3759   466.5    4.024      34.154
2015    4        7    16  19    3.3785   466.2    4.032      34.138
2015    4        7    16  25    3.3811   466.0    4.041      34.122
2015    4        7    16  30    3.3838   465.7    4.049      34.106
2015    4        7    16  36    3.3864   465.4    4.057      34.090
2015    4        7    16  42    3.3891   465.2    4.065      34.074
2015    4        7    16  48    3.3918   464.9    4.073      34.058
2015    4        7    16  54    3.3945   464.7    4.081      34.042
2015    4        7    16  59    3.3973   464.4    4.089      34.026
2015    4        7    17   5    3.4000   464.2    4.097      34.010
2015    4        7    17  11    3.4028   463.9    4.105      33.995
2015    4        7    17  17    3.4056   463.7    4.113      33.979
2015    4        7    17  23    3.4084   463.5    4.121      33.964
2015    4        7    17  28    3.4112   463.2    4.129      33.949
2015    4        7    17  34    3.4140   463.0    4.138      33.933
2015    4        7    17  40    3.4169   462.7    4.146      33.918
2015    4        7    17  46    3.4197   462.5    4.154      33.903
2015    4        7    17  52    3.4226   462.2    4.162      33.888
2015    4        7    17  57    3.4255   462.0    4.170      33.873
2015    4        7    18   3    3.4285   461.8    4.178      33.858
2015    4        7    18   9    3.4314   461.5    4.186      33.844
2015    4        7    18  15    3.4343   461.3    4.194      33.829
2015    4        7    18  20    3.4373   461.1    4.203      33.815
2015    4        7    18  26    3.4403   460.8    4.211      33.800
2015    4        7    18  32    3.4433   460.6    4.219      33.786
2015    4        7    18  38    3.4463   460.4    4.227      33.772
2015    4        7    18  44    3.4494   460.2    4.236      33.759
2015    4        7    18  49    3.4525   459.9    4.244      33.745
2015    4        7    18  55    3.4555   459.7    4.252      33.732
2015    4        7    19   1    3.4587   459.5    4.261      33.719
2015    4        7    19   7    3.4618   459.3    4.269      33.706
2015    4        7    19  13    3.4649   459.0    4.278      33.693
2015    4        7    19  18    3.4681   458.8    4.286      33.681
2015    4        7    19  24    3.4713   458.6    4.295      33.669
2015    4        7    19  30    3.4745   458.4    4.303      33.657
2015    4        7    19  36    3.4777   458.1    4.312      33.646
2015    4        7    19  42    3.4809   457.9    4.321      33.635
2015    4        7    19  48    3.4842   457.7    4.330      33.624
2015    4        7    19  53    3.4874   457.5    4.339      33.614
2015    4        7    19  59    3.4907   457.3    4.348      33.604
2015    4        7    20   5    3.4941   457.1    4.357      33.595
2015    4        7    20  11    3.4974   456.9    4.366      33.586
2015    4        7    20  16    3.5008   456.7    4.376      33.577
2015    4        7    20  22    3.5042   456.4    4.385      33.569
2015    4        7    20  28    3.5076   456.2    4.394      33.561
2015    4        7    20  34    3.5111   456.0    4.404      33.554
2015    4        7    20  40    3.5145   455.8    4.414      33.547
2015    4        7    20  46    3.5180   455.6    4.423      33.541
2015    4        7    20  51    3.5215   455.4    4.433      33.535
2015    4        7    20  57    3.5251   455.2    4.443      33.530
2015    4        7    21   3    3.5286   455.0    4.453      33.525
2015    4        7    21   9    3.5322   454.8    4.463      33.521
2015    4        7    21  14    3.5359   454.6    4.473      33.517
2015    4        7    21  20    3.5395   454.4    4.483      33.513
2015    4        7    21  26    3.5432   454.2    4.494      33.510
2015    4        7    21  32    3.5469   454.0    4.504      33.508
2015    4        7    21  38    3.5506   453.8    4.514      33.506
2015    4        7    21  43    3.5543   453.7    4.525      33.504
2015    4        7    21  49    3.5581   453.5    4.535      33.503
2015    4        7    21  55    3.5619   453.3    4.546      33.502
2015    4        7    22   1    3.5657   453.1    4.556      33.501
2015    4        7    22   7    3.5695   452.9    4.567      33.501
2015    4        7    22  12    3.5734   452.7    4.577      33.501
2015    4        7    22  18    3.5772   452.6    4.588      33.501
2015    4        7    22  24    3.5811   452.4    4.599      33.501
2015    4        7    22  30    3.5850   452.2    4.609      33.502
2015    4        7    22  36    3.5889   452.0    4.620      33.502
2015    4        7    22  41    3.5928   451.8    4.630      33.504
2015    4        7    22  47    3.5968   451.7    4.641      33.505
2015    4        7    22  53    3.6007   451.5    4.652      33.506
2015    4        7    22  59    3.6047   451.3    4.662      33.508
2015    4        7    23   5    3.6087   451.1    4.673      33.510
2015    4        7    23  10    3.6127   451.0    4.683      33.511
2015    4        7    23  16    3.6167   450.8    4.694      33.513
2015    4        7    23  22    3.6207   450.6    4.704      33.516
2015    4        7    23  28    3.6247   450.5    4.714      33.518
2015    4        7    23  34    3.6288   450.3    4.725      33.520
2015    4        7    23  39    3.6329   450.1    4.735      33.522
2015    4        7    23  45    3.6369   450.0    4.745      33.525
2015    4        7    23  51    3.6410   449.8    4.755      33.527
2015    4        7    23  57    3.6451   449.7    4.766      33.529
2015    4        8     0   3    3.6493   449.5    4.776      33.532
2015    4        8     0   8    3.6534   449.3    4.786      33.535
2015    4        8     0  14    3.6576   449.2    4.796      33.537
2015    4        8     0  20    3.6617   449.0    4.806      33.540
2015    4        8     0  26    3.6659   448.9    4.816      33.543
2015    4        8     0  32    3.6701   448.7    4.826      33.546
2015    4        8     0  37    3.6744   448.5    4.836      33.549
2015    4        8     0  43    3.6786   448.4    4.846      33.552
2015    4        8     0  49    3.6829   448.2    4.856      33.555
2015    4        8     0  55    3.6871   448.1    4.866      33.559
2015    4        8     1   1    3.6914   447.9    4.876      33.562
2015    4        8     1   6    3.6957   447.8    4.886      33.566
2015    4        8     1  12    3.7000   447.7    4.895      33.570
2015    4        8     1  18    3.7044   447.5    4.905      33.574
2015    4        8     1  24    3.7087   447.4    4.915      33.578
2015    4        8     1  30    3.7131   447.2    4.925      33.583
2015    4        8     1  35    3.7175   447.1    4.935      33.587
2015    4        8     1  41    3.7219   446.9    4.945      33.592
2015    4        8     1  47    3.7263   446.8    4.955      33.597
2015    4        8     1  53    3.7307   446.7    4.965      33.603
2015    4        8     1  59    3.7351   446.5    4.974      33.608
2015    4        8     2   4    3.7396   446.4    4.984      33.614
2015    4        8     2  10    3.7441   446.3    4.994      33.620
2015    4        8     2  16    3.7485   446.1    5.004      33.627
2015    4        8     2  22    3.7530   446.0    5.014      33.633
2015    4        8     2  28    3.7575   445.9    5.024      33.640
2015    4        8     2  33    3.7620   445.7    5.034      33.648
2015    4        8     2  39    3.7666   445.6    5.044      33.655
2015    4        8     2  45    3.7711   445.5    5.054      33.663
2015    4        8     2  51    3.7757   445.3    5.065      33.671
2015    4        8     2  57    3.7802   445.2    5.075      33.680
2015    4        8     3   2    3.7848   445.1    5.085      33.689
2015    4        8     3   8    3.7894   445.0    5.095      33.698
2015    4        8     3  14    3.7940   444.9    5.106      33.707
2015    4        8     3  20    3.7986   444.7    5.116      33.717
2015    4        8     3  26    3.8032   444.6    5.126      33.727
2015    4        8     3  31    3.8079   444.5    5.137      33.737
2015    4        8     3  37    3.8125   444.4    5.147      33.748
2015    4        8     3  43    3.8172   444.3    5.158      33.759
2015    4        8     3  49    3.8219   444.2    5.168      33.771
2015    4        8     3  55    3.8266   444.0    5.179      33.782
2015    4        8     4   0    3.8313   443.9    5.189      33.794
2015    4        8     4   6    3.8360   443.8    5.200      33.806
2015    4        8     4  12    3.8407   443.7    5.211      33.819
2015    4        8     4  18    3.8455   443.6    5.221      33.832
2015    4        8     4  24    3.8502   443.5    5.232      33.845
2015    4        8     4  29    3.8550   443.4    5.243      33.858
2015    4        8     4  35    3.8598   443.3    5.254      33.872
2015    4        8     4  41    3.8647   443.2    5.265      33.886
2015    4        8     4  47    3.8695   443.1    5.276      33.900
2015    4        8     4  53    3.8743   443.0    5.287      33.915
2015    4        8     4  58    3.8792   442.9    5.297      33.929
2015    4        8     5   4    3.8840   442.8    5.308      33.944
2015    4        8     5  10    3.8889   442.7    5.319      33.960
2015    4        8     5  16    3.8938   442.6    5.330      33.975
2015    4        8     5  21    3.8987   442.5    5.341      33.991
2015    4        8     5  27    3.9036   442.4    5.352      34.007
2015    4        8     5  33    3.9085   442.3    5.363      34.023
2015    4        8     5  39    3.9134   442.3    5.373      34.039
2015    4        8     5  45    3.9183   442.2    5.384      34.056
2015    4        8     5  50    3.9232   442.1    5.395      34.072
2015    4        8     5  56    3.9282   442.0    5.405      34.089
2015    4        8     6   2    3.9331   441.9    5.416      34.106
2015    4        8     6   8    3.9380   441.8    5.426      34.123
2015    4        8     6  14    3.9430   441.7    5.437      34.139
2015    4        8     6  19    3.9479   441.7    5.447      34.156
2015    4        8     6  25    3.9529   441.6    5.457      34.173
2015    4        8     6  31    3.9578   441.5    5.467      34.189
2015    4        8     6  37    3.9628   441.4    5.477      34.205
2015    4        8     6  43    3.9677   441.3    5.487      34.222
2015    4        8     6  48    3.9727   441.3    5.497      34.238
2015    4        8     6  54    3.9777   441.2    5.507      34.254
2015    4        8     7   0    3.9827   441.1    5.517      34.270
2015    4        8     7   6    3.9877   441.0    5.527      34.285
2015    4        8     7  12    3.9927   440.9    5.537      34.301
2015    4        8     7  17    3.9977   440.9    5.546      34.316
2015    4        8     7  23    4.0027   440.8    5.556      34.331
2015    4        8     7  29    4.0078   440.7    5.565      34.347
2015    4        8     7  35    4.0128   440.6    5.575      34.362
2015    4        8     7  41    4.0179   440.6    5.584      34.377
2015    4        8     7  46    4.0230   440.5    5.594      34.392
2015    4        8     7  52    4.0281   440.4    5.603      34.408
2015    4        8     7  58    4.0332   440.3    5.612      34.423
2015    4        8     8   4    4.0383   440.3    5.622      34.438
2015    4        8     8  10    4.0434   440.2    5.631      34.454
2015    4        8     8  15    4.0485   440.1    5.640      34.470
2015    4        8     8  21    4.0537   440.1    5.649      34.486
2015    4        8     8  27    4.0588   440.0    5.658      34.502
2015    4        8     8  33    4.0640   439.9    5.667      34.518
2015    4        8     8  39    4.0692   439.9    5.677      34.535
2015    4        8     8  44    4.0744   439.8    5.686      34.551
2015    4        8     8  50    4.0796   439.7    5.695      34.569
2015    4        8     8  56    4.0848   439.7    5.704      34.586
2015    4        8     9   2    4.0900   439.6    5.713      34.604
2015    4        8     9   8    4.0952   439.5    5.722      34.622
2015    4        8     9  13    4.1005   439.5    5.731      34.640
2015    4        8     9  19    4.1057   439.4    5.740      34.659
2015    4        8     9  25    4.1109   439.4    5.749      34.678
2015    4        8     9  31    4.1162   439.3    5.757      34.697
2015    4        8     9  37    4.1214   439.2    5.766      34.717
2015    4        8     9  42    4.1267   439.2    5.775      34.737
2015    4        8     9  48    4.1319   439.1    5.784      34.758
2015    4        8     9  54    4.1372   439.1    5.793      34.779
2015    4        8    10   0    4.1424   439.0    5.802      34.800
2015    4        8    10   6    4.1477   439.0    5.811      34.821
2015    4        8    10  11    4.1529   438.9    5.820      34.843
2015    4        8    10  17    4.1582   438.8    5.829      34.865
2015    4        8    10  23    4.1635   438.8    5.838      34.887
2015    4        8    10  29    4.1687   438.7    5.847      34.910
2015    4        8    10  35    4.1740   438.7    5.856      34.933
2015    4        8    10  40    4.1792   438.6    5.865      34.956
2015    4        8    10  46    4.1845   438.6    5.874      34.980
2015    4        8    10  52    4.1898   438.5    5.883      35.003
2015    4        8    10  58    4.1950   438.5    5.892      35.027
2015    4        8    11   4    4.2003   438.5    5.900      35.051
2015    4        8    11   9    4.2055   438.4    5.909      35.076
2015    4        8    11  15    4.2108   438.4    5.918      35.100
2015    4        8    11  21    4.2161   438.3    5.927      35.125
2015    4        8    11  27    4.2213   438.3    5.936      35.150
2015    4        8    11  33    4.2266   438.2    5.945      35.175
2015    4        8    11  38    4.2319   438.2    5.954      35.200
2015    4        8    11  44    4.2371   438.2    5.963      35.226
2015    4        8    11  50    4.2424   438.1    5.972      35.252
2015    4        8    11  56    4.2477   438.1    5.981      35.277
2015    4        8    12   2    4.2530   438.0    5.990      35.303
2015    4        8    12   7    4.2583   438.0    5.999      35.329
2015    4        8    12  13    4.2636   438.0    6.008      35.355
2015    4        8    12  19    4.2689   437.9    6.017      35.382
2015    4        8    12  25    4.2742   437.9    6.026      35.408
2015    4        8    12  31    4.2796   437.9    6.035      35.435
2015    4        8    12  36    4.2849   437.8    6.044      35.462
2015    4        8    12  42    4.2902   437.8    6.053      35.489
2015    4        8    12  48    4.2956   437.8    6.062      35.516
2015    4        8    12  54    4.3009   437.7    6.071      35.544
2015    4        8    13   0    4.3063   437.7    6.080      35.572
2015    4        8    13   5    4.3117   437.7    6.089      35.600
2015    4        8    13  11    4.3171   437.7    6.098      35.628
2015    4        8    13  17    4.3224   437.6    6.107      35.657
2015    4        8    13  23    4.3278   437.6    6.116      35.686
2015    4        8    13  28    4.3332   437.6    6.125      35.715
2015    4        8    13  34    4.3387   437.6    6.134      35.744
2015    4        8    13  40    4.3441   437.6    6.143      35.773
2015    4        8    13  46    4.3496   437.5    6.151      35.802
2015    4        8    13  52    4.3550   437.5    6.160      35.831
2015    4        8    13  57    4.3605   437.5    6.169      35.861
2015    4        8    14   3    4.3660   437.5    6.178      35.890
2015    4        8    14   9    4.3715   437.5    6.187      35.920
2015    4        8    14  15    4.3770   437.4    6.195      35.950
2015    4        8    14  21    4.3826   437.4    6.204      35.980
2015    4        8    14  26    4.3881   437.4    6.213      36.010
2015    4        8    14  32    4.3937   437.4    6.222      36.040
2015    4        8    14  38    4.3993   437.4    6.230      36.070
2015    4        8    14  44    4.4049   437.4    6.239      36.100
2015    4        8    14  50    4.4105   437.4    6.248      36.131
2015    4        8    14  55    4.4161   437.4    6.256      36.162
2015    4        8    15   1    4.4217   437.4    6.265      36.193
2015    4        8    15   7    4.4273   437.4    6.273      36.224
2015    4        8    15  13    4.4330   437.4    6.282      36.255
2015    4        8    15  19    4.4386   437.4    6.290      36.287
2015    4        8    15  24    4.4442   437.4    6.299      36.319
2015    4        8    15  30    4.4499   437.4    6.307      36.351
2015    4        8    15  36    4.4555   437.4    6.315      36.383
2015    4        8    15  42    4.4612   437.4    6.323      36.416
2015    4        8    15  48    4.4668   437.4    6.331      36.448
2015    4        8    15  53    4.4725   437.4    6.340      36.480
2015    4        8    15  59    4.4782   437.4    6.348      36.512
2015    4        8    16   5    4.4839   437.4    6.356      36.544
2015    4        8    16  11    4.4896   437.4    6.364      36.576
2015    4        8    16  17    4.4953   437.4    6.372      36.607
2015    4        8    16  22    4.5009   437.4    6.380      36.639
2015    4        8    16  28    4.5067   437.4    6.388      36.671
2015    4        8    16  34    4.5124   437.4    6.396      36.703
2015    4        8    16  40    4.5181   437.4    6.404      36.735
2015    4        8    16  46    4.5238   437.4    6.412      36.767
2015    4        8    16  51    4.5295   437.4    6.420      36.800
2015    4        8    16  57    4.5352   437.4    6.428      36.833
2015    4        8    17   3    4.5408   437.4    6.436      36.867
2015    4        8    17   9    4.5465   437.4    6.444      36.902
2015    4        8    17  15    4.5522   437.4    6.452      36.937
2015    4        8    17  20    4.5578   437.5    6.459      36.973
2015    4        8    17  26    4.5634   437.5    6.467      37.011
2015    4        8    17  32    4.5689   437.5    6.474      37.049
2015    4        8    17  38    4.5745   437.5    6.481      37.087
2015    4        8    17  44    4.5800   437.5    6.488      37.126
2015    4        8    17  49    4.5855   437.6    6.495      37.166
2015    4        8    17  55    4.5910   437.6    6.502      37.206
2015    4        8    18   1    4.5964   437.6    6.509      37.246
2015    4        8    18   7    4.6018   437.6    6.516      37.285
2015    4        8    18  13    4.6072   437.7    6.522      37.325
2015    4        8    18  18    4.6125   437.7    6.528      37.365
2015    4        8    18  24    4.6179   437.7    6.535      37.404
2015    4        8    18  30    4.6232   437.7    6.541      37.444
2015    4        8    18  36    4.6285   437.7    6.547      37.483
2015    4        8    18  42    4.6338   437.8    6.553      37.523
2015    4        8    18  47    4.6391   437.8    6.559      37.562
2015    4        8    18  53    4.6443   437.8    6.565      37.601
2015    4        8    18  59    4.6496   437.8    6.570      37.640
2015    4        8    19   5    4.6548   437.9    6.576      37.678
2015    4        8    19  11    4.6601   437.9    6.582      37.717
2015    4        8    19  16    4.6653   437.9    6.587      37.755
2015    4        8    19  22    4.6705   437.9    6.593      37.794
2015    4        8    19  28    4.6757   438.0    6.598      37.832
2015    4        8    19  34    4.6809   438.0    6.604      37.870
2015    4        8    19  40    4.6861   438.0    6.609      37.908
2015    4        8    19  45    4.6913   438.0    6.615      37.946
2015    4        8    19  51    4.6965   438.1    6.620      37.983
2015    4        8    19  57    4.7017   438.1    6.625      38.021
2015    4        8    20   3    4.7069   438.1    6.630      38.058
2015    4        8    20   9    4.7122   438.1    6.636      38.095
2015    4        8    20  14    4.7173   438.2    6.641      38.132
2015    4        8    20  20    4.7226   438.2    6.646      38.169
2015    4        8    20  26    4.7278   438.2    6.651      38.206
2015    4        8    20  32    4.7330   438.3    6.656      38.243
2015    4        8    20  38    4.7382   438.3    6.662      38.279
2015    4        8    20  43    4.7435   438.3    6.667      38.316
2015    4        8    20  49    4.7487   438.3    6.672      38.353
2015    4        8    20  55    4.7539   438.4    6.677      38.390
2015    4        8    21   1    4.7592   438.4    6.682      38.427
2015    4        8    21   6    4.7645   438.4    6.688      38.464
2015    4        8    21  12    4.7698   438.5    6.693      38.501
2015    4        8    21  18    4.7751   438.5    6.698      38.538
2015    4        8    21  24    4.7804   438.5    6.703      38.575
2015    4        8    21  30    4.7858   438.6    6.709      38.613
2015    4        8    21  35    4.7912   438.6    6.714      38.651
2015    4        8    21  41    4.7966   438.7    6.719      38.689
2015    4        8    21  47    4.8020   438.7    6.725      38.728
2015    4        8    21  53    4.8074   438.7    6.731      38.766
2015    4        8    21  59    4.8129   438.8    6.736      38.805
2015    4        8    22   4    4.8184   438.8    6.742      38.845
2015    4        8    22  10    4.8239   438.9    6.748      38.884
2015    4        8    22  16    4.8295   438.9    6.754      38.924
2015    4        8    22  22    4.8351   439.0    6.760      38.965
2015    4        8    22  28    4.8407   439.0    6.766      39.005
2015    4        8    22  33    4.8464   439.1    6.772      39.046
2015    4        8    22  39    4.8521   439.1    6.779      39.087
2015    4        8    22  45    4.8578   439.2    6.785      39.129
2015    4        8    22  51    4.8636   439.2    6.792      39.171
2015    4        8    22  57    4.8694   439.3    6.799      39.214
2015    4        8    23   2    4.8753   439.3    6.806      39.257
2015    4        8    23   8    4.8811   439.4    6.814      39.301
2015    4        8    23  14    4.8870   439.4    6.821      39.346
2015    4        8    23  20    4.8930   439.5    6.829      39.391
2015    4        8    23  26    4.8989   439.6    6.837      39.437
2015    4        8    23  31    4.9048   439.6    6.845      39.484
2015    4        8    23  37    4.9108   439.7    6.853      39.533
2015    4        8    23  43    4.9167   439.8    6.861      39.583
2015    4        8    23  49    4.9226   439.9    6.870      39.635
2015    4        8    23  55    4.9284   440.0    6.878      39.689
2015    4        9     0   0    4.9342   440.0    6.886      39.744
2015    4        9     0   6    4.9400   440.1    6.894      39.801
2015    4        9     0  12    4.9458   440.2    6.902      39.858
2015    4        9     0  18    4.9515   440.3    6.910      39.916
2015    4        9     0  24    4.9571   440.4    6.918      39.975
2015    4        9     0  29    4.9627   440.5    6.926      40.034
2015    4        9     0  35    4.9682   440.6    6.933      40.095
2015    4        9     0  41    4.9736   440.7    6.940      40.157
2015    4        9     0  47    4.9790   440.8    6.947      40.219
2015    4        9     0  53    4.9843   440.9    6.953      40.283
2015    4        9     0  58    4.9895   441.0    6.959      40.347
2015    4        9     1   4    4.9947   441.1    6.965      40.410
2015    4        9     1  10    4.9999   441.2    6.971      40.473
2015    4        9     1  16    5.0050   441.3    6.976      40.535
2015    4        9     1  22    5.0100   441.4    6.981      40.596
2015    4        9     1  27    5.0150   441.5    6.986      40.656
2015    4        9     1  33    5.0199   441.6    6.990      40.715
2015    4        9     1  39    5.0248   441.7    6.994      40.773
2015    4        9     1  45    5.0297   441.8    6.998      40.831
2015    4        9     1  51    5.0345   441.9    7.002      40.888
2015    4        9     1  56    5.0393   442.0    7.006      40.944
2015    4        9     2   2    5.0441   442.1    7.009      41.000
2015    4        9     2   8    5.0489   442.2    7.012      41.054
2015    4        9     2  14    5.0536   442.3    7.015      41.108
2015    4        9     2  20    5.0583   442.4    7.018      41.162
2015    4        9     2  25    5.0630   442.5    7.020      41.215
2015    4        9     2  31    5.0677   442.6    7.023      41.267
2015    4        9     2  37    5.0723   442.7    7.025      41.318
2015    4        9     2  43    5.0770   442.8    7.027      41.369
2015    4        9     2  49    5.0816   442.9    7.029      41.419
2015    4        9     2  54    5.0862   443.0    7.030      41.469
2015    4        9     3   0    5.0907   443.1    7.032      41.518
2015    4        9     3   6    5.0953   443.2    7.033      41.566
2015    4        9     3  12    5.0998   443.3    7.035      41.614
2015    4        9     3  18    5.1043   443.4    7.036      41.661
2015    4        9     3  23    5.1088   443.5    7.037      41.708
2015    4        9     3  29    5.1133   443.6    7.038      41.754
2015    4        9     3  35    5.1177   443.7    7.038      41.800
2015    4        9     3  41    5.1222   443.8    7.039      41.845
2015    4        9     3  47    5.1266   443.9    7.040      41.890
2015    4        9     3  52    5.1310   444.0    7.040      41.935
2015    4        9     3  58    5.1354   444.1    7.040      41.979
2015    4        9     4   4    5.1399   444.2    7.041      42.023
2015    4        9     4  10    5.1443   444.3    7.041      42.067
2015    4        9     4  16    5.1487   444.4    7.041      42.111
2015    4        9     4  21    5.1531   444.5    7.041      42.154
2015    4        9     4  27    5.1575   444.6    7.042      42.198
2015    4        9     4  33    5.1619   444.7    7.042      42.241
2015    4        9     4  39    5.1663   444.8    7.042      42.285
2015    4        9     4  45    5.1707   444.9    7.042      42.328
2015    4        9     4  50    5.1752   445.0    7.042      42.371
2015    4        9     4  56    5.1796   445.1    7.042      42.414
2015    4        9     5   2    5.1840   445.2    7.043      42.458
2015    4        9     5   8    5.1885   445.3    7.043      42.501
2015    4        9     5  13    5.1929   445.4    7.043      42.544
2015    4        9     5  19    5.1974   445.6    7.043      42.588
2015    4        9     5  25    5.2019   445.7    7.044      42.631
2015    4        9     5  31    5.2063   445.8    7.044      42.675
2015    4        9     5  37    5.2108   445.9    7.045      42.719
2015    4        9     5  42    5.2153   446.0    7.045      42.762
2015    4        9     5  48    5.2198   446.1    7.046      42.806
2015    4        9     5  54    5.2243   446.2    7.047      42.850
2015    4        9     6   0    5.2288   446.3    7.047      42.895
2015    4        9     6   6    5.2333   446.4    7.048      42.939
2015    4        9     6  11    5.2378   446.5    7.049      42.983
2015    4        9     6  17    5.2424   446.6    7.050      43.028
2015    4        9     6  23    5.2469   446.7    7.051      43.072
2015    4        9     6  29    5.2514   446.9    7.053      43.117
2015    4        9     6  35    5.2559   447.0    7.054      43.163
2015    4        9     6  40    5.2604   447.1    7.056      43.208
2015    4        9     6  46    5.2650   447.2    7.058      43.253
2015    4        9     6  52    5.2695   447.3    7.060      43.299
2015    4        9     6  58    5.2741   447.4    7.062      43.345
2015    4        9     7   4    5.2787   447.5    7.064      43.392
2015    4        9     7   9    5.2832   447.7    7.067      43.440
2015    4        9     7  15    5.2879   447.8    7.070      43.489
2015    4        9     7  21    5.2925   447.9    7.073      43.538
2015    4        9     7  27    5.2971   448.0    7.076      43.588
2015    4        9     7  33    5.3017   448.1    7.080      43.639
2015    4        9     7  38    5.3064   448.2    7.083      43.691
2015    4        9     7  44    5.3110   448.4    7.087      43.745
2015    4        9     7  50    5.3157   448.5    7.091      43.800
2015    4        9     7  56    5.3203   448.6    7.095      43.857
2015    4        9     8   2    5.3249   448.8    7.099      43.916
2015    4        9     8   7    5.3295   448.9    7.103      43.976
2015    4        9     8  13    5.3341   449.0    7.107      44.038
2015    4        9     8  19    5.3387   449.2    7.111      44.100
2015    4        9     8  25    5.3433   449.3    7.115      44.162
2015    4        9     8  31    5.3478   449.4    7.119      44.225
2015    4        9     8  36    5.3524   449.6    7.124      44.287
2015    4        9     8  42    5.3569   449.7    7.128      44.350
2015    4        9     8  48    5.3615   449.8    7.132      44.413
2015    4        9     8  54    5.3660   450.0    7.137      44.477
2015    4        9     9   0    5.3705   450.1    7.142      44.542
2015    4        9     9   5    5.3751   450.2    7.146      44.608
2015    4        9     9  11    5.3796   450.4    7.151      44.674
2015    4        9     9  17    5.3842   450.5    7.156      44.742
2015    4        9     9  23    5.3887   450.7    7.161      44.809
2015    4        9     9  29    5.3933   450.8    7.166      44.877
2015    4        9     9  34    5.3978   451.0    7.171      44.947
2015    4        9     9  40    5.4023   451.1    7.176      45.018
2015    4        9     9  46    5.4067   451.3    7.181      45.090
2015    4        9     9  52    5.4111   451.4    7.186      45.163
2015    4        9     9  58    5.4154   451.6    7.190      45.237
2015    4        9    10   3    5.4196   451.7    7.194      45.312
2015    4        9    10   9    5.4237   451.9    7.197      45.387
2015    4        9    10  15    5.4277   452.1    7.200      45.462
2015    4        9    10  21    5.4317   452.2    7.203      45.534
2015    4        9    10  27    5.4356   452.4    7.205      45.604
2015    4        9    10  32    5.4393   452.6    7.206      45.673
2015    4        9    10  38    5.4430   452.7    7.208      45.741
2015    4        9    10  44    5.4467   452.9    7.209      45.806
2015    4        9    10  50    5.4502   453.1    7.209      45.871
2015    4        9    10  56    5.4537   453.2    7.209      45.933
2015    4        9    11   1    5.4571   453.4    7.209      45.995
2015    4        9    11   7    5.4604   453.6    7.208      46.054
2015    4        9    11  13    5.4638   453.8    7.207      46.113
2015    4        9    11  19    5.4670   453.9    7.206      46.171
2015    4        9    11  25    5.4702   454.1    7.204      46.227
2015    4        9    11  30    5.4734   454.3    7.202      46.282
2015    4        9    11  36    5.4766   454.4    7.200      46.336
2015    4        9    11  42    5.4797   454.6    7.198      46.390
2015    4        9    11  48    5.4828   454.8    7.196      46.442
2015    4        9    11  54    5.4859   454.9    7.193      46.493
2015    4        9    11  59    5.4889   455.1    7.191      46.544
2015    4        9    12   5    5.4919   455.3    7.188      46.594
2015    4        9    12  11    5.4949   455.5    7.185      46.643
2015    4        9    12  17    5.4979   455.6    7.182      46.692
2015    4        9    12  23    5.5009   455.8    7.179      46.739
2015    4        9    12  28    5.5039   456.0    7.175      46.787
2015    4        9    12  34    5.5068   456.1    7.172      46.833
2015    4        9    12  40    5.5097   456.3    7.168      46.880
2015    4        9    12  46    5.5126   456.5    7.165      46.925
2015    4        9    12  52    5.5156   456.7    7.161      46.971
2015    4        9    12  57    5.5185   456.8    7.158      47.015
2015    4        9    13   3    5.5213   457.0    7.154      47.060
2015    4        9    13   9    5.5242   457.2    7.151      47.104
2015    4        9    13  15    5.5271   457.3    7.147      47.148
2015    4        9    13  21    5.5300   457.5    7.143      47.191
2015    4        9    13  26    5.5328   457.7    7.140      47.234
2015    4        9    13  32    5.5357   457.8    7.136      47.278
2015    4        9    13  38    5.5386   458.0    7.133      47.321
2015    4        9    13  44    5.5415   458.2    7.129      47.363
2015    4        9    13  49    5.5444   458.4    7.126      47.406
2015    4        9    13  55    5.5473   458.5    7.123      47.449
2015    4        9    14   1    5.5503   458.7    7.119      47.492
2015    4        9    14   7    5.5533   458.9    7.116      47.536
2015    4        9    14  13    5.5564   459.0    7.114      47.580
2015    4        9    14  18    5.5595   459.2    7.111      47.624
2015    4        9    14  24    5.5626   459.3    7.109      47.669
2015    4        9    14  30    5.5658   459.5    7.107      47.715
2015    4        9    14  36    5.5690   459.7    7.105      47.762
2015    4        9    14  42    5.5724   459.9    7.103      47.811
2015    4        9    14  47    5.5757   460.0    7.102      47.861
2015    4        9    14  53    5.5791   460.2    7.101      47.913
2015    4        9    14  59    5.5826   460.4    7.100      47.965
2015    4        9    15   5    5.5862   460.5    7.100      48.019
2015    4        9    15  11    5.5897   460.7    7.100      48.075
2015    4        9    15  16    5.5934   460.9    7.100      48.134
2015    4        9    15  22    5.5970   461.1    7.101      48.194
2015    4        9    15  28    5.6006   461.3    7.102      48.257
2015    4        9    15  34    5.6042   461.5    7.102      48.321
2015    4        9    15  40    5.6078   461.7    7.103      48.387
2015    4        9    15  45    5.6114   461.9    7.104      48.456
2015    4        9    15  51    5.6149   462.1    7.105      48.524
2015    4        9    15  57    5.6185   462.3    7.107      48.592
2015    4        9    16   3    5.6220   462.5    7.108      48.660
2015    4        9    16   9    5.6254   462.7    7.109      48.727
2015    4        9    16  14    5.6289   462.9    7.111      48.795
2015    4        9    16  20    5.6323   463.1    7.113      48.863
2015    4        9    16  26    5.6356   463.3    7.114      48.931
2015    4        9    16  32    5.6390   463.5    7.116      49.000
2015    4        9    16  38    5.6423   463.7    7.118      49.069
2015    4        9    16  43    5.6456   463.9    7.120      49.138
2015    4        9    16  49    5.6488   464.1    7.122      49.207
2015    4        9    16  55    5.6520   464.3    7.124      49.278
2015    4        9    17   1    5.6551   464.5    7.126      49.350
2015    4        9    17   7    5.6581   464.8    7.128      49.423
2015    4        9    17  12    5.6611   465.0    7.130      49.496
2015    4        9    17  18    5.6639   465.2    7.131      49.571
2015    4        9    17  24    5.6667   465.4    7.132      49.646
2015    4        9    17  30    5.6694   465.6    7.132      49.721
2015    4        9    17  36    5.6720   465.9    7.132      49.795
2015    4        9    17  41    5.6746   466.1    7.132      49.867
2015    4        9    17  47    5.6770   466.3    7.131      49.938
2015    4        9    17  53    5.6794   466.6    7.130      50.007
2015    4        9    17  59    5.6817   466.8    7.128      50.075
2015    4        9    18   5    5.6838   467.0    7.126      50.141
2015    4        9    18  10    5.6859   467.2    7.124      50.206
2015    4        9    18  16    5.6880   467.5    7.122      50.270
2015    4        9    18  22    5.6899   467.7    7.119      50.333
2015    4        9    18  28    5.6918   467.9    7.115      50.394
2015    4        9    18  34    5.6936   468.2    7.112      50.455
2015    4        9    18  39    5.6954   468.4    7.108      50.514
2015    4        9    18  45    5.6971   468.7    7.104      50.572
2015    4        9    18  51    5.6988   468.9    7.099      50.630
2015    4        9    18  57    5.7004   469.1    7.095      50.686
2015    4        9    19   3    5.7020   469.4    7.090      50.741
2015    4        9    19   8    5.7035   469.6    7.085      50.796
2015    4        9    19  14    5.7049   469.9    7.080      50.849
2015    4        9    19  20    5.7063   470.1    7.074      50.902
2015    4        9    19  26    5.7077   470.4    7.069      50.953
2015    4        9    19  32    5.7091   470.6    7.063      51.004
2015    4        9    19  37    5.7104   470.9    7.057      51.054
2015    4        9    19  43    5.7117   471.1    7.051      51.104
2015    4        9    19  49    5.7130   471.4    7.045      51.152
2015    4        9    19  55    5.7142   471.6    7.038      51.200
2015    4        9    20   1    5.7154   471.8    7.032      51.247
2015    4        9    20   6    5.7166   472.1    7.026      51.294
2015    4        9    20  12    5.7178   472.3    7.019      51.340
2015    4        9    20  18    5.7189   472.6    7.012      51.386
2015    4        9    20  24    5.7201   472.8    7.006      51.431
2015    4        9    20  30    5.7212   473.1    6.999      51.476
2015    4        9    20  35    5.7223   473.3    6.992      51.520
2015    4        9    20  41    5.7234   473.6    6.986      51.565
2015    4        9    20  47    5.7245   473.8    6.979      51.608
2015    4        9    20  53    5.7256   474.1    6.972      51.652
2015    4        9    20  59    5.7267   474.3    6.965      51.696
2015    4        9    21   4    5.7278   474.6    6.958      51.739
2015    4        9    21  10    5.7289   474.8    6.952      51.782
2015    4        9    21  16    5.7299   475.1    6.945      51.824
2015    4        9    21  22    5.7310   475.3    6.938      51.867
2015    4        9    21  28    5.7320   475.6    6.931      51.909
2015    4        9    21  33    5.7331   475.8    6.924      51.951
2015    4        9    21  39    5.7341   476.1    6.917      51.993
2015    4        9    21  45    5.7351   476.3    6.910      52.035
2015    4        9    21  51    5.7361   476.6    6.904      52.077
2015    4        9    21  57    5.7371   476.8    6.897      52.119
2015    4        9    22   2    5.7381   477.1    6.890      52.160
2015    4        9    22   8    5.7390   477.3    6.883      52.202
2015    4        9    22  14    5.7400   477.6    6.877      52.244
2015    4        9    22  20    5.7409   477.9    6.870      52.287
2015    4        9    22  26    5.7418   478.1    6.864      52.331
2015    4        9    22  31    5.7427   478.4    6.857      52.375
2015    4        9    22  37    5.7436   478.6    6.851      52.420
2015    4        9    22  43    5.7444   478.9    6.845      52.465
2015    4        9    22  49    5.7452   479.1    6.839      52.511
2015    4        9    22  54    5.7460   479.4    6.834      52.559
2015    4        9    23   0    5.7466   479.7    6.828      52.609
2015    4        9    23   6    5.7473   480.0    6.822      52.660
2015    4        9    23  12    5.7477   480.2    6.816      52.713
2015    4        9    23  18    5.7481   480.5    6.810      52.767
2015    4        9    23  24    5.7484   480.8    6.803      52.822
2015    4        9    23  29    5.7486   481.1    6.797      52.878
2015    4        9    23  35    5.7486   481.4    6.790      52.932
2015    4        9    23  41    5.7486   481.7    6.783      52.985
2015    4        9    23  47    5.7485   481.9    6.775      53.036
2015    4        9    23  53    5.7483   482.2    6.768      53.086
2015    4        9    23  58    5.7479   482.5    6.760      53.135
2015    4       10     0   4    5.7475   482.8    6.751      53.182
2015    4       10     0  10    5.7469   483.1    6.743      53.228
2015    4       10     0  16    5.7463   483.3    6.734      53.273
2015    4       10     0  22    5.7456   483.6    6.725      53.316
2015    4       10     0  27    5.7448   483.9    6.716      53.358
2015    4       10     0  33    5.7439   484.2    6.707      53.398
2015    4       10     0  39    5.7430   484.4    6.697      53.438
2015    4       10     0  45    5.7420   484.7    6.688      53.477
2015    4       10     0  50    5.7409   485.0    6.678      53.514
2015    4       10     0  56    5.7397   485.3    6.667      53.550
2015    4       10     1   2    5.7384   485.5    6.657      53.585
2015    4       10     1   8    5.7371   485.8    6.647      53.618
2015    4       10     1  14    5.7356   486.1    6.636      53.650
2015    4       10     1  19    5.7341   486.4    6.625      53.681
2015    4       10     1  25    5.7325   486.6    6.614      53.710
2015    4       10     1  31    5.7307   486.9    6.603      53.738
2015    4       10     1  37    5.7289   487.2    6.591      53.764
2015    4       10     1  43    5.7269   487.5    6.580      53.790
2015    4       10     1  48    5.7249   487.8    6.568      53.814
2015    4       10     1  54    5.7228   488.0    6.556      53.837
2015    4       10     2   0    5.7207   488.3    6.545      53.857
2015    4       10     2   6    5.7186   488.5    6.534      53.877
2015    4       10     2  12    5.7165   488.8    6.522      53.894
2015    4       10     2  17    5.7145   489.0    6.511      53.912
2015    4       10     2  23    5.7125   489.2    6.501      53.930
2015    4       10     2  29    5.7105   489.4    6.490      53.949
2015    4       10     2  35    5.7087   489.7    6.480      53.968
2015    4       10     2  41    5.7068   489.9    6.470      53.990
2015    4       10     2  46    5.7050   490.1    6.460      54.012
2015    4       10     2  52    5.7031   490.3    6.450      54.036
2015    4       10     2  58    5.7014   490.6    6.440      54.064
2015    4       10     3   4    5.6995   490.8    6.430      54.094
2015    4       10     3  10    5.6977   491.1    6.420      54.126
2015    4       10     3  15    5.6959   491.3    6.410      54.159
2015    4       10     3  21    5.6940   491.6    6.400      54.192
2015    4       10     3  27    5.6922   491.9    6.390      54.224
2015    4       10     3  33    5.6903   492.2    6.381      54.256
2015    4       10     3  39    5.6883   492.4    6.371      54.285
2015    4       10     3  44    5.6863   492.7    6.361      54.311
2015    4       10     3  50    5.6842   493.0    6.350      54.335
2015    4       10     3  56    5.6821   493.2    6.340      54.357
2015    4       10     4   2    5.6798   493.5    6.330      54.377
2015    4       10     4   8    5.6774   493.7    6.319      54.397
2015    4       10     4  13    5.6749   494.0    6.308      54.415
2015    4       10     4  19    5.6724   494.2    6.297      54.432
2015    4       10     4  25    5.6697   494.5    6.286      54.449
2015    4       10     4  31    5.6670   494.7    6.274      54.465
2015    4       10     4  37    5.6642   495.0    6.263      54.481
2015    4       10     4  42    5.6612   495.3    6.251      54.496
2015    4       10     4  48    5.6581   495.5    6.240      54.510
2015    4       10     4  54    5.6550   495.8    6.228      54.522
2015    4       10     5   0    5.6517   496.0    6.217      54.534
2015    4       10     5   6    5.6484   496.3    6.205      54.545
2015    4       10     5  11    5.6450   496.5    6.193      54.554
2015    4       10     5  17    5.6416   496.8    6.182      54.563
2015    4       10     5  23    5.6382   497.0    6.170      54.571
2015    4       10     5  29    5.6347   497.2    6.158      54.579
2015    4       10     5  35    5.6312   497.5    6.147      54.586
2015    4       10     5  40    5.6276   497.7    6.135      54.594
2015    4       10     5  46    5.6240   498.0    6.124      54.602
2015    4       10     5  52    5.6204   498.2    6.113      54.609
2015    4       10     5  58    5.6167   498.5    6.101      54.616
2015    4       10     6   4    5.6130   498.7    6.090      54.623
2015    4       10     6   9    5.6092   499.0    6.078      54.629
2015    4       10     6  15    5.6055   499.2    6.067      54.634
2015    4       10     6  21    5.6016   499.5    6.055      54.638
2015    4       10     6  27    5.5977   499.8    6.044      54.639
2015    4       10     6  33    5.5938   500.0    6.032      54.639
2015    4       10     6  38    5.5898   500.3    6.021      54.638
2015    4       10     6  44    5.5857   500.5    6.009      54.636
2015    4       10     6  50    5.5816   500.8    5.997      54.632
2015    4       10     6  56    5.5773   501.0    5.985      54.627
2015    4       10     7   2    5.5730   501.2    5.973      54.620
2015    4       10     7   7    5.5686   501.5    5.961      54.614
2015    4       10     7  13    5.5642   501.7    5.949      54.605
2015    4       10     7  19    5.5598   501.9    5.936      54.596
2015    4       10     7  25    5.5553   502.1    5.924      54.586
2015    4       10     7  31    5.5508   502.3    5.912      54.574
2015    4       10     7  36    5.5463   502.5    5.899      54.562
2015    4       10     7  42    5.5418   502.7    5.887      54.549
2015    4       10     7  48    5.5373   503.0    5.875      54.535
2015    4       10     7  54    5.5327   503.2    5.862      54.521
2015    4       10     8   0    5.5281   503.4    5.850      54.506
2015    4       10     8   5    5.5234   503.6    5.837      54.489
2015    4       10     8  11    5.5187   503.8    5.825      54.472
2015    4       10     8  17    5.5140   504.0    5.812      54.455
2015    4       10     8  23    5.5092   504.2    5.800      54.436
2015    4       10     8  28    5.5044   504.5    5.788      54.417
2015    4       10     8  34    5.4996   504.7    5.775      54.398
2015    4       10     8  40    5.4947   504.9    5.763      54.377
2015    4       10     8  46    5.4898   505.1    5.752      54.357
2015    4       10     8  52    5.4849   505.2    5.740      54.335
2015    4       10     8  57    5.4801   505.4    5.729      54.312
2015    4       10     9   3    5.4753   505.5    5.719      54.289
2015    4       10     9   9    5.4707   505.7    5.708      54.266
2015    4       10     9  15    5.4661   505.8    5.699      54.245
2015    4       10     9  21    5.4616   505.9    5.689      54.226
2015    4       10     9  26    5.4572   506.0    5.680      54.209
2015    4       10     9  32    5.4529   506.1    5.672      54.194
2015    4       10     9  38    5.4487   506.3    5.664      54.183
2015    4       10     9  44    5.4445   506.4    5.656      54.175
2015    4       10     9  50    5.4403   506.5    5.649      54.171
2015    4       10     9  55    5.4361   506.7    5.641      54.171
2015    4       10    10   1    5.4320   506.8    5.634      54.174
2015    4       10    10   7    5.4278   507.0    5.626      54.179
2015    4       10    10  13    5.4236   507.2    5.619      54.184
2015    4       10    10  19    5.4195   507.4    5.611      54.191
2015    4       10    10  24    5.4153   507.6    5.603      54.196
2015    4       10    10  30    5.4111   507.7    5.595      54.197
2015    4       10    10  36    5.4067   507.9    5.587      54.195
2015    4       10    10  42    5.4024   508.1    5.579      54.189
2015    4       10    10  48    5.3979   508.2    5.570      54.181
2015    4       10    10  53    5.3934   508.4    5.562      54.172
2015    4       10    10  59    5.3887   508.6    5.553      54.160
2015    4       10    11   5    5.3841   508.7    5.544      54.147
2015    4       10    11  11    5.3792   508.9    5.535      54.133
2015    4       10    11  17    5.3744   509.0    5.525      54.118
2015    4       10    11  22    5.3694   509.2    5.516      54.103
2015    4       10    11  28    5.3644   509.4    5.506      54.087
2015    4       10    11  34    5.3594   509.5    5.497      54.071
2015    4       10    11  40    5.3543   509.7    5.487      54.054
2015    4       10    11  46    5.3490   509.9    5.478      54.036
2015    4       10    11  51    5.3438   510.0    5.468      54.018
2015    4       10    11  57    5.3386   510.1    5.459      53.999
2015    4       10    12   3    5.3333   510.3    5.450      53.979
2015    4       10    12   9    5.3280   510.4    5.440      53.959
2015    4       10    12  15    5.3228   510.5    5.431      53.938
2015    4       10    12  20    5.3175   510.7    5.422      53.917
2015    4       10    12  26    5.3123   510.8    5.414      53.897
2015    4       10    12  32    5.3071   510.9    5.405      53.877
2015    4       10    12  38    5.3019   511.1    5.396      53.857
2015    4       10    12  44    5.2968   511.2    5.388      53.839
2015    4       10    12  49    5.2916   511.3    5.379      53.820
2015    4       10    12  55    5.2864   511.5    5.370      53.801
2015    4       10    13   1    5.2812   511.6    5.362      53.782
2015    4       10    13   7    5.2760   511.8    5.353      53.761
2015    4       10    13  13    5.2709   512.0    5.345      53.740
2015    4       10    13  18    5.2657   512.1    5.336      53.717
2015    4       10    13  24    5.2605   512.3    5.328      53.692
2015    4       10    13  30    5.2553   512.4    5.319      53.665
2015    4       10    13  36    5.2501   512.6    5.311      53.638
2015    4       10    13  42    5.2448   512.7    5.302      53.609
2015    4       10    13  47    5.2395   512.8    5.293      53.580
2015    4       10    13  53    5.2342   513.0    5.285      53.551
2015    4       10    13  59    5.2289   513.1    5.276      53.520
2015    4       10    14   5    5.2236   513.2    5.268      53.489
2015    4       10    14  11    5.2182   513.4    5.259      53.458
2015    4       10    14  16    5.2130   513.5    5.251      53.427
2015    4       10    14  22    5.2077   513.6    5.242      53.395
2015    4       10    14  28    5.2025   513.7    5.234      53.362
2015    4       10    14  34    5.1973   513.8    5.226      53.330
2015    4       10    14  40    5.1922   513.9    5.218      53.298
2015    4       10    14  45    5.1872   514.0    5.211      53.267
2015    4       10    14  51    5.1821   514.1    5.203      53.236
2015    4       10    14  57    5.1771   514.2    5.195      53.206
2015    4       10    15   3    5.1722   514.3    5.188      53.177
2015    4       10    15   9    5.1673   514.4    5.181      53.149
2015    4       10    15  14    5.1624   514.5    5.174      53.121
2015    4       10    15  20    5.1576   514.6    5.167      53.095
2015    4       10    15  26    5.1529   514.7    5.160      53.069
2015    4       10    15  32    5.1481   514.8    5.154      53.043
2015    4       10    15  38    5.1435   514.9    5.147      53.019
2015    4       10    15  43    5.1388   515.0    5.141      52.995
2015    4       10    15  49    5.1342   515.1    5.135      52.971
2015    4       10    15  55    5.1297   515.2    5.129      52.948
2015    4       10    16   1    5.1252   515.2    5.124      52.926
2015    4       10    16   6    5.1207   515.3    5.119      52.904
2015    4       10    16  12    5.1163   515.4    5.113      52.884
2015    4       10    16  18    5.1120   515.5    5.108      52.864
2015    4       10    16  24    5.1077   515.5    5.104      52.846
2015    4       10    16  30    5.1034   515.6    5.099      52.828
2015    4       10    16  35    5.0992   515.7    5.095      52.811
2015    4       10    16  41    5.0950   515.7    5.090      52.795
2015    4       10    16  47    5.0909   515.8    5.086      52.779
2015    4       10    16  53    5.0867   515.8    5.082      52.765
2015    4       10    16  59    5.0826   515.9    5.079      52.752
2015    4       10    17   4    5.0785   515.9    5.075      52.740
2015    4       10    17  10    5.0744   516.0    5.071      52.728
2015    4       10    17  16    5.0703   516.1    5.067      52.716
2015    4       10    17  22    5.0662   516.1    5.064      52.704
2015    4       10    17  28    5.0621   516.2    5.060      52.692
2015    4       10    17  33    5.0579   516.3    5.056      52.681
2015    4       10    17  39    5.0538   516.3    5.052      52.668
2015    4       10    17  45    5.0497   516.4    5.047      52.654
2015    4       10    17  51    5.0456   516.5    5.043      52.640
2015    4       10    17  57    5.0414   516.6    5.038      52.624
2015    4       10    18   2    5.0373   516.6    5.034      52.608
2015    4       10    18   8    5.0331   516.7    5.029      52.591
2015    4       10    18  14    5.0289   516.8    5.024      52.573
2015    4       10    18  20    5.0246   516.9    5.020      52.555
2015    4       10    18  26    5.0203   516.9    5.015      52.536
2015    4       10    18  31    5.0161   517.0    5.010      52.516
2015    4       10    18  37    5.0118   517.1    5.005      52.496
2015    4       10    18  43    5.0075   517.2    5.000      52.475
2015    4       10    18  49    5.0032   517.2    4.995      52.454
2015    4       10    18  55    4.9989   517.3    4.990      52.432
2015    4       10    19   0    4.9946   517.4    4.984      52.410
2015    4       10    19   6    4.9902   517.5    4.979      52.388
2015    4       10    19  12    4.9859   517.5    4.974      52.366
2015    4       10    19  18    4.9816   517.6    4.969      52.343
2015    4       10    19  24    4.9773   517.7    4.964      52.321
2015    4       10    19  29    4.9730   517.7    4.959      52.297
2015    4       10    19  35    4.9687   517.8    4.953      52.274
2015    4       10    19  41    4.9645   517.9    4.948      52.251
2015    4       10    19  47    4.9602   517.9    4.943      52.227
2015    4       10    19  53    4.9559   518.0    4.938      52.203
2015    4       10    19  58    4.9516   518.1    4.933      52.179
2015    4       10    20   4    4.9474   518.1    4.928      52.155
2015    4       10    20  10    4.9431   518.2    4.923      52.130
2015    4       10    20  16    4.9389   518.3    4.918      52.106
2015    4       10    20  22    4.9347   518.3    4.913      52.082
2015    4       10    20  27    4.9305   518.4    4.908      52.057
2015    4       10    20  33    4.9263   518.5    4.903      52.032
2015    4       10    20  39    4.9221   518.5    4.898      52.008
2015    4       10    20  45    4.9180   518.6    4.894      51.983
2015    4       10    20  51    4.9138   518.6    4.889      51.959
2015    4       10    20  56    4.9097   518.7    4.884      51.934
2015    4       10    21   2    4.9056   518.7    4.880      51.910
2015    4       10    21   8    4.9016   518.8    4.875      51.885
2015    4       10    21  14    4.8975   518.8    4.871      51.861
2015    4       10    21  20    4.8935   518.9    4.866      51.837
2015    4       10    21  25    4.8895   519.0    4.862      51.814
2015    4       10    21  31    4.8855   519.0    4.858      51.790
2015    4       10    21  37    4.8815   519.0    4.854      51.767
2015    4       10    21  43    4.8776   519.1    4.850      51.744
2015    4       10    21  49    4.8737   519.1    4.846      51.722
2015    4       10    21  54    4.8698   519.2    4.842      51.699
2015    4       10    22   0    4.8660   519.2    4.838      51.678
2015    4       10    22   6    4.8622   519.3    4.834      51.656
2015    4       10    22  12    4.8584   519.3    4.830      51.635
2015    4       10    22  18    4.8547   519.4    4.827      51.615
2015    4       10    22  23    4.8509   519.4    4.823      51.594
2015    4       10    22  29    4.8473   519.4    4.820      51.575
2015    4       10    22  35    4.8436   519.5    4.816      51.555
2015    4       10    22  41    4.8400   519.5    4.813      51.536
2015    4       10    22  47    4.8364   519.5    4.810      51.518
2015    4       10    22  52    4.8329   519.6    4.806      51.500
2015    4       10    22  58    4.8293   519.6    4.803      51.483
2015    4       10    23   4    4.8258   519.6    4.800      51.465
2015    4       10    23  10    4.8224   519.7    4.797      51.449
2015    4       10    23  16    4.8190   519.7    4.794      51.432
2015    4       10    23  21    4.8156   519.7    4.791      51.416
2015    4       10    23  27    4.8122   519.8    4.788      51.401
2015    4       10    23  33    4.8089   519.8    4.785      51.385
2015    4       10    23  39    4.8055   519.8    4.782      51.370
2015    4       10    23  44    4.8022   519.9    4.779      51.355
2015    4       10    23  50    4.7989   519.9    4.776      51.340
2015    4       10    23  56    4.7956   519.9    4.773      51.324
2015    4       11     0   2    4.7923   519.9    4.770      51.309
