year    month   day   hour  minute  B_enl V_enl   n_enl       T_enl
[year] [month] [day] [hour][minute] [nT]  [km/s]  [cm-3]      [kK]
2015    4        1     0   5    6.1200   584.8    4.739      64.603
2015    4        1     0  10    6.1167   585.1    4.732      64.628
2015    4        1     0  16    6.1134   585.4    4.726      64.654
2015    4        1     0  22    6.1100   585.7    4.719      64.680
2015    4        1     0  28    6.1067   586.1    4.712      64.707
2015    4        1     0  33    6.1035   586.4    4.705      64.733
2015    4        1     0  39    6.1002   586.7    4.698      64.760
2015    4        1     0  45    6.0969   587.0    4.692      64.787
2015    4        1     0  50    6.0937   587.3    4.685      64.814
2015    4        1     0  56    6.0904   587.6    4.679      64.841
2015    4        1     1   2    6.0872   587.9    4.672      64.868
2015    4        1     1   8    6.0840   588.2    4.666      64.896
2015    4        1     1  13    6.0808   588.5    4.659      64.923
2015    4        1     1  19    6.0775   588.8    4.653      64.951
2015    4        1     1  25    6.0743   589.1    4.646      64.978
2015    4        1     1  30    6.0712   589.4    4.640      65.006
2015    4        1     1  36    6.0680   589.8    4.633      65.033
2015    4        1     1  42    6.0648   590.1    4.627      65.061
2015    4        1     1  48    6.0616   590.4    4.620      65.089
2015    4        1     1  53    6.0585   590.7    4.614      65.116
2015    4        1     1  59    6.0553   591.0    4.607      65.143
2015    4        1     2   5    6.0522   591.3    4.601      65.170
2015    4        1     2  10    6.0490   591.6    4.594      65.197
2015    4        1     2  16    6.0459   591.9    4.588      65.224
2015    4        1     2  22    6.0428   592.2    4.581      65.250
2015    4        1     2  28    6.0397   592.5    4.575      65.276
2015    4        1     2  33    6.0366   592.8    4.568      65.302
2015    4        1     2  39    6.0336   593.1    4.562      65.328
2015    4        1     2  45    6.0305   593.4    4.555      65.354
2015    4        1     2  50    6.0275   593.7    4.548      65.379
2015    4        1     2  56    6.0244   594.0    4.542      65.404
2015    4        1     3   2    6.0214   594.3    4.535      65.429
2015    4        1     3   8    6.0184   594.6    4.529      65.454
2015    4        1     3  13    6.0154   594.9    4.522      65.479
2015    4        1     3  19    6.0124   595.2    4.516      65.504
2015    4        1     3  25    6.0094   595.5    4.509      65.528
2015    4        1     3  31    6.0065   595.8    4.502      65.553
2015    4        1     3  36    6.0035   596.1    4.496      65.577
2015    4        1     3  42    6.0005   596.4    4.489      65.602
2015    4        1     3  48    5.9975   596.7    4.483      65.626
2015    4        1     3  53    5.9946   597.0    4.476      65.650
2015    4        1     3  59    5.9916   597.3    4.470      65.674
2015    4        1     4   5    5.9886   597.6    4.463      65.698
2015    4        1     4  11    5.9857   597.9    4.457      65.722
2015    4        1     4  16    5.9827   598.2    4.450      65.746
2015    4        1     4  22    5.9798   598.5    4.444      65.769
2015    4        1     4  28    5.9768   598.8    4.437      65.793
2015    4        1     4  33    5.9739   599.1    4.431      65.817
2015    4        1     4  39    5.9709   599.4    4.425      65.840
2015    4        1     4  45    5.9680   599.7    4.418      65.864
2015    4        1     4  51    5.9651   600.0    4.412      65.887
2015    4        1     4  56    5.9621   600.3    4.406      65.911
2015    4        1     5   2    5.9592   600.6    4.399      65.935
2015    4        1     5   8    5.9563   600.9    4.393      65.959
2015    4        1     5  14    5.9534   601.2    4.387      65.982
2015    4        1     5  19    5.9505   601.5    4.381      66.006
2015    4        1     5  25    5.9476   601.8    4.375      66.030
2015    4        1     5  31    5.9447   602.1    4.368      66.054
2015    4        1     5  36    5.9418   602.4    4.362      66.079
2015    4        1     5  42    5.9389   602.7    4.356      66.103
2015    4        1     5  48    5.9360   602.9    4.350      66.128
2015    4        1     5  54    5.9331   603.2    4.344      66.152
2015    4        1     5  59    5.9302   603.5    4.338      66.177
2015    4        1     6   5    5.9274   603.8    4.332      66.202
2015    4        1     6  11    5.9245   604.1    4.326      66.228
2015    4        1     6  16    5.9216   604.4    4.320      66.253
2015    4        1     6  22    5.9188   604.7    4.315      66.279
2015    4        1     6  28    5.9159   605.0    4.309      66.305
2015    4        1     6  34    5.9131   605.3    4.303      66.331
2015    4        1     6  39    5.9102   605.6    4.297      66.357
2015    4        1     6  45    5.9074   605.9    4.292      66.384
2015    4        1     6  51    5.9046   606.2    4.286      66.410
2015    4        1     6  57    5.9017   606.5    4.280      66.437
2015    4        1     7   2    5.8989   606.8    4.275      66.464
2015    4        1     7   8    5.8961   607.0    4.269      66.492
2015    4        1     7  14    5.8933   607.3    4.264      66.519
2015    4        1     7  19    5.8905   607.6    4.258      66.546
2015    4        1     7  25    5.8876   607.9    4.253      66.574
2015    4        1     7  31    5.8848   608.2    4.247      66.602
2015    4        1     7  37    5.8820   608.5    4.242      66.630
2015    4        1     7  42    5.8792   608.8    4.237      66.658
2015    4        1     7  48    5.8764   609.1    4.231      66.686
2015    4        1     7  54    5.8736   609.4    4.226      66.713
2015    4        1     7  59    5.8708   609.6    4.221      66.741
2015    4        1     8   5    5.8680   609.9    4.215      66.769
2015    4        1     8  11    5.8653   610.2    4.210      66.797
2015    4        1     8  17    5.8625   610.5    4.205      66.825
2015    4        1     8  22    5.8597   610.8    4.199      66.852
2015    4        1     8  28    5.8569   611.1    4.194      66.880
2015    4        1     8  34    5.8542   611.4    4.189      66.907
2015    4        1     8  39    5.8514   611.6    4.183      66.934
2015    4        1     8  45    5.8486   611.9    4.178      66.961
2015    4        1     8  51    5.8459   612.2    4.173      66.988
2015    4        1     8  57    5.8431   612.5    4.167      67.015
2015    4        1     9   2    5.8404   612.8    4.162      67.041
2015    4        1     9   8    5.8376   613.1    4.157      67.067
2015    4        1     9  14    5.8349   613.3    4.151      67.093
2015    4        1     9  19    5.8322   613.6    4.146      67.119
2015    4        1     9  25    5.8295   613.9    4.141      67.144
2015    4        1     9  31    5.8267   614.2    4.135      67.170
2015    4        1     9  37    5.8240   614.5    4.130      67.195
2015    4        1     9  42    5.8213   614.7    4.124      67.219
2015    4        1     9  48    5.8186   615.0    4.119      67.244
2015    4        1     9  54    5.8159   615.3    4.114      67.268
2015    4        1    10   0    5.8132   615.6    4.108      67.292
2015    4        1    10   5    5.8105   615.9    4.103      67.316
2015    4        1    10  11    5.8078   616.1    4.097      67.339
2015    4        1    10  17    5.8051   616.4    4.092      67.363
2015    4        1    10  22    5.8024   616.7    4.087      67.386
2015    4        1    10  28    5.7997   617.0    4.081      67.409
2015    4        1    10  34    5.7970   617.3    4.076      67.432
2015    4        1    10  40    5.7943   617.5    4.070      67.454
2015    4        1    10  45    5.7917   617.8    4.065      67.477
2015    4        1    10  51    5.7890   618.1    4.060      67.499
2015    4        1    10  57    5.7863   618.4    4.054      67.522
2015    4        1    11   2    5.7836   618.7    4.049      67.544
2015    4        1    11   8    5.7809   618.9    4.043      67.566
2015    4        1    11  14    5.7782   619.2    4.038      67.588
2015    4        1    11  20    5.7755   619.5    4.033      67.609
2015    4        1    11  25    5.7728   619.8    4.027      67.631
2015    4        1    11  31    5.7701   620.0    4.022      67.653
2015    4        1    11  37    5.7674   620.3    4.017      67.674
2015    4        1    11  42    5.7647   620.6    4.012      67.696
2015    4        1    11  48    5.7619   620.9    4.006      67.717
2015    4        1    11  54    5.7592   621.1    4.001      67.738
2015    4        1    12   0    5.7565   621.4    3.996      67.759
2015    4        1    12   5    5.7538   621.7    3.990      67.780
2015    4        1    12  11    5.7510   622.0    3.985      67.801
2015    4        1    12  17    5.7483   622.2    3.980      67.822
2015    4        1    12  23    5.7456   622.5    3.975      67.843
2015    4        1    12  28    5.7428   622.8    3.970      67.864
2015    4        1    12  34    5.7401   623.0    3.964      67.885
2015    4        1    12  40    5.7374   623.3    3.959      67.905
2015    4        1    12  45    5.7346   623.6    3.954      67.926
2015    4        1    12  51    5.7319   623.9    3.949      67.947
2015    4        1    12  57    5.7291   624.1    3.944      67.968
2015    4        1    13   3    5.7264   624.4    3.939      67.989
2015    4        1    13   8    5.7237   624.7    3.934      68.010
2015    4        1    13  14    5.7209   624.9    3.929      68.032
2015    4        1    13  20    5.7182   625.2    3.924      68.053
2015    4        1    13  26    5.7155   625.5    3.919      68.075
2015    4        1    13  31    5.7127   625.7    3.914      68.097
2015    4        1    13  37    5.7100   626.0    3.909      68.119
2015    4        1    13  43    5.7073   626.3    3.905      68.141
2015    4        1    13  48    5.7046   626.5    3.900      68.164
2015    4        1    13  54    5.7019   626.8    3.895      68.186
2015    4        1    14   0    5.6991   627.0    3.890      68.209
2015    4        1    14   6    5.6964   627.3    3.886      68.232
2015    4        1    14  11    5.6937   627.6    3.881      68.255
2015    4        1    14  17    5.6910   627.8    3.876      68.279
2015    4        1    14  23    5.6883   628.1    3.872      68.302
2015    4        1    14  28    5.6856   628.4    3.867      68.326
2015    4        1    14  34    5.6829   628.6    3.863      68.350
2015    4        1    14  40    5.6802   628.9    3.858      68.374
2015    4        1    14  46    5.6775   629.1    3.854      68.398
2015    4        1    14  51    5.6747   629.4    3.849      68.422
2015    4        1    14  57    5.6720   629.7    3.845      68.446
2015    4        1    15   3    5.6693   629.9    3.840      68.470
2015    4        1    15   8    5.6666   630.2    3.836      68.494
2015    4        1    15  14    5.6639   630.4    3.831      68.517
2015    4        1    15  20    5.6612   630.7    3.827      68.541
2015    4        1    15  26    5.6585   630.9    3.822      68.565
2015    4        1    15  31    5.6558   631.2    3.818      68.589
2015    4        1    15  37    5.6531   631.5    3.814      68.612
2015    4        1    15  43    5.6504   631.7    3.809      68.635
2015    4        1    15  48    5.6477   632.0    3.805      68.659
2015    4        1    15  54    5.6450   632.2    3.800      68.682
2015    4        1    16   0    5.6423   632.5    3.796      68.705
2015    4        1    16   6    5.6396   632.7    3.791      68.728
2015    4        1    16  11    5.6370   633.0    3.787      68.750
2015    4        1    16  17    5.6343   633.2    3.782      68.772
2015    4        1    16  23    5.6316   633.5    3.778      68.795
2015    4        1    16  28    5.6289   633.7    3.774      68.817
2015    4        1    16  34    5.6263   634.0    3.769      68.838
2015    4        1    16  40    5.6236   634.2    3.765      68.860
2015    4        1    16  46    5.6209   634.5    3.760      68.881
2015    4        1    16  51    5.6183   634.7    3.756      68.902
2015    4        1    16  57    5.6156   635.0    3.751      68.923
2015    4        1    17   3    5.6129   635.2    3.747      68.943
2015    4        1    17   9    5.6103   635.5    3.742      68.963
2015    4        1    17  14    5.6076   635.7    3.738      68.983
2015    4        1    17  20    5.6049   636.0    3.733      69.003
2015    4        1    17  26    5.6023   636.2    3.729      69.022
2015    4        1    17  31    5.5996   636.5    3.725      69.041
2015    4        1    17  37    5.5969   636.7    3.720      69.060
2015    4        1    17  43    5.5943   637.0    3.716      69.079
2015    4        1    17  49    5.5916   637.2    3.711      69.097
2015    4        1    17  54    5.5889   637.4    3.707      69.115
2015    4        1    18   0    5.5862   637.7    3.702      69.133
2015    4        1    18   6    5.5836   637.9    3.698      69.151
2015    4        1    18  11    5.5809   638.2    3.693      69.168
2015    4        1    18  17    5.5782   638.4    3.689      69.186
2015    4        1    18  23    5.5755   638.7    3.684      69.203
2015    4        1    18  29    5.5729   638.9    3.680      69.220
2015    4        1    18  34    5.5702   639.1    3.676      69.237
2015    4        1    18  40    5.5675   639.4    3.671      69.254
2015    4        1    18  46    5.5648   639.6    3.667      69.270
2015    4        1    18  52    5.5621   639.9    3.662      69.287
2015    4        1    18  57    5.5594   640.1    3.658      69.304
2015    4        1    19   3    5.5568   640.3    3.654      69.320
2015    4        1    19   9    5.5541   640.6    3.649      69.337
2015    4        1    19  14    5.5514   640.8    3.645      69.353
2015    4        1    19  20    5.5487   641.1    3.641      69.370
2015    4        1    19  26    5.5460   641.3    3.636      69.386
2015    4        1    19  32    5.5433   641.5    3.632      69.402
2015    4        1    19  37    5.5406   641.8    3.628      69.419
2015    4        1    19  43    5.5379   642.0    3.624      69.435
2015    4        1    19  49    5.5352   642.2    3.619      69.451
2015    4        1    19  54    5.5325   642.5    3.615      69.467
2015    4        1    20   0    5.5297   642.7    3.611      69.483
2015    4        1    20   6    5.5270   642.9    3.607      69.499
2015    4        1    20  12    5.5243   643.2    3.603      69.515
2015    4        1    20  17    5.5216   643.4    3.598      69.531
2015    4        1    20  23    5.5188   643.6    3.594      69.547
2015    4        1    20  29    5.5161   643.9    3.590      69.563
2015    4        1    20  35    5.5134   644.1    3.586      69.579
2015    4        1    20  40    5.5106   644.3    3.582      69.594
2015    4        1    20  46    5.5079   644.5    3.578      69.610
2015    4        1    20  52    5.5051   644.8    3.574      69.626
2015    4        1    20  57    5.5024   645.0    3.569      69.642
2015    4        1    21   3    5.4997   645.2    3.565      69.658
2015    4        1    21   9    5.4969   645.4    3.561      69.674
2015    4        1    21  15    5.4942   645.7    3.557      69.690
2015    4        1    21  20    5.4914   645.9    3.553      69.706
2015    4        1    21  26    5.4887   646.1    3.549      69.722
2015    4        1    21  32    5.4860   646.3    3.546      69.739
2015    4        1    21  37    5.4832   646.6    3.542      69.755
2015    4        1    21  43    5.4805   646.8    3.538      69.772
2015    4        1    21  49    5.4778   647.0    3.534      69.789
2015    4        1    21  55    5.4751   647.2    3.530      69.806
2015    4        1    22   0    5.4723   647.4    3.526      69.823
2015    4        1    22   6    5.4696   647.7    3.523      69.841
2015    4        1    22  12    5.4669   647.9    3.519      69.858
2015    4        1    22  17    5.4642   648.1    3.515      69.876
2015    4        1    22  23    5.4615   648.3    3.511      69.893
2015    4        1    22  29    5.4588   648.5    3.508      69.910
2015    4        1    22  35    5.4561   648.7    3.504      69.928
2015    4        1    22  40    5.4534   649.0    3.500      69.945
2015    4        1    22  46    5.4507   649.2    3.497      69.962
2015    4        1    22  52    5.4479   649.4    3.493      69.979
2015    4        1    22  57    5.4452   649.6    3.490      69.996
2015    4        1    23   3    5.4425   649.8    3.486      70.012
2015    4        1    23   9    5.4398   650.0    3.482      70.028
2015    4        1    23  15    5.4371   650.2    3.479      70.044
2015    4        1    23  20    5.4344   650.4    3.475      70.060
2015    4        1    23  26    5.4317   650.6    3.471      70.075
2015    4        1    23  32    5.4290   650.9    3.468      70.090
2015    4        1    23  38    5.4263   651.1    3.464      70.104
2015    4        1    23  43    5.4236   651.3    3.460      70.118
2015    4        1    23  49    5.4209   651.5    3.457      70.132
2015    4        1    23  55    5.4182   651.7    3.453      70.146
2015    4        2     0   0    5.4155   651.9    3.449      70.159
2015    4        2     0   6    5.4128   652.1    3.446      70.172
2015    4        2     0  12    5.4102   652.3    3.442      70.184
2015    4        2     0  18    5.4075   652.5    3.439      70.197
2015    4        2     0  23    5.4048   652.7    3.435      70.209
2015    4        2     0  29    5.4021   652.9    3.431      70.221
2015    4        2     0  35    5.3995   653.1    3.428      70.233
2015    4        2     0  40    5.3968   653.3    3.424      70.244
2015    4        2     0  46    5.3941   653.5    3.420      70.255
2015    4        2     0  52    5.3915   653.7    3.417      70.267
2015    4        2     0  58    5.3888   653.9    3.413      70.278
2015    4        2     1   3    5.3862   654.1    3.410      70.289
2015    4        2     1   9    5.3835   654.3    3.406      70.299
2015    4        2     1  15    5.3809   654.5    3.402      70.310
2015    4        2     1  20    5.3782   654.7    3.399      70.321
2015    4        2     1  26    5.3756   654.9    3.395      70.331
2015    4        2     1  32    5.3729   655.1    3.392      70.342
2015    4        2     1  38    5.3702   655.3    3.388      70.352
2015    4        2     1  43    5.3676   655.5    3.385      70.362
2015    4        2     1  49    5.3649   655.7    3.381      70.372
2015    4        2     1  55    5.3623   655.8    3.378      70.382
2015    4        2     2   1    5.3596   656.0    3.374      70.393
2015    4        2     2   6    5.3569   656.2    3.371      70.403
2015    4        2     2  12    5.3543   656.4    3.367      70.413
2015    4        2     2  18    5.3516   656.6    3.364      70.423
2015    4        2     2  23    5.3489   656.8    3.360      70.434
2015    4        2     2  29    5.3462   657.0    3.357      70.444
2015    4        2     2  35    5.3436   657.2    3.353      70.455
2015    4        2     2  41    5.3409   657.4    3.350      70.466
2015    4        2     2  46    5.3382   657.5    3.346      70.476
2015    4        2     2  52    5.3356   657.7    3.343      70.487
2015    4        2     2  58    5.3329   657.9    3.339      70.498
2015    4        2     3   3    5.3302   658.1    3.336      70.510
2015    4        2     3   9    5.3276   658.3    3.333      70.521
2015    4        2     3  15    5.3249   658.5    3.329      70.532
2015    4        2     3  21    5.3223   658.6    3.326      70.544
2015    4        2     3  26    5.3196   658.8    3.323      70.555
2015    4        2     3  32    5.3169   659.0    3.320      70.567
2015    4        2     3  38    5.3142   659.2    3.316      70.579
2015    4        2     3  44    5.3116   659.4    3.313      70.591
2015    4        2     3  49    5.3089   659.5    3.310      70.603
2015    4        2     3  55    5.3062   659.7    3.307      70.614
2015    4        2     4   1    5.3035   659.9    3.303      70.626
2015    4        2     4   6    5.3009   660.1    3.300      70.637
2015    4        2     4  12    5.2982   660.3    3.297      70.649
2015    4        2     4  18    5.2955   660.4    3.294      70.660
2015    4        2     4  24    5.2928   660.6    3.291      70.671
2015    4        2     4  29    5.2901   660.8    3.288      70.682
2015    4        2     4  35    5.2874   661.0    3.284      70.692
2015    4        2     4  41    5.2847   661.1    3.281      70.703
2015    4        2     4  46    5.2820   661.3    3.278      70.713
2015    4        2     4  52    5.2793   661.5    3.275      70.723
2015    4        2     4  58    5.2766   661.6    3.272      70.732
2015    4        2     5   4    5.2739   661.8    3.269      70.742
2015    4        2     5   9    5.2712   662.0    3.266      70.751
2015    4        2     5  15    5.2685   662.1    3.263      70.760
2015    4        2     5  21    5.2658   662.3    3.260      70.769
2015    4        2     5  26    5.2631   662.5    3.256      70.778
2015    4        2     5  32    5.2604   662.6    3.253      70.787
2015    4        2     5  38    5.2577   662.8    3.250      70.796
2015    4        2     5  44    5.2550   663.0    3.247      70.804
2015    4        2     5  49    5.2523   663.1    3.244      70.812
2015    4        2     5  55    5.2497   663.3    3.241      70.821
2015    4        2     6   1    5.2470   663.4    3.239      70.829
2015    4        2     6   6    5.2443   663.6    3.236      70.836
2015    4        2     6  12    5.2417   663.8    3.233      70.844
2015    4        2     6  18    5.2390   663.9    3.230      70.851
2015    4        2     6  24    5.2364   664.1    3.227      70.858
2015    4        2     6  29    5.2337   664.2    3.224      70.865
2015    4        2     6  35    5.2311   664.4    3.221      70.872
2015    4        2     6  41    5.2285   664.5    3.218      70.878
2015    4        2     6  47    5.2258   664.7    3.215      70.884
2015    4        2     6  52    5.2232   664.9    3.212      70.890
2015    4        2     6  58    5.2206   665.0    3.209      70.895
2015    4        2     7   4    5.2180   665.2    3.207      70.900
2015    4        2     7   9    5.2153   665.3    3.204      70.905
2015    4        2     7  15    5.2127   665.5    3.201      70.910
2015    4        2     7  21    5.2101   665.6    3.198      70.914
2015    4        2     7  27    5.2075   665.8    3.195      70.918
2015    4        2     7  32    5.2049   665.9    3.192      70.922
2015    4        2     7  38    5.2023   666.1    3.189      70.926
2015    4        2     7  44    5.1997   666.2    3.186      70.929
2015    4        2     7  49    5.1971   666.3    3.183      70.933
2015    4        2     7  55    5.1946   666.5    3.180      70.936
2015    4        2     8   1    5.1920   666.6    3.178      70.939
2015    4        2     8   7    5.1894   666.8    3.175      70.943
2015    4        2     8  12    5.1869   666.9    3.172      70.946
2015    4        2     8  18    5.1844   667.1    3.169      70.950
2015    4        2     8  24    5.1818   667.2    3.166      70.954
2015    4        2     8  29    5.1793   667.3    3.163      70.957
2015    4        2     8  35    5.1768   667.5    3.161      70.962
2015    4        2     8  41    5.1743   667.6    3.158      70.966
2015    4        2     8  47    5.1718   667.8    3.155      70.970
2015    4        2     8  52    5.1693   667.9    3.152      70.975
2015    4        2     8  58    5.1668   668.0    3.150      70.980
2015    4        2     9   4    5.1643   668.2    3.147      70.985
2015    4        2     9  10    5.1619   668.3    3.144      70.991
2015    4        2     9  15    5.1594   668.4    3.142      70.996
2015    4        2     9  21    5.1569   668.6    3.139      71.001
2015    4        2     9  27    5.1544   668.7    3.136      71.007
2015    4        2     9  32    5.1520   668.9    3.134      71.013
2015    4        2     9  38    5.1495   669.0    3.131      71.019
2015    4        2     9  44    5.1470   669.1    3.128      71.024
2015    4        2     9  50    5.1445   669.3    3.126      71.030
2015    4        2     9  55    5.1420   669.4    3.123      71.036
2015    4        2    10   1    5.1396   669.5    3.121      71.042
2015    4        2    10   7    5.1371   669.6    3.118      71.048
2015    4        2    10  12    5.1346   669.8    3.115      71.053
2015    4        2    10  18    5.1321   669.9    3.113      71.059
2015    4        2    10  24    5.1296   670.0    3.110      71.065
2015    4        2    10  30    5.1271   670.2    3.108      71.071
2015    4        2    10  35    5.1246   670.3    3.105      71.076
2015    4        2    10  41    5.1221   670.4    3.103      71.082
2015    4        2    10  47    5.1196   670.5    3.100      71.088
2015    4        2    10  53    5.1171   670.7    3.098      71.094
2015    4        2    10  58    5.1146   670.8    3.095      71.099
2015    4        2    11   4    5.1122   670.9    3.093      71.105
2015    4        2    11  10    5.1097   671.0    3.090      71.111
2015    4        2    11  15    5.1072   671.1    3.088      71.117
2015    4        2    11  21    5.1047   671.3    3.085      71.123
2015    4        2    11  27    5.1022   671.4    3.083      71.128
2015    4        2    11  33    5.0997   671.5    3.081      71.134
2015    4        2    11  38    5.0973   671.6    3.078      71.140
2015    4        2    11  44    5.0948   671.7    3.076      71.145
2015    4        2    11  50    5.0923   671.8    3.074      71.150
2015    4        2    11  55    5.0898   672.0    3.072      71.155
2015    4        2    12   1    5.0873   672.1    3.069      71.160
2015    4        2    12   7    5.0848   672.2    3.067      71.165
2015    4        2    12  13    5.0824   672.3    3.065      71.169
2015    4        2    12  18    5.0799   672.4    3.063      71.173
2015    4        2    12  24    5.0774   672.5    3.060      71.176
2015    4        2    12  30    5.0749   672.6    3.058      71.179
2015    4        2    12  35    5.0724   672.7    3.056      71.182
2015    4        2    12  41    5.0699   672.8    3.053      71.184
2015    4        2    12  47    5.0675   672.9    3.051      71.186
2015    4        2    12  53    5.0650   673.1    3.049      71.187
2015    4        2    12  58    5.0625   673.2    3.047      71.188
2015    4        2    13   4    5.0600   673.3    3.044      71.188
2015    4        2    13  10    5.0576   673.4    3.042      71.188
2015    4        2    13  15    5.0551   673.5    3.040      71.187
2015    4        2    13  21    5.0526   673.6    3.038      71.186
2015    4        2    13  27    5.0502   673.7    3.035      71.185
2015    4        2    13  33    5.0477   673.8    3.033      71.184
2015    4        2    13  38    5.0453   673.9    3.031      71.182
2015    4        2    13  44    5.0429   674.0    3.028      71.180
2015    4        2    13  50    5.0405   674.1    3.026      71.178
2015    4        2    13  56    5.0381   674.1    3.024      71.176
2015    4        2    14   1    5.0357   674.2    3.022      71.174
2015    4        2    14   7    5.0334   674.3    3.019      71.171
2015    4        2    14  13    5.0310   674.4    3.017      71.169
2015    4        2    14  18    5.0287   674.5    3.015      71.167
2015    4        2    14  24    5.0263   674.6    3.013      71.164
2015    4        2    14  30    5.0240   674.7    3.010      71.162
2015    4        2    14  36    5.0217   674.8    3.008      71.159
2015    4        2    14  41    5.0194   674.9    3.006      71.157
2015    4        2    14  47    5.0171   675.0    3.004      71.154
2015    4        2    14  53    5.0149   675.1    3.002      71.152
2015    4        2    14  58    5.0126   675.2    2.999      71.149
2015    4        2    15   4    5.0103   675.2    2.997      71.147
2015    4        2    15  10    5.0081   675.3    2.995      71.144
2015    4        2    15  16    5.0059   675.4    2.993      71.142
2015    4        2    15  21    5.0036   675.5    2.991      71.139
2015    4        2    15  27    5.0014   675.6    2.989      71.137
2015    4        2    15  33    4.9992   675.7    2.986      71.134
2015    4        2    15  38    4.9970   675.8    2.984      71.132
2015    4        2    15  44    4.9948   675.8    2.982      71.129
2015    4        2    15  50    4.9926   675.9    2.980      71.127
2015    4        2    15  56    4.9904   676.0    2.978      71.125
2015    4        2    16   1    4.9882   676.1    2.976      71.123
2015    4        2    16   7    4.9861   676.2    2.974      71.121
2015    4        2    16  13    4.9839   676.3    2.972      71.119
2015    4        2    16  18    4.9817   676.3    2.970      71.118
2015    4        2    16  24    4.9796   676.4    2.968      71.117
2015    4        2    16  30    4.9774   676.5    2.966      71.116
2015    4        2    16  36    4.9753   676.6    2.964      71.116
2015    4        2    16  41    4.9732   676.7    2.962      71.115
2015    4        2    16  47    4.9710   676.7    2.960      71.116
2015    4        2    16  53    4.9689   676.8    2.958      71.116
2015    4        2    16  58    4.9668   676.9    2.956      71.117
2015    4        2    17   4    4.9647   677.0    2.954      71.118
2015    4        2    17  10    4.9626   677.0    2.952      71.119
2015    4        2    17  16    4.9604   677.1    2.950      71.121
2015    4        2    17  21    4.9583   677.2    2.949      71.122
2015    4        2    17  27    4.9562   677.3    2.947      71.124
2015    4        2    17  33    4.9541   677.3    2.945      71.126
2015    4        2    17  39    4.9520   677.4    2.944      71.128
2015    4        2    17  44    4.9499   677.5    2.942      71.131
2015    4        2    17  50    4.9478   677.6    2.940      71.133
2015    4        2    17  56    4.9456   677.6    2.939      71.135
2015    4        2    18   1    4.9435   677.7    2.937      71.137
2015    4        2    18   7    4.9414   677.8    2.935      71.139
2015    4        2    18  13    4.9392   677.8    2.934      71.141
2015    4        2    18  19    4.9371   677.9    2.932      71.142
2015    4        2    18  24    4.9350   678.0    2.931      71.144
2015    4        2    18  30    4.9328   678.0    2.929      71.145
2015    4        2    18  36    4.9307   678.1    2.927      71.146
2015    4        2    18  41    4.9286   678.2    2.926      71.146
2015    4        2    18  47    4.9264   678.2    2.924      71.147
2015    4        2    18  53    4.9243   678.3    2.923      71.147
2015    4        2    18  59    4.9221   678.4    2.921      71.146
2015    4        2    19   4    4.9200   678.4    2.920      71.146
2015    4        2    19  10    4.9178   678.5    2.918      71.144
2015    4        2    19  16    4.9157   678.6    2.916      71.143
2015    4        2    19  21    4.9136   678.6    2.915      71.142
2015    4        2    19  27    4.9115   678.7    2.913      71.140
2015    4        2    19  33    4.9093   678.7    2.912      71.137
2015    4        2    19  39    4.9072   678.8    2.910      71.135
2015    4        2    19  44    4.9051   678.8    2.909      71.132
2015    4        2    19  50    4.9030   678.9    2.907      71.129
2015    4        2    19  56    4.9009   678.9    2.906      71.126
2015    4        2    20   1    4.8988   679.0    2.904      71.122
2015    4        2    20   7    4.8967   679.1    2.902      71.118
2015    4        2    20  13    4.8947   679.1    2.901      71.114
2015    4        2    20  19    4.8926   679.2    2.899      71.110
2015    4        2    20  24    4.8905   679.2    2.898      71.106
2015    4        2    20  30    4.8885   679.3    2.896      71.101
2015    4        2    20  36    4.8864   679.3    2.895      71.096
2015    4        2    20  41    4.8844   679.4    2.893      71.091
2015    4        2    20  47    4.8824   679.4    2.892      71.085
2015    4        2    20  53    4.8804   679.4    2.890      71.080
2015    4        2    20  59    4.8784   679.5    2.889      71.074
2015    4        2    21   4    4.8764   679.5    2.887      71.068
2015    4        2    21  10    4.8744   679.6    2.885      71.062
2015    4        2    21  16    4.8725   679.6    2.884      71.055
2015    4        2    21  22    4.8705   679.7    2.882      71.049
2015    4        2    21  27    4.8686   679.7    2.881      71.042
2015    4        2    21  33    4.8666   679.7    2.879      71.036
2015    4        2    21  39    4.8647   679.8    2.878      71.029
2015    4        2    21  44    4.8628   679.8    2.876      71.022
2015    4        2    21  50    4.8609   679.9    2.874      71.015
2015    4        2    21  56    4.8590   679.9    2.873      71.008
2015    4        2    22   2    4.8572   679.9    2.871      71.001
2015    4        2    22   7    4.8553   680.0    2.870      70.993
2015    4        2    22  13    4.8535   680.0    2.868      70.986
2015    4        2    22  19    4.8516   680.1    2.867      70.979
2015    4        2    22  24    4.8498   680.1    2.865      70.972
2015    4        2    22  30    4.8480   680.1    2.864      70.965
2015    4        2    22  36    4.8462   680.2    2.862      70.958
2015    4        2    22  42    4.8444   680.2    2.860      70.952
2015    4        2    22  47    4.8426   680.2    2.859      70.945
2015    4        2    22  53    4.8408   680.3    2.857      70.939
2015    4        2    22  59    4.8391   680.3    2.856      70.932
2015    4        2    23   4    4.8373   680.3    2.854      70.926
2015    4        2    23  10    4.8355   680.4    2.853      70.921
2015    4        2    23  16    4.8338   680.4    2.852      70.915
2015    4        2    23  22    4.8321   680.5    2.850      70.909
2015    4        2    23  27    4.8303   680.5    2.849      70.904
2015    4        2    23  33    4.8286   680.5    2.847      70.899
2015    4        2    23  39    4.8269   680.6    2.846      70.894
2015    4        2    23  44    4.8251   680.6    2.845      70.890
2015    4        2    23  50    4.8234   680.6    2.843      70.885
2015    4        2    23  56    4.8217   680.7    2.842      70.881
2015    4        3     0   2    4.8200   680.7    2.841      70.877
2015    4        3     0   7    4.8183   680.7    2.840      70.873
2015    4        3     0  13    4.8165   680.8    2.838      70.870
2015    4        3     0  19    4.8148   680.8    2.837      70.866
2015    4        3     0  25    4.8131   680.8    2.836      70.863
2015    4        3     0  30    4.8114   680.8    2.835      70.859
2015    4        3     0  36    4.8096   680.9    2.834      70.856
2015    4        3     0  42    4.8079   680.9    2.833      70.853
2015    4        3     0  47    4.8062   680.9    2.831      70.850
2015    4        3     0  53    4.8045   681.0    2.830      70.847
2015    4        3     0  59    4.8027   681.0    2.829      70.844
2015    4        3     1   5    4.8010   681.0    2.828      70.842
2015    4        3     1  10    4.7993   681.1    2.827      70.839
2015    4        3     1  16    4.7975   681.1    2.826      70.836
2015    4        3     1  22    4.7958   681.1    2.825      70.833
2015    4        3     1  27    4.7941   681.1    2.824      70.830
2015    4        3     1  33    4.7923   681.2    2.823      70.828
2015    4        3     1  39    4.7906   681.2    2.822      70.825
2015    4        3     1  45    4.7889   681.2    2.821      70.822
2015    4        3     1  50    4.7871   681.2    2.820      70.819
2015    4        3     1  56    4.7854   681.3    2.819      70.815
2015    4        3     2   2    4.7837   681.3    2.818      70.812
2015    4        3     2   8    4.7820   681.3    2.817      70.809
2015    4        3     2  13    4.7802   681.3    2.817      70.805
2015    4        3     2  19    4.7785   681.4    2.816      70.802
2015    4        3     2  25    4.7768   681.4    2.815      70.798
2015    4        3     2  30    4.7751   681.4    2.814      70.794
2015    4        3     2  36    4.7734   681.4    2.813      70.790
2015    4        3     2  42    4.7718   681.4    2.812      70.785
2015    4        3     2  48    4.7701   681.5    2.811      70.781
2015    4        3     2  53    4.7684   681.5    2.810      70.776
2015    4        3     2  59    4.7667   681.5    2.809      70.771
2015    4        3     3   5    4.7651   681.5    2.808      70.765
2015    4        3     3  11    4.7634   681.5    2.807      70.760
2015    4        3     3  16    4.7618   681.5    2.806      70.754
2015    4        3     3  22    4.7602   681.5    2.806      70.748
2015    4        3     3  28    4.7585   681.6    2.805      70.742
2015    4        3     3  33    4.7569   681.6    2.804      70.735
2015    4        3     3  39    4.7553   681.6    2.803      70.728
2015    4        3     3  45    4.7537   681.6    2.802      70.721
2015    4        3     3  51    4.7521   681.6    2.801      70.713
2015    4        3     3  56    4.7505   681.6    2.800      70.705
2015    4        3     4   2    4.7489   681.6    2.799      70.697
2015    4        3     4   8    4.7473   681.6    2.798      70.689
2015    4        3     4  13    4.7458   681.6    2.797      70.681
2015    4        3     4  19    4.7442   681.7    2.796      70.672
2015    4        3     4  25    4.7427   681.7    2.795      70.663
2015    4        3     4  31    4.7411   681.7    2.794      70.654
2015    4        3     4  36    4.7396   681.7    2.793      70.644
2015    4        3     4  42    4.7380   681.7    2.792      70.635
2015    4        3     4  48    4.7365   681.7    2.791      70.626
2015    4        3     4  53    4.7350   681.7    2.790      70.616
2015    4        3     4  59    4.7335   681.7    2.789      70.606
2015    4        3     5   5    4.7320   681.7    2.788      70.597
2015    4        3     5  11    4.7304   681.7    2.787      70.587
2015    4        3     5  16    4.7290   681.7    2.786      70.577
2015    4        3     5  22    4.7275   681.7    2.785      70.568
2015    4        3     5  28    4.7260   681.7    2.784      70.558
2015    4        3     5  33    4.7245   681.7    2.783      70.548
2015    4        3     5  39    4.7230   681.7    2.782      70.539
2015    4        3     5  45    4.7216   681.7    2.781      70.529
2015    4        3     5  51    4.7201   681.7    2.780      70.520
2015    4        3     5  56    4.7187   681.7    2.779      70.511
2015    4        3     6   2    4.7172   681.7    2.778      70.502
2015    4        3     6   8    4.7158   681.7    2.777      70.493
2015    4        3     6  14    4.7143   681.7    2.776      70.484
2015    4        3     6  19    4.7129   681.7    2.775      70.475
2015    4        3     6  25    4.7115   681.7    2.774      70.467
2015    4        3     6  31    4.7101   681.7    2.774      70.458
2015    4        3     6  36    4.7087   681.7    2.773      70.450
2015    4        3     6  42    4.7072   681.7    2.772      70.442
2015    4        3     6  48    4.7058   681.7    2.771      70.434
2015    4        3     6  54    4.7044   681.7    2.770      70.427
2015    4        3     6  59    4.7030   681.7    2.769      70.419
2015    4        3     7   5    4.7016   681.7    2.769      70.412
2015    4        3     7  11    4.7002   681.7    2.768      70.404
2015    4        3     7  16    4.6988   681.7    2.767      70.397
2015    4        3     7  22    4.6974   681.7    2.766      70.390
2015    4        3     7  28    4.6959   681.7    2.766      70.383
2015    4        3     7  34    4.6945   681.7    2.765      70.376
2015    4        3     7  39    4.6931   681.7    2.764      70.369
2015    4        3     7  45    4.6917   681.7    2.763      70.362
2015    4        3     7  51    4.6903   681.7    2.763      70.355
2015    4        3     7  56    4.6888   681.7    2.762      70.348
2015    4        3     8   2    4.6874   681.7    2.761      70.342
2015    4        3     8   8    4.6860   681.7    2.761      70.335
2015    4        3     8  14    4.6846   681.7    2.760      70.328
2015    4        3     8  19    4.6832   681.7    2.759      70.322
2015    4        3     8  25    4.6817   681.6    2.759      70.316
2015    4        3     8  31    4.6803   681.6    2.758      70.309
2015    4        3     8  37    4.6789   681.6    2.757      70.303
2015    4        3     8  42    4.6775   681.6    2.757      70.297
2015    4        3     8  48    4.6761   681.6    2.756      70.292
2015    4        3     8  54    4.6747   681.6    2.756      70.286
2015    4        3     8  59    4.6733   681.6    2.755      70.280
2015    4        3     9   5    4.6719   681.6    2.754      70.275
2015    4        3     9  11    4.6705   681.6    2.754      70.269
2015    4        3     9  17    4.6691   681.6    2.753      70.264
2015    4        3     9  22    4.6677   681.6    2.753      70.259
2015    4        3     9  28    4.6663   681.6    2.752      70.254
2015    4        3     9  34    4.6649   681.6    2.752      70.249
2015    4        3     9  40    4.6636   681.6    2.751      70.244
2015    4        3     9  45    4.6622   681.5    2.751      70.239
2015    4        3     9  51    4.6608   681.5    2.750      70.234
2015    4        3     9  57    4.6595   681.5    2.750      70.229
2015    4        3    10   2    4.6581   681.5    2.749      70.223
2015    4        3    10   8    4.6568   681.5    2.749      70.218
2015    4        3    10  14    4.6554   681.5    2.748      70.213
2015    4        3    10  20    4.6541   681.5    2.748      70.207
2015    4        3    10  25    4.6527   681.5    2.747      70.201
2015    4        3    10  31    4.6514   681.5    2.747      70.195
2015    4        3    10  37    4.6501   681.5    2.746      70.188
2015    4        3    10  42    4.6487   681.5    2.746      70.181
2015    4        3    10  48    4.6474   681.5    2.745      70.174
2015    4        3    10  54    4.6460   681.5    2.745      70.166
2015    4        3    11   0    4.6446   681.5    2.744      70.158
2015    4        3    11   5    4.6433   681.4    2.743      70.149
2015    4        3    11  11    4.6419   681.4    2.743      70.139
2015    4        3    11  17    4.6406   681.4    2.742      70.129
2015    4        3    11  22    4.6392   681.4    2.742      70.118
2015    4        3    11  28    4.6378   681.4    2.741      70.107
2015    4        3    11  34    4.6365   681.4    2.740      70.095
2015    4        3    11  40    4.6351   681.4    2.740      70.083
2015    4        3    11  45    4.6337   681.4    2.739      70.071
2015    4        3    11  51    4.6324   681.3    2.738      70.057
2015    4        3    11  57    4.6310   681.3    2.737      70.044
2015    4        3    12   3    4.6296   681.3    2.737      70.030
2015    4        3    12   8    4.6283   681.3    2.736      70.016
2015    4        3    12  14    4.6269   681.3    2.735      70.002
2015    4        3    12  20    4.6256   681.2    2.734      69.988
2015    4        3    12  25    4.6242   681.2    2.734      69.974
2015    4        3    12  31    4.6229   681.2    2.733      69.959
2015    4        3    12  37    4.6215   681.2    2.732      69.945
2015    4        3    12  43    4.6202   681.2    2.731      69.931
2015    4        3    12  48    4.6189   681.1    2.731      69.917
2015    4        3    12  54    4.6175   681.1    2.730      69.903
2015    4        3    13   0    4.6162   681.1    2.729      69.889
2015    4        3    13   5    4.6149   681.1    2.729      69.876
2015    4        3    13  11    4.6136   681.0    2.728      69.863
2015    4        3    13  17    4.6123   681.0    2.727      69.850
2015    4        3    13  23    4.6110   681.0    2.727      69.838
2015    4        3    13  28    4.6097   680.9    2.726      69.827
2015    4        3    13  34    4.6084   680.9    2.726      69.815
2015    4        3    13  40    4.6071   680.9    2.725      69.805
2015    4        3    13  45    4.6059   680.9    2.725      69.795
2015    4        3    13  51    4.6046   680.8    2.724      69.785
2015    4        3    13  57    4.6033   680.8    2.724      69.776
2015    4        3    14   3    4.6020   680.8    2.724      69.768
2015    4        3    14   8    4.6008   680.7    2.723      69.760
2015    4        3    14  14    4.5995   680.7    2.723      69.752
2015    4        3    14  20    4.5983   680.7    2.723      69.745
2015    4        3    14  25    4.5970   680.7    2.722      69.738
2015    4        3    14  31    4.5957   680.6    2.722      69.731
2015    4        3    14  37    4.5945   680.6    2.722      69.724
2015    4        3    14  43    4.5932   680.6    2.721      69.717
2015    4        3    14  48    4.5919   680.5    2.721      69.711
2015    4        3    14  54    4.5907   680.5    2.721      69.704
2015    4        3    15   0    4.5894   680.5    2.721      69.698
2015    4        3    15   6    4.5881   680.4    2.720      69.691
2015    4        3    15  11    4.5868   680.4    2.720      69.684
2015    4        3    15  17    4.5855   680.4    2.720      69.677
2015    4        3    15  23    4.5843   680.3    2.719      69.669
2015    4        3    15  28    4.5830   680.3    2.719      69.662
2015    4        3    15  34    4.5817   680.3    2.719      69.654
2015    4        3    15  40    4.5804   680.3    2.718      69.646
2015    4        3    15  46    4.5791   680.2    2.718      69.638
2015    4        3    15  51    4.5778   680.2    2.718      69.630
2015    4        3    15  57    4.5765   680.2    2.717      69.622
2015    4        3    16   3    4.5752   680.1    2.717      69.614
2015    4        3    16   9    4.5739   680.1    2.716      69.605
2015    4        3    16  14    4.5726   680.1    2.716      69.597
2015    4        3    16  20    4.5713   680.0    2.716      69.589
2015    4        3    16  26    4.5700   680.0    2.715      69.580
2015    4        3    16  31    4.5687   680.0    2.715      69.572
2015    4        3    16  37    4.5674   679.9    2.714      69.563
2015    4        3    16  43    4.5661   679.9    2.714      69.554
2015    4        3    16  49    4.5647   679.9    2.713      69.545
2015    4        3    16  54    4.5634   679.8    2.713      69.536
2015    4        3    17   0    4.5621   679.8    2.713      69.527
2015    4        3    17   6    4.5608   679.8    2.712      69.518
2015    4        3    17  11    4.5595   679.8    2.712      69.508
2015    4        3    17  17    4.5582   679.7    2.711      69.498
2015    4        3    17  23    4.5568   679.7    2.711      69.488
2015    4        3    17  29    4.5555   679.7    2.710      69.477
2015    4        3    17  34    4.5542   679.6    2.710      69.466
2015    4        3    17  40    4.5528   679.6    2.709      69.454
2015    4        3    17  46    4.5515   679.6    2.709      69.442
2015    4        3    17  51    4.5501   679.5    2.708      69.430
2015    4        3    17  57    4.5488   679.5    2.708      69.416
2015    4        3    18   3    4.5474   679.5    2.707      69.403
2015    4        3    18   9    4.5460   679.5    2.706      69.388
2015    4        3    18  14    4.5447   679.4    2.706      69.374
2015    4        3    18  20    4.5433   679.4    2.705      69.359
2015    4        3    18  26    4.5419   679.4    2.704      69.343
2015    4        3    18  32    4.5405   679.3    2.704      69.327
2015    4        3    18  37    4.5392   679.3    2.703      69.310
2015    4        3    18  43    4.5378   679.2    2.703      69.293
2015    4        3    18  49    4.5364   679.2    2.702      69.276
2015    4        3    18  54    4.5350   679.2    2.701      69.259
2015    4        3    19   0    4.5337   679.1    2.701      69.241
2015    4        3    19   6    4.5323   679.1    2.700      69.223
2015    4        3    19  12    4.5309   679.1    2.699      69.205
2015    4        3    19  17    4.5296   679.0    2.699      69.187
2015    4        3    19  23    4.5282   679.0    2.698      69.169
2015    4        3    19  29    4.5268   678.9    2.698      69.151
2015    4        3    19  34    4.5255   678.9    2.697      69.134
2015    4        3    19  40    4.5241   678.8    2.697      69.116
2015    4        3    19  46    4.5228   678.8    2.696      69.099
2015    4        3    19  52    4.5215   678.8    2.696      69.083
2015    4        3    19  57    4.5202   678.7    2.695      69.067
2015    4        3    20   3    4.5188   678.7    2.695      69.052
2015    4        3    20   9    4.5175   678.6    2.694      69.037
2015    4        3    20  14    4.5162   678.6    2.694      69.023
2015    4        3    20  20    4.5149   678.5    2.694      69.010
2015    4        3    20  26    4.5136   678.5    2.694      68.997
2015    4        3    20  32    4.5123   678.4    2.693      68.985
2015    4        3    20  37    4.5110   678.4    2.693      68.974
2015    4        3    20  43    4.5097   678.4    2.693      68.963
2015    4        3    20  49    4.5084   678.3    2.693      68.953
2015    4        3    20  54    4.5071   678.3    2.693      68.944
2015    4        3    21   0    4.5057   678.2    2.693      68.935
2015    4        3    21   6    4.5044   678.2    2.693      68.926
2015    4        3    21  12    4.5031   678.1    2.693      68.918
2015    4        3    21  17    4.5017   678.1    2.692      68.911
2015    4        3    21  23    4.5004   678.0    2.692      68.903
2015    4        3    21  29    4.4991   678.0    2.692      68.896
2015    4        3    21  35    4.4977   677.9    2.692      68.889
2015    4        3    21  40    4.4963   677.9    2.692      68.882
2015    4        3    21  46    4.4950   677.8    2.692      68.874
2015    4        3    21  52    4.4936   677.8    2.692      68.867
2015    4        3    21  57    4.4922   677.7    2.692      68.859
2015    4        3    22   3    4.4908   677.7    2.691      68.850
2015    4        3    22   9    4.4895   677.6    2.691      68.841
2015    4        3    22  15    4.4881   677.6    2.691      68.832
2015    4        3    22  20    4.4866   677.5    2.691      68.822
2015    4        3    22  26    4.4852   677.4    2.690      68.811
2015    4        3    22  32    4.4838   677.4    2.690      68.799
2015    4        3    22  37    4.4824   677.3    2.690      68.787
2015    4        3    22  43    4.4809   677.3    2.689      68.773
2015    4        3    22  49    4.4795   677.2    2.689      68.759
2015    4        3    22  55    4.4780   677.2    2.689      68.745
2015    4        3    23   0    4.4766   677.1    2.688      68.729
2015    4        3    23   6    4.4751   677.0    2.688      68.713
2015    4        3    23  12    4.4736   677.0    2.687      68.696
2015    4        3    23  18    4.4721   676.9    2.686      68.678
2015    4        3    23  23    4.4706   676.9    2.686      68.659
2015    4        3    23  29    4.4691   676.8    2.685      68.640
2015    4        3    23  35    4.4676   676.7    2.685      68.620
2015    4        3    23  40    4.4661   676.7    2.684      68.599
2015    4        3    23  46    4.4646   676.6    2.683      68.578
2015    4        3    23  52    4.4631   676.5    2.683      68.556
2015    4        3    23  58    4.4616   676.5    2.682      68.534
2015    4        4     0   3    4.4600   676.4    2.681      68.512
2015    4        4     0   9    4.4585   676.3    2.680      68.489
2015    4        4     0  15    4.4570   676.3    2.680      68.466
2015    4        4     0  20    4.4555   676.2    2.679      68.442
2015    4        4     0  26    4.4540   676.1    2.678      68.419
2015    4        4     0  32    4.4525   676.0    2.678      68.396
2015    4        4     0  38    4.4510   676.0    2.677      68.372
2015    4        4     0  43    4.4495   675.9    2.676      68.349
2015    4        4     0  49    4.4481   675.8    2.676      68.326
2015    4        4     0  55    4.4466   675.7    2.675      68.304
2015    4        4     1   0    4.4452   675.7    2.675      68.281
2015    4        4     1   6    4.4437   675.6    2.674      68.259
2015    4        4     1  12    4.4423   675.5    2.673      68.237
2015    4        4     1  18    4.4409   675.4    2.673      68.215
2015    4        4     1  23    4.4395   675.4    2.673      68.194
2015    4        4     1  29    4.4381   675.3    2.672      68.173
2015    4        4     1  35    4.4366   675.2    2.672      68.152
2015    4        4     1  41    4.4352   675.1    2.671      68.132
2015    4        4     1  46    4.4338   675.1    2.671      68.112
2015    4        4     1  52    4.4324   675.0    2.671      68.091
2015    4        4     1  58    4.4309   674.9    2.670      68.071
2015    4        4     2   3    4.4295   674.8    2.670      68.052
2015    4        4     2   9    4.4280   674.8    2.670      68.032
2015    4        4     2  15    4.4266   674.7    2.670      68.012
2015    4        4     2  21    4.4251   674.6    2.669      67.992
2015    4        4     2  26    4.4236   674.5    2.669      67.973
2015    4        4     2  32    4.4221   674.5    2.669      67.954
2015    4        4     2  38    4.4207   674.4    2.669      67.935
2015    4        4     2  43    4.4192   674.3    2.668      67.917
2015    4        4     2  49    4.4177   674.3    2.668      67.898
2015    4        4     2  55    4.4162   674.2    2.668      67.880
2015    4        4     3   1    4.4147   674.1    2.668      67.862
2015    4        4     3   6    4.4132   674.0    2.668      67.844
2015    4        4     3  12    4.4117   674.0    2.667      67.826
2015    4        4     3  18    4.4102   673.9    2.667      67.809
2015    4        4     3  23    4.4087   673.8    2.667      67.792
2015    4        4     3  29    4.4072   673.7    2.667      67.775
2015    4        4     3  35    4.4056   673.7    2.667      67.758
2015    4        4     3  41    4.4041   673.6    2.667      67.742
2015    4        4     3  46    4.4025   673.5    2.666      67.725
2015    4        4     3  52    4.4009   673.5    2.666      67.709
2015    4        4     3  58    4.3993   673.4    2.666      67.692
2015    4        4     4   3    4.3977   673.3    2.666      67.675
2015    4        4     4   9    4.3960   673.2    2.665      67.658
2015    4        4     4  15    4.3944   673.2    2.665      67.641
2015    4        4     4  21    4.3927   673.1    2.665      67.624
2015    4        4     4  26    4.3910   673.0    2.664      67.606
2015    4        4     4  32    4.3893   672.9    2.664      67.588
2015    4        4     4  38    4.3876   672.8    2.663      67.570
2015    4        4     4  43    4.3859   672.8    2.663      67.551
2015    4        4     4  49    4.3842   672.7    2.662      67.531
2015    4        4     4  55    4.3825   672.6    2.662      67.511
2015    4        4     5   1    4.3807   672.5    2.661      67.490
2015    4        4     5   6    4.3790   672.4    2.661      67.469
2015    4        4     5  12    4.3773   672.3    2.660      67.447
2015    4        4     5  18    4.3755   672.2    2.660      67.424
2015    4        4     5  24    4.3738   672.1    2.659      67.400
2015    4        4     5  29    4.3721   672.0    2.658      67.377
2015    4        4     5  35    4.3703   672.0    2.658      67.353
2015    4        4     5  41    4.3686   671.9    2.657      67.328
2015    4        4     5  46    4.3669   671.8    2.657      67.304
2015    4        4     5  52    4.3652   671.7    2.656      67.279
2015    4        4     5  58    4.3635   671.6    2.656      67.253
2015    4        4     6   4    4.3618   671.5    2.655      67.228
2015    4        4     6   9    4.3601   671.4    2.655      67.202
2015    4        4     6  15    4.3584   671.3    2.654      67.176
2015    4        4     6  21    4.3567   671.2    2.654      67.150
2015    4        4     6  26    4.3551   671.1    2.653      67.124
2015    4        4     6  32    4.3534   671.0    2.653      67.097
2015    4        4     6  38    4.3517   670.9    2.653      67.070
2015    4        4     6  44    4.3501   670.8    2.652      67.043
2015    4        4     6  49    4.3484   670.7    2.652      67.016
2015    4        4     6  55    4.3468   670.6    2.652      66.989
2015    4        4     7   1    4.3451   670.4    2.651      66.962
2015    4        4     7   7    4.3435   670.3    2.651      66.934
2015    4        4     7  12    4.3419   670.2    2.651      66.907
2015    4        4     7  18    4.3403   670.1    2.650      66.879
2015    4        4     7  24    4.3386   670.0    2.650      66.852
2015    4        4     7  29    4.3370   669.9    2.650      66.825
2015    4        4     7  35    4.3354   669.8    2.650      66.798
2015    4        4     7  41    4.3338   669.7    2.650      66.771
2015    4        4     7  47    4.3322   669.5    2.650      66.745
2015    4        4     7  52    4.3306   669.4    2.650      66.719
2015    4        4     7  58    4.3290   669.3    2.649      66.694
2015    4        4     8   4    4.3274   669.2    2.649      66.668
2015    4        4     8   9    4.3258   669.1    2.649      66.644
2015    4        4     8  15    4.3243   669.0    2.649      66.619
2015    4        4     8  21    4.3227   668.8    2.649      66.595
2015    4        4     8  27    4.3211   668.7    2.649      66.571
2015    4        4     8  32    4.3196   668.6    2.649      66.548
2015    4        4     8  38    4.3180   668.5    2.649      66.525
2015    4        4     8  44    4.3165   668.4    2.649      66.503
2015    4        4     8  49    4.3149   668.3    2.649      66.480
2015    4        4     8  55    4.3133   668.1    2.649      66.458
2015    4        4     9   1    4.3117   668.0    2.649      66.436
2015    4        4     9   7    4.3101   667.9    2.649      66.414
2015    4        4     9  12    4.3085   667.8    2.649      66.392
2015    4        4     9  18    4.3069   667.7    2.649      66.370
2015    4        4     9  24    4.3053   667.6    2.649      66.348
2015    4        4     9  29    4.3036   667.5    2.649      66.326
2015    4        4     9  35    4.3020   667.3    2.649      66.303
2015    4        4     9  41    4.3003   667.2    2.649      66.280
2015    4        4     9  47    4.2986   667.1    2.648      66.256
2015    4        4     9  52    4.2969   667.0    2.648      66.232
2015    4        4     9  58    4.2952   666.9    2.648      66.206
2015    4        4    10   4    4.2934   666.8    2.648      66.180
2015    4        4    10  10    4.2917   666.6    2.647      66.153
2015    4        4    10  15    4.2899   666.5    2.647      66.126
2015    4        4    10  21    4.2882   666.4    2.646      66.097
2015    4        4    10  27    4.2864   666.3    2.646      66.067
2015    4        4    10  32    4.2846   666.2    2.645      66.037
2015    4        4    10  38    4.2828   666.1    2.645      66.006
2015    4        4    10  44    4.2809   665.9    2.644      65.974
2015    4        4    10  50    4.2791   665.8    2.643      65.942
2015    4        4    10  55    4.2773   665.7    2.643      65.908
2015    4        4    11   1    4.2754   665.6    2.642      65.874
2015    4        4    11   7    4.2735   665.4    2.641      65.840
2015    4        4    11  12    4.2717   665.3    2.641      65.805
2015    4        4    11  18    4.2698   665.2    2.640      65.769
2015    4        4    11  24    4.2679   665.0    2.639      65.733
2015    4        4    11  30    4.2660   664.9    2.638      65.696
2015    4        4    11  35    4.2641   664.8    2.638      65.660
2015    4        4    11  41    4.2622   664.7    2.637      65.623
2015    4        4    11  47    4.2603   664.5    2.636      65.586
2015    4        4    11  52    4.2584   664.4    2.635      65.548
2015    4        4    11  58    4.2565   664.2    2.635      65.511
2015    4        4    12   4    4.2546   664.1    2.634      65.474
2015    4        4    12  10    4.2527   664.0    2.633      65.437
2015    4        4    12  15    4.2507   663.8    2.632      65.401
2015    4        4    12  21    4.2488   663.7    2.632      65.365
2015    4        4    12  27    4.2469   663.5    2.631      65.329
2015    4        4    12  32    4.2451   663.4    2.631      65.294
2015    4        4    12  38    4.2432   663.3    2.630      65.259
2015    4        4    12  44    4.2413   663.1    2.629      65.225
2015    4        4    12  50    4.2394   663.0    2.629      65.191
2015    4        4    12  55    4.2376   662.8    2.629      65.159
2015    4        4    13   1    4.2357   662.7    2.628      65.126
2015    4        4    13   7    4.2339   662.5    2.628      65.095
2015    4        4    13  13    4.2320   662.4    2.628      65.064
2015    4        4    13  18    4.2302   662.3    2.628      65.034
2015    4        4    13  24    4.2284   662.1    2.628      65.005
2015    4        4    13  30    4.2266   662.0    2.627      64.976
2015    4        4    13  35    4.2248   661.8    2.627      64.948
2015    4        4    13  41    4.2230   661.7    2.628      64.920
2015    4        4    13  47    4.2212   661.5    2.628      64.893
2015    4        4    13  53    4.2194   661.4    2.628      64.867
2015    4        4    13  58    4.2176   661.2    2.628      64.841
2015    4        4    14   4    4.2158   661.1    2.628      64.815
2015    4        4    14  10    4.2140   661.0    2.628      64.790
2015    4        4    14  15    4.2123   660.8    2.629      64.765
2015    4        4    14  21    4.2105   660.7    2.629      64.740
2015    4        4    14  27    4.2087   660.5    2.629      64.716
2015    4        4    14  33    4.2069   660.4    2.630      64.692
2015    4        4    14  38    4.2051   660.3    2.630      64.668
2015    4        4    14  44    4.2033   660.1    2.631      64.644
2015    4        4    14  50    4.2015   660.0    2.631      64.620
2015    4        4    14  56    4.1997   659.8    2.631      64.596
2015    4        4    15   1    4.1979   659.7    2.632      64.572
2015    4        4    15   7    4.1961   659.6    2.632      64.548
2015    4        4    15  13    4.1943   659.4    2.633      64.525
2015    4        4    15  18    4.1925   659.3    2.633      64.500
2015    4        4    15  24    4.1907   659.1    2.634      64.476
2015    4        4    15  30    4.1889   659.0    2.634      64.452
2015    4        4    15  36    4.1871   658.8    2.634      64.427
2015    4        4    15  41    4.1853   658.7    2.635      64.403
2015    4        4    15  47    4.1835   658.6    2.635      64.378
2015    4        4    15  53    4.1817   658.4    2.636      64.354
2015    4        4    15  58    4.1799   658.3    2.636      64.329
2015    4        4    16   4    4.1781   658.1    2.636      64.304
2015    4        4    16  10    4.1763   658.0    2.637      64.280
2015    4        4    16  16    4.1745   657.8    2.637      64.255
2015    4        4    16  21    4.1727   657.7    2.637      64.231
2015    4        4    16  27    4.1709   657.5    2.637      64.206
2015    4        4    16  33    4.1692   657.4    2.638      64.181
2015    4        4    16  38    4.1674   657.3    2.638      64.155
2015    4        4    16  44    4.1656   657.1    2.638      64.130
2015    4        4    16  50    4.1638   657.0    2.638      64.103
2015    4        4    16  56    4.1620   656.8    2.638      64.077
2015    4        4    17   1    4.1602   656.7    2.638      64.049
2015    4        4    17   7    4.1584   656.5    2.638      64.021
2015    4        4    17  13    4.1566   656.4    2.638      63.991
2015    4        4    17  18    4.1548   656.2    2.638      63.961
2015    4        4    17  24    4.1530   656.1    2.638      63.930
2015    4        4    17  30    4.1512   655.9    2.638      63.898
2015    4        4    17  36    4.1493   655.8    2.638      63.866
2015    4        4    17  41    4.1475   655.6    2.637      63.832
2015    4        4    17  47    4.1457   655.5    2.637      63.797
2015    4        4    17  53    4.1439   655.3    2.637      63.762
2015    4        4    17  58    4.1420   655.1    2.637      63.726
2015    4        4    18   4    4.1402   655.0    2.636      63.689
2015    4        4    18  10    4.1384   654.8    2.636      63.651
2015    4        4    18  16    4.1365   654.7    2.635      63.613
2015    4        4    18  21    4.1347   654.5    2.635      63.574
2015    4        4    18  27    4.1328   654.4    2.635      63.535
2015    4        4    18  33    4.1310   654.2    2.634      63.495
2015    4        4    18  39    4.1292   654.0    2.634      63.454
2015    4        4    18  44    4.1273   653.9    2.633      63.414
2015    4        4    18  50    4.1255   653.7    2.633      63.373
2015    4        4    18  56    4.1236   653.6    2.632      63.332
2015    4        4    19   1    4.1218   653.4    2.632      63.291
2015    4        4    19   7    4.1199   653.2    2.631      63.249
2015    4        4    19  13    4.1181   653.1    2.631      63.208
2015    4        4    19  19    4.1162   652.9    2.631      63.167
2015    4        4    19  24    4.1144   652.7    2.630      63.126
2015    4        4    19  30    4.1125   652.6    2.630      63.085
2015    4        4    19  36    4.1107   652.4    2.629      63.044
2015    4        4    19  41    4.1088   652.2    2.629      63.003
2015    4        4    19  47    4.1070   652.1    2.629      62.963
2015    4        4    19  53    4.1051   651.9    2.628      62.922
2015    4        4    19  59    4.1033   651.7    2.628      62.882
2015    4        4    20   4    4.1014   651.5    2.627      62.842
2015    4        4    20  10    4.0995   651.4    2.627      62.802
2015    4        4    20  16    4.0976   651.2    2.627      62.762
2015    4        4    20  21    4.0957   651.0    2.626      62.722
2015    4        4    20  27    4.0938   650.8    2.626      62.682
2015    4        4    20  33    4.0919   650.7    2.626      62.642
2015    4        4    20  39    4.0900   650.5    2.625      62.601
2015    4        4    20  44    4.0881   650.3    2.625      62.561
2015    4        4    20  50    4.0861   650.1    2.624      62.520
2015    4        4    20  56    4.0842   649.9    2.624      62.480
2015    4        4    21   2    4.0822   649.8    2.624      62.439
2015    4        4    21   7    4.0803   649.6    2.623      62.398
2015    4        4    21  13    4.0783   649.4    2.623      62.357
2015    4        4    21  19    4.0763   649.2    2.622      62.317
2015    4        4    21  24    4.0744   649.0    2.622      62.276
2015    4        4    21  30    4.0724   648.8    2.622      62.235
2015    4        4    21  36    4.0704   648.6    2.621      62.194
2015    4        4    21  42    4.0684   648.4    2.621      62.154
2015    4        4    21  47    4.0664   648.2    2.621      62.114
2015    4        4    21  53    4.0644   648.1    2.621      62.074
2015    4        4    21  59    4.0625   647.9    2.620      62.034
2015    4        4    22   4    4.0605   647.7    2.620      61.995
2015    4        4    22  10    4.0585   647.5    2.620      61.957
2015    4        4    22  16    4.0565   647.3    2.620      61.919
2015    4        4    22  22    4.0546   647.1    2.620      61.881
2015    4        4    22  27    4.0526   646.9    2.620      61.845
2015    4        4    22  33    4.0507   646.7    2.620      61.808
2015    4        4    22  39    4.0487   646.5    2.620      61.773
2015    4        4    22  44    4.0468   646.3    2.621      61.737
2015    4        4    22  50    4.0449   646.1    2.621      61.703
2015    4        4    22  56    4.0429   645.9    2.621      61.669
2015    4        4    23   2    4.0410   645.8    2.621      61.636
2015    4        4    23   7    4.0391   645.6    2.622      61.603
2015    4        4    23  13    4.0371   645.4    2.622      61.571
2015    4        4    23  19    4.0352   645.2    2.623      61.539
2015    4        4    23  24    4.0333   645.0    2.623      61.507
2015    4        4    23  30    4.0313   644.8    2.624      61.476
2015    4        4    23  36    4.0294   644.6    2.624      61.446
2015    4        4    23  42    4.0275   644.4    2.625      61.416
2015    4        4    23  47    4.0256   644.2    2.626      61.386
2015    4        4    23  53    4.0236   644.0    2.626      61.356
2015    4        4    23  59    4.0217   643.8    2.627      61.326
2015    4        5     0   5    4.0198   643.6    2.627      61.297
2015    4        5     0  10    4.0179   643.4    2.628      61.267
2015    4        5     0  16    4.0159   643.2    2.629      61.238
2015    4        5     0  22    4.0140   643.1    2.630      61.208
2015    4        5     0  27    4.0121   642.9    2.630      61.179
2015    4        5     0  33    4.0102   642.7    2.631      61.150
2015    4        5     0  39    4.0083   642.5    2.632      61.121
2015    4        5     0  45    4.0064   642.3    2.632      61.092
2015    4        5     0  50    4.0045   642.1    2.633      61.063
2015    4        5     0  56    4.0027   641.9    2.634      61.034
2015    4        5     1   2    4.0008   641.7    2.635      61.006
2015    4        5     1   7    3.9990   641.6    2.635      60.977
2015    4        5     1  13    3.9971   641.4    2.636      60.948
2015    4        5     1  19    3.9953   641.2    2.636      60.919
2015    4        5     1  25    3.9934   641.0    2.637      60.889
2015    4        5     1  30    3.9916   640.8    2.637      60.859
2015    4        5     1  36    3.9897   640.6    2.638      60.827
2015    4        5     1  42    3.9879   640.5    2.638      60.794
2015    4        5     1  47    3.9860   640.3    2.638      60.760
2015    4        5     1  53    3.9842   640.1    2.639      60.726
2015    4        5     1  59    3.9824   639.9    2.639      60.691
2015    4        5     2   5    3.9805   639.7    2.639      60.655
2015    4        5     2  10    3.9787   639.6    2.639      60.619
2015    4        5     2  16    3.9769   639.4    2.639      60.582
2015    4        5     2  22    3.9750   639.2    2.639      60.545
2015    4        5     2  27    3.9732   639.0    2.639      60.507
2015    4        5     2  33    3.9714   638.8    2.640      60.470
2015    4        5     2  39    3.9696   638.6    2.640      60.431
2015    4        5     2  45    3.9678   638.5    2.640      60.393
2015    4        5     2  50    3.9660   638.3    2.640      60.354
2015    4        5     2  56    3.9643   638.1    2.640      60.315
2015    4        5     3   2    3.9625   637.9    2.640      60.276
2015    4        5     3   7    3.9607   637.7    2.640      60.236
2015    4        5     3  13    3.9589   637.5    2.640      60.196
2015    4        5     3  19    3.9572   637.3    2.640      60.155
2015    4        5     3  25    3.9554   637.1    2.640      60.114
2015    4        5     3  30    3.9537   637.0    2.640      60.073
2015    4        5     3  36    3.9519   636.8    2.640      60.031
2015    4        5     3  42    3.9501   636.6    2.640      59.988
2015    4        5     3  48    3.9483   636.4    2.639      59.945
2015    4        5     3  53    3.9466   636.2    2.639      59.902
2015    4        5     3  59    3.9448   636.0    2.639      59.857
2015    4        5     4   5    3.9430   635.8    2.639      59.812
2015    4        5     4  10    3.9412   635.6    2.639      59.766
2015    4        5     4  16    3.9394   635.4    2.638      59.720
2015    4        5     4  22    3.9376   635.2    2.638      59.672
2015    4        5     4  28    3.9358   635.0    2.638      59.624
2015    4        5     4  33    3.9340   634.8    2.637      59.576
2015    4        5     4  39    3.9321   634.6    2.637      59.527
2015    4        5     4  45    3.9303   634.4    2.637      59.477
2015    4        5     4  50    3.9285   634.2    2.636      59.427
2015    4        5     4  56    3.9267   634.0    2.636      59.376
2015    4        5     5   2    3.9248   633.7    2.635      59.325
2015    4        5     5   8    3.9230   633.5    2.635      59.274
2015    4        5     5  13    3.9212   633.3    2.634      59.222
2015    4        5     5  19    3.9193   633.1    2.634      59.170
2015    4        5     5  25    3.9175   632.9    2.633      59.118
2015    4        5     5  30    3.9157   632.7    2.633      59.065
2015    4        5     5  36    3.9138   632.4    2.633      59.013
2015    4        5     5  42    3.9120   632.2    2.632      58.960
2015    4        5     5  48    3.9102   632.0    2.632      58.907
2015    4        5     5  53    3.9083   631.8    2.631      58.854
2015    4        5     5  59    3.9065   631.6    2.631      58.801
2015    4        5     6   5    3.9046   631.3    2.630      58.747
2015    4        5     6  11    3.9028   631.1    2.630      58.694
2015    4        5     6  16    3.9009   630.9    2.629      58.641
2015    4        5     6  22    3.8991   630.6    2.629      58.587
2015    4        5     6  28    3.8972   630.4    2.628      58.534
2015    4        5     6  33    3.8953   630.2    2.628      58.480
2015    4        5     6  39    3.8935   630.0    2.628      58.427
2015    4        5     6  45    3.8916   629.7    2.627      58.374
2015    4        5     6  51    3.8897   629.5    2.627      58.321
2015    4        5     6  56    3.8878   629.2    2.627      58.268
2015    4        5     7   2    3.8859   629.0    2.627      58.215
2015    4        5     7   8    3.8840   628.8    2.627      58.163
2015    4        5     7  13    3.8822   628.5    2.627      58.111
2015    4        5     7  19    3.8803   628.3    2.627      58.060
2015    4        5     7  25    3.8784   628.1    2.627      58.009
2015    4        5     7  31    3.8765   627.8    2.627      57.960
2015    4        5     7  36    3.8747   627.6    2.627      57.910
2015    4        5     7  42    3.8728   627.3    2.627      57.863
2015    4        5     7  48    3.8710   627.1    2.628      57.816
2015    4        5     7  53    3.8692   626.8    2.628      57.770
2015    4        5     7  59    3.8674   626.6    2.629      57.726
2015    4        5     8   5    3.8656   626.3    2.629      57.683
2015    4        5     8  11    3.8638   626.1    2.630      57.641
2015    4        5     8  16    3.8621   625.9    2.631      57.600
2015    4        5     8  22    3.8603   625.6    2.632      57.560
2015    4        5     8  28    3.8585   625.4    2.632      57.522
2015    4        5     8  33    3.8568   625.2    2.633      57.484
2015    4        5     8  39    3.8550   624.9    2.634      57.446
2015    4        5     8  45    3.8532   624.7    2.635      57.408
2015    4        5     8  51    3.8514   624.4    2.636      57.370
2015    4        5     8  56    3.8496   624.2    2.637      57.332
2015    4        5     9   2    3.8478   624.0    2.638      57.294
2015    4        5     9   8    3.8460   623.7    2.639      57.255
2015    4        5     9  13    3.8442   623.5    2.640      57.217
2015    4        5     9  19    3.8424   623.2    2.641      57.178
2015    4        5     9  25    3.8405   623.0    2.643      57.140
2015    4        5     9  31    3.8387   622.8    2.644      57.101
2015    4        5     9  36    3.8369   622.5    2.645      57.063
2015    4        5     9  42    3.8351   622.3    2.646      57.025
2015    4        5     9  48    3.8333   622.0    2.648      56.988
2015    4        5     9  53    3.8315   621.8    2.649      56.951
2015    4        5     9  59    3.8297   621.5    2.651      56.914
2015    4        5    10   5    3.8280   621.3    2.652      56.878
2015    4        5    10  11    3.8262   621.1    2.654      56.843
2015    4        5    10  16    3.8245   620.8    2.655      56.809
2015    4        5    10  22    3.8228   620.6    2.657      56.774
2015    4        5    10  28    3.8211   620.3    2.658      56.741
2015    4        5    10  34    3.8195   620.1    2.660      56.709
2015    4        5    10  39    3.8178   619.8    2.662      56.677
2015    4        5    10  45    3.8162   619.6    2.663      56.645
2015    4        5    10  51    3.8146   619.4    2.665      56.613
2015    4        5    10  56    3.8129   619.2    2.666      56.581
2015    4        5    11   2    3.8112   618.9    2.668      56.547
2015    4        5    11   8    3.8096   618.7    2.669      56.511
2015    4        5    11  14    3.8079   618.5    2.670      56.475
2015    4        5    11  19    3.8062   618.3    2.671      56.438
2015    4        5    11  25    3.8045   618.1    2.672      56.400
2015    4        5    11  31    3.8028   617.8    2.673      56.361
2015    4        5    11  36    3.8011   617.6    2.674      56.322
2015    4        5    11  42    3.7994   617.4    2.675      56.283
2015    4        5    11  48    3.7977   617.2    2.676      56.243
2015    4        5    11  54    3.7960   617.0    2.676      56.202
2015    4        5    11  59    3.7942   616.7    2.677      56.161
2015    4        5    12   5    3.7925   616.5    2.678      56.120
2015    4        5    12  11    3.7908   616.3    2.678      56.079
2015    4        5    12  16    3.7891   616.1    2.679      56.038
2015    4        5    12  22    3.7873   615.9    2.680      55.996
2015    4        5    12  28    3.7856   615.6    2.680      55.954
2015    4        5    12  34    3.7838   615.4    2.681      55.911
2015    4        5    12  39    3.7820   615.2    2.681      55.869
2015    4        5    12  45    3.7803   615.0    2.682      55.825
2015    4        5    12  51    3.7785   614.8    2.682      55.781
2015    4        5    12  57    3.7767   614.5    2.683      55.737
2015    4        5    13   2    3.7749   614.3    2.683      55.692
2015    4        5    13   8    3.7731   614.1    2.684      55.647
2015    4        5    13  14    3.7713   613.9    2.684      55.601
2015    4        5    13  19    3.7694   613.6    2.684      55.555
2015    4        5    13  25    3.7676   613.4    2.684      55.508
2015    4        5    13  31    3.7658   613.2    2.684      55.460
2015    4        5    13  37    3.7640   612.9    2.685      55.412
2015    4        5    13  42    3.7621   612.7    2.685      55.363
2015    4        5    13  48    3.7603   612.5    2.685      55.313
2015    4        5    13  54    3.7585   612.2    2.685      55.263
2015    4        5    13  59    3.7566   612.0    2.685      55.212
2015    4        5    14   5    3.7548   611.8    2.685      55.161
2015    4        5    14  11    3.7529   611.5    2.685      55.109
2015    4        5    14  17    3.7510   611.3    2.685      55.056
2015    4        5    14  22    3.7492   611.1    2.685      55.002
2015    4        5    14  28    3.7473   610.8    2.684      54.948
2015    4        5    14  34    3.7454   610.6    2.684      54.894
2015    4        5    14  39    3.7435   610.3    2.684      54.838
2015    4        5    14  45    3.7416   610.1    2.684      54.782
2015    4        5    14  51    3.7397   609.8    2.684      54.726
2015    4        5    14  57    3.7377   609.6    2.683      54.668
2015    4        5    15   2    3.7358   609.4    2.683      54.610
2015    4        5    15   8    3.7338   609.1    2.683      54.551
2015    4        5    15  14    3.7319   608.9    2.682      54.492
2015    4        5    15  19    3.7299   608.6    2.682      54.432
2015    4        5    15  25    3.7280   608.3    2.681      54.372
2015    4        5    15  31    3.7260   608.1    2.681      54.311
2015    4        5    15  37    3.7240   607.8    2.681      54.250
2015    4        5    15  42    3.7220   607.6    2.680      54.189
2015    4        5    15  48    3.7200   607.3    2.680      54.128
2015    4        5    15  54    3.7180   607.0    2.680      54.066
2015    4        5    15  59    3.7160   606.8    2.679      54.005
2015    4        5    16   5    3.7140   606.5    2.679      53.944
2015    4        5    16  11    3.7120   606.2    2.679      53.883
2015    4        5    16  17    3.7100   605.9    2.679      53.822
2015    4        5    16  22    3.7081   605.7    2.679      53.762
2015    4        5    16  28    3.7061   605.4    2.679      53.703
2015    4        5    16  34    3.7041   605.1    2.679      53.645
2015    4        5    16  39    3.7022   604.8    2.679      53.587
2015    4        5    16  45    3.7002   604.5    2.679      53.531
2015    4        5    16  51    3.6983   604.2    2.680      53.476
2015    4        5    16  57    3.6964   604.0    2.680      53.422
2015    4        5    17   2    3.6945   603.7    2.681      53.369
2015    4        5    17   8    3.6927   603.4    2.682      53.318
2015    4        5    17  14    3.6909   603.1    2.683      53.268
2015    4        5    17  19    3.6891   602.8    2.684      53.220
2015    4        5    17  25    3.6873   602.5    2.685      53.173
2015    4        5    17  31    3.6855   602.2    2.686      53.128
2015    4        5    17  37    3.6838   602.0    2.687      53.084
2015    4        5    17  42    3.6821   601.7    2.689      53.042
2015    4        5    17  48    3.6804   601.4    2.691      53.002
2015    4        5    17  54    3.6787   601.1    2.692      52.962
2015    4        5    18   0    3.6770   600.8    2.694      52.925
2015    4        5    18   5    3.6754   600.6    2.696      52.888
2015    4        5    18  11    3.6737   600.3    2.698      52.853
2015    4        5    18  17    3.6721   600.0    2.700      52.819
2015    4        5    18  22    3.6705   599.7    2.702      52.787
2015    4        5    18  28    3.6689   599.4    2.704      52.755
2015    4        5    18  34    3.6672   599.2    2.706      52.723
2015    4        5    18  40    3.6656   598.9    2.708      52.691
2015    4        5    18  45    3.6640   598.6    2.710      52.658
2015    4        5    18  51    3.6624   598.4    2.712      52.626
2015    4        5    18  57    3.6608   598.1    2.714      52.594
2015    4        5    19   2    3.6592   597.8    2.716      52.562
2015    4        5    19   8    3.6576   597.6    2.718      52.530
2015    4        5    19  14    3.6560   597.3    2.720      52.497
2015    4        5    19  20    3.6544   597.0    2.722      52.464
2015    4        5    19  25    3.6528   596.8    2.724      52.431
2015    4        5    19  31    3.6512   596.5    2.726      52.397
2015    4        5    19  37    3.6497   596.2    2.728      52.363
2015    4        5    19  42    3.6481   596.0    2.730      52.329
2015    4        5    19  48    3.6465   595.7    2.732      52.294
2015    4        5    19  54    3.6449   595.5    2.734      52.259
2015    4        5    20   0    3.6433   595.2    2.736      52.223
2015    4        5    20   5    3.6417   594.9    2.738      52.187
2015    4        5    20  11    3.6401   594.7    2.739      52.151
2015    4        5    20  17    3.6385   594.4    2.741      52.114
2015    4        5    20  23    3.6369   594.2    2.743      52.078
2015    4        5    20  28    3.6353   593.9    2.744      52.041
2015    4        5    20  34    3.6337   593.6    2.746      52.005
2015    4        5    20  40    3.6321   593.4    2.747      51.968
2015    4        5    20  45    3.6305   593.1    2.749      51.931
2015    4        5    20  51    3.6288   592.9    2.750      51.893
2015    4        5    20  57    3.6272   592.6    2.752      51.855
2015    4        5    21   3    3.6256   592.4    2.753      51.816
2015    4        5    21   8    3.6239   592.1    2.754      51.776
2015    4        5    21  14    3.6222   591.8    2.755      51.736
2015    4        5    21  20    3.6206   591.6    2.756      51.695
2015    4        5    21  25    3.6189   591.3    2.757      51.653
2015    4        5    21  31    3.6172   591.1    2.758      51.610
2015    4        5    21  37    3.6155   590.8    2.759      51.567
2015    4        5    21  43    3.6138   590.6    2.760      51.522
2015    4        5    21  48    3.6121   590.3    2.761      51.477
2015    4        5    21  54    3.6104   590.1    2.762      51.430
2015    4        5    22   0    3.6087   589.8    2.762      51.383
2015    4        5    22   5    3.6070   589.6    2.763      51.335
2015    4        5    22  11    3.6053   589.3    2.763      51.286
2015    4        5    22  17    3.6035   589.0    2.764      51.236
2015    4        5    22  23    3.6018   588.8    2.764      51.186
2015    4        5    22  28    3.6001   588.5    2.765      51.134
2015    4        5    22  34    3.5983   588.3    2.765      51.082
2015    4        5    22  40    3.5966   588.0    2.765      51.029
2015    4        5    22  45    3.5948   587.7    2.766      50.975
2015    4        5    22  51    3.5930   587.5    2.766      50.921
2015    4        5    22  57    3.5913   587.2    2.766      50.866
2015    4        5    23   3    3.5895   586.9    2.766      50.810
2015    4        5    23   8    3.5877   586.6    2.766      50.753
2015    4        5    23  14    3.5860   586.4    2.766      50.696
2015    4        5    23  20    3.5842   586.1    2.766      50.638
2015    4        5    23  25    3.5824   585.8    2.766      50.579
2015    4        5    23  31    3.5806   585.5    2.766      50.520
2015    4        5    23  37    3.5788   585.3    2.766      50.460
2015    4        5    23  43    3.5770   585.0    2.766      50.400
2015    4        5    23  48    3.5752   584.7    2.766      50.340
2015    4        5    23  54    3.5734   584.4    2.766      50.279
2015    4        6     0   0    3.5716   584.1    2.766      50.219
2015    4        6     0   5    3.5698   583.8    2.766      50.158
2015    4        6     0  11    3.5681   583.5    2.766      50.097
2015    4        6     0  17    3.5663   583.2    2.766      50.036
2015    4        6     0  23    3.5645   583.0    2.766      49.976
2015    4        6     0  28    3.5628   582.7    2.766      49.915
2015    4        6     0  34    3.5610   582.4    2.766      49.856
2015    4        6     0  40    3.5592   582.1    2.766      49.796
2015    4        6     0  45    3.5575   581.8    2.766      49.737
2015    4        6     0  51    3.5558   581.5    2.767      49.678
2015    4        6     0  57    3.5541   581.2    2.767      49.620
2015    4        6     1   3    3.5523   580.9    2.768      49.563
2015    4        6     1   8    3.5506   580.6    2.768      49.506
2015    4        6     1  14    3.5489   580.3    2.769      49.449
2015    4        6     1  20    3.5472   580.0    2.769      49.393
2015    4        6     1  26    3.5455   579.7    2.770      49.337
2015    4        6     1  31    3.5438   579.3    2.771      49.281
2015    4        6     1  37    3.5421   579.0    2.772      49.226
2015    4        6     1  43    3.5405   578.7    2.773      49.171
2015    4        6     1  48    3.5388   578.4    2.774      49.117
2015    4        6     1  54    3.5371   578.1    2.775      49.063
2015    4        6     2   0    3.5354   577.8    2.776      49.010
2015    4        6     2   6    3.5338   577.5    2.777      48.958
2015    4        6     2  11    3.5321   577.1    2.778      48.906
2015    4        6     2  17    3.5305   576.8    2.780      48.855
2015    4        6     2  23    3.5289   576.5    2.781      48.804
2015    4        6     2  28    3.5274   576.2    2.783      48.755
2015    4        6     2  34    3.5258   575.9    2.785      48.707
2015    4        6     2  40    3.5243   575.5    2.787      48.659
2015    4        6     2  46    3.5228   575.2    2.789      48.613
2015    4        6     2  51    3.5214   574.9    2.791      48.567
2015    4        6     2  57    3.5199   574.6    2.793      48.523
2015    4        6     3   3    3.5186   574.3    2.795      48.480
2015    4        6     3   8    3.5172   574.0    2.798      48.438
2015    4        6     3  14    3.5159   573.6    2.800      48.397
2015    4        6     3  20    3.5146   573.3    2.803      48.356
2015    4        6     3  26    3.5134   573.0    2.805      48.317
2015    4        6     3  31    3.5121   572.7    2.808      48.278
2015    4        6     3  37    3.5109   572.4    2.811      48.241
2015    4        6     3  43    3.5098   572.1    2.814      48.203
2015    4        6     3  48    3.5086   571.8    2.816      48.167
2015    4        6     3  54    3.5074   571.5    2.819      48.131
2015    4        6     4   0    3.5062   571.2    2.822      48.096
2015    4        6     4   6    3.5051   570.9    2.825      48.060
2015    4        6     4  11    3.5039   570.6    2.828      48.025
2015    4        6     4  17    3.5027   570.3    2.830      47.989
2015    4        6     4  23    3.5014   570.0    2.833      47.953
2015    4        6     4  29    3.5002   569.7    2.836      47.916
2015    4        6     4  34    3.4989   569.4    2.838      47.880
2015    4        6     4  40    3.4977   569.1    2.841      47.842
2015    4        6     4  46    3.4964   568.8    2.843      47.805
2015    4        6     4  51    3.4951   568.5    2.846      47.766
2015    4        6     4  57    3.4938   568.2    2.848      47.728
2015    4        6     5   3    3.4926   567.9    2.850      47.689
2015    4        6     5   9    3.4913   567.6    2.853      47.649
2015    4        6     5  14    3.4900   567.3    2.855      47.609
2015    4        6     5  20    3.4887   567.0    2.857      47.569
2015    4        6     5  26    3.4874   566.7    2.859      47.528
2015    4        6     5  31    3.4861   566.4    2.861      47.488
2015    4        6     5  37    3.4848   566.1    2.863      47.446
2015    4        6     5  43    3.4835   565.8    2.865      47.405
2015    4        6     5  49    3.4822   565.5    2.867      47.364
2015    4        6     5  54    3.4808   565.2    2.869      47.322
2015    4        6     6   0    3.4795   564.9    2.870      47.280
2015    4        6     6   6    3.4782   564.7    2.872      47.238
2015    4        6     6  11    3.4769   564.4    2.874      47.195
2015    4        6     6  17    3.4756   564.1    2.875      47.152
2015    4        6     6  23    3.4743   563.8    2.877      47.109
2015    4        6     6  29    3.4729   563.5    2.878      47.065
2015    4        6     6  34    3.4716   563.2    2.880      47.021
2015    4        6     6  40    3.4703   562.9    2.881      46.977
2015    4        6     6  46    3.4689   562.6    2.883      46.932
2015    4        6     6  51    3.4676   562.3    2.884      46.887
2015    4        6     6  57    3.4663   562.0    2.885      46.841
2015    4        6     7   3    3.4649   561.7    2.886      46.795
2015    4        6     7   9    3.4636   561.4    2.888      46.748
2015    4        6     7  14    3.4622   561.1    2.889      46.700
2015    4        6     7  20    3.4609   560.8    2.890      46.652
2015    4        6     7  26    3.4595   560.5    2.891      46.603
2015    4        6     7  31    3.4582   560.2    2.892      46.554
2015    4        6     7  37    3.4568   559.9    2.893      46.504
2015    4        6     7  43    3.4555   559.6    2.894      46.453
2015    4        6     7  49    3.4541   559.3    2.895      46.402
2015    4        6     7  54    3.4528   559.0    2.895      46.351
2015    4        6     8   0    3.4514   558.6    2.896      46.298
2015    4        6     8   6    3.4501   558.3    2.897      46.245
2015    4        6     8  11    3.4487   558.0    2.898      46.192
2015    4        6     8  17    3.4474   557.7    2.899      46.137
2015    4        6     8  23    3.4460   557.4    2.899      46.082
2015    4        6     8  29    3.4446   557.1    2.900      46.027
2015    4        6     8  34    3.4433   556.8    2.901      45.970
2015    4        6     8  40    3.4419   556.5    2.901      45.914
2015    4        6     8  46    3.4406   556.1    2.902      45.856
2015    4        6     8  52    3.4392   555.8    2.903      45.798
2015    4        6     8  57    3.4379   555.5    2.903      45.740
2015    4        6     9   3    3.4365   555.2    2.904      45.681
2015    4        6     9   9    3.4352   554.8    2.905      45.623
2015    4        6     9  14    3.4339   554.5    2.906      45.564
2015    4        6     9  20    3.4326   554.2    2.907      45.505
2015    4        6     9  26    3.4313   553.8    2.907      45.446
2015    4        6     9  32    3.4301   553.5    2.908      45.387
2015    4        6     9  37    3.4288   553.1    2.909      45.329
2015    4        6     9  43    3.4276   552.8    2.911      45.271
2015    4        6     9  49    3.4265   552.5    2.912      45.213
2015    4        6     9  54    3.4253   552.1    2.913      45.156
2015    4        6    10   0    3.4242   551.8    2.915      45.099
2015    4        6    10   6    3.4231   551.5    2.916      45.043
2015    4        6    10  12    3.4220   551.1    2.918      44.988
2015    4        6    10  17    3.4210   550.8    2.920      44.933
2015    4        6    10  23    3.4200   550.4    2.922      44.879
2015    4        6    10  29    3.4190   550.1    2.924      44.826
2015    4        6    10  34    3.4181   549.8    2.926      44.773
2015    4        6    10  40    3.4172   549.4    2.929      44.722
2015    4        6    10  46    3.4163   549.1    2.931      44.671
2015    4        6    10  52    3.4155   548.7    2.934      44.620
2015    4        6    10  57    3.4146   548.4    2.936      44.571
2015    4        6    11   3    3.4138   548.1    2.939      44.522
2015    4        6    11   9    3.4130   547.7    2.942      44.473
2015    4        6    11  14    3.4123   547.4    2.945      44.425
2015    4        6    11  20    3.4115   547.1    2.948      44.378
2015    4        6    11  26    3.4108   546.7    2.951      44.331
2015    4        6    11  32    3.4100   546.4    2.955      44.284
2015    4        6    11  37    3.4093   546.1    2.958      44.238
2015    4        6    11  43    3.4085   545.7    2.961      44.192
2015    4        6    11  49    3.4078   545.4    2.965      44.147
2015    4        6    11  54    3.4071   545.0    2.968      44.101
2015    4        6    12   0    3.4064   544.7    2.971      44.056
2015    4        6    12   6    3.4057   544.4    2.975      44.012
2015    4        6    12  12    3.4050   544.0    2.978      43.967
2015    4        6    12  17    3.4043   543.7    2.982      43.923
2015    4        6    12  23    3.4036   543.3    2.985      43.879
2015    4        6    12  29    3.4029   543.0    2.988      43.836
2015    4        6    12  34    3.4023   542.7    2.992      43.793
2015    4        6    12  40    3.4016   542.3    2.995      43.750
2015    4        6    12  46    3.4010   542.0    2.999      43.707
2015    4        6    12  52    3.4004   541.6    3.002      43.665
2015    4        6    12  57    3.3997   541.3    3.006      43.623
2015    4        6    13   3    3.3991   541.0    3.009      43.582
2015    4        6    13   9    3.3985   540.6    3.013      43.540
2015    4        6    13  14    3.3979   540.3    3.016      43.499
2015    4        6    13  20    3.3973   540.0    3.019      43.458
2015    4        6    13  26    3.3967   539.6    3.023      43.417
2015    4        6    13  32    3.3961   539.3    3.026      43.376
2015    4        6    13  37    3.3955   539.0    3.030      43.336
2015    4        6    13  43    3.3949   538.6    3.033      43.296
2015    4        6    13  49    3.3943   538.3    3.036      43.255
2015    4        6    13  54    3.3937   538.0    3.039      43.215
2015    4        6    14   0    3.3931   537.6    3.043      43.175
2015    4        6    14   6    3.3925   537.3    3.046      43.134
2015    4        6    14  12    3.3919   537.0    3.049      43.094
2015    4        6    14  17    3.3913   536.6    3.052      43.053
2015    4        6    14  23    3.3908   536.3    3.055      43.013
2015    4        6    14  29    3.3902   536.0    3.059      42.972
2015    4        6    14  35    3.3897   535.7    3.062      42.931
2015    4        6    14  40    3.3891   535.3    3.065      42.890
2015    4        6    14  46    3.3886   535.0    3.068      42.848
2015    4        6    14  52    3.3881   534.7    3.071      42.807
2015    4        6    14  57    3.3876   534.4    3.074      42.765
2015    4        6    15   3    3.3871   534.0    3.077      42.723
2015    4        6    15   9    3.3866   533.7    3.080      42.681
2015    4        6    15  15    3.3861   533.4    3.083      42.639
2015    4        6    15  20    3.3856   533.1    3.086      42.596
2015    4        6    15  26    3.3852   532.7    3.089      42.554
2015    4        6    15  32    3.3847   532.4    3.092      42.511
2015    4        6    15  37    3.3843   532.1    3.095      42.467
2015    4        6    15  43    3.3838   531.8    3.098      42.424
2015    4        6    15  49    3.3834   531.5    3.101      42.380
2015    4        6    15  55    3.3830   531.1    3.104      42.336
2015    4        6    16   0    3.3826   530.8    3.107      42.291
2015    4        6    16   6    3.3822   530.5    3.109      42.247
2015    4        6    16  12    3.3818   530.2    3.112      42.201
2015    4        6    16  17    3.3814   529.9    3.115      42.156
2015    4        6    16  23    3.3811   529.5    3.118      42.110
2015    4        6    16  29    3.3807   529.2    3.121      42.063
2015    4        6    16  35    3.3803   528.9    3.123      42.017
2015    4        6    16  40    3.3800   528.6    3.126      41.969
2015    4        6    16  46    3.3797   528.3    3.129      41.922
2015    4        6    16  52    3.3793   527.9    3.132      41.874
2015    4        6    16  57    3.3790   527.6    3.134      41.825
2015    4        6    17   3    3.3787   527.3    3.137      41.776
2015    4        6    17   9    3.3784   527.0    3.140      41.727
2015    4        6    17  15    3.3782   526.6    3.143      41.677
2015    4        6    17  20    3.3779   526.3    3.145      41.627
2015    4        6    17  26    3.3777   526.0    3.148      41.577
2015    4        6    17  32    3.3774   525.6    3.151      41.526
2015    4        6    17  37    3.3772   525.3    3.154      41.476
2015    4        6    17  43    3.3771   525.0    3.157      41.425
2015    4        6    17  49    3.3769   524.6    3.160      41.374
2015    4        6    17  55    3.3768   524.3    3.163      41.323
2015    4        6    18   0    3.3766   524.0    3.166      41.272
2015    4        6    18   6    3.3766   523.6    3.169      41.221
2015    4        6    18  12    3.3765   523.3    3.172      41.170
2015    4        6    18  18    3.3765   523.0    3.175      41.120
2015    4        6    18  23    3.3765   522.6    3.179      41.070
2015    4        6    18  29    3.3765   522.3    3.182      41.020
2015    4        6    18  35    3.3765   522.0    3.186      40.970
2015    4        6    18  40    3.3766   521.6    3.189      40.920
2015    4        6    18  46    3.3767   521.3    3.193      40.871
2015    4        6    18  52    3.3768   520.9    3.196      40.823
2015    4        6    18  58    3.3770   520.6    3.200      40.774
2015    4        6    19   3    3.3772   520.3    3.204      40.726
2015    4        6    19   9    3.3774   519.9    3.208      40.679
2015    4        6    19  15    3.3776   519.6    3.211      40.631
2015    4        6    19  20    3.3779   519.3    3.215      40.584
2015    4        6    19  26    3.3781   518.9    3.219      40.538
2015    4        6    19  32    3.3784   518.6    3.223      40.491
2015    4        6    19  38    3.3787   518.3    3.228      40.445
2015    4        6    19  43    3.3791   517.9    3.232      40.400
2015    4        6    19  49    3.3794   517.6    3.236      40.354
2015    4        6    19  55    3.3798   517.3    3.240      40.309
2015    4        6    20   0    3.3802   516.9    3.244      40.264
2015    4        6    20   6    3.3806   516.6    3.248      40.219
2015    4        6    20  12    3.3810   516.3    3.253      40.174
2015    4        6    20  18    3.3815   515.9    3.257      40.130
2015    4        6    20  23    3.3819   515.6    3.261      40.086
2015    4        6    20  29    3.3824   515.3    3.266      40.042
2015    4        6    20  35    3.3829   514.9    3.270      39.998
2015    4        6    20  40    3.3834   514.6    3.274      39.954
2015    4        6    20  46    3.3839   514.3    3.279      39.911
2015    4        6    20  52    3.3845   513.9    3.283      39.868
2015    4        6    20  58    3.3850   513.6    3.288      39.825
2015    4        6    21   3    3.3856   513.3    3.292      39.783
2015    4        6    21   9    3.3862   512.9    3.297      39.740
2015    4        6    21  15    3.3869   512.6    3.302      39.698
2015    4        6    21  20    3.3875   512.3    3.306      39.657
2015    4        6    21  26    3.3882   512.0    3.311      39.615
2015    4        6    21  32    3.3889   511.6    3.316      39.574
2015    4        6    21  38    3.3897   511.3    3.321      39.533
2015    4        6    21  43    3.3904   511.0    3.325      39.493
2015    4        6    21  49    3.3912   510.7    3.330      39.453
2015    4        6    21  55    3.3920   510.3    3.335      39.413
2015    4        6    22   0    3.3928   510.0    3.340      39.373
2015    4        6    22   6    3.3936   509.7    3.345      39.333
2015    4        6    22  12    3.3945   509.4    3.350      39.294
2015    4        6    22  18    3.3954   509.1    3.355      39.255
2015    4        6    22  23    3.3963   508.7    3.360      39.216
2015    4        6    22  29    3.3973   508.4    3.365      39.177
2015    4        6    22  35    3.3982   508.1    3.371      39.138
2015    4        6    22  40    3.3992   507.8    3.376      39.100
2015    4        6    22  46    3.4002   507.5    3.381      39.062
2015    4        6    22  52    3.4012   507.2    3.386      39.023
2015    4        6    22  58    3.4022   506.8    3.391      38.985
2015    4        6    23   3    3.4032   506.5    3.397      38.947
2015    4        6    23   9    3.4043   506.2    3.402      38.908
2015    4        6    23  15    3.4054   505.9    3.407      38.870
2015    4        6    23  20    3.4065   505.6    3.412      38.832
2015    4        6    23  26    3.4076   505.3    3.418      38.794
2015    4        6    23  32    3.4087   505.0    3.423      38.756
2015    4        6    23  38    3.4098   504.7    3.428      38.717
2015    4        6    23  43    3.4110   504.4    3.433      38.679
2015    4        6    23  49    3.4121   504.1    3.439      38.641
2015    4        6    23  55    3.4133   503.8    3.444      38.602
2015    4        7     0   1    3.4145   503.5    3.449      38.564
2015    4        7     0   6    3.4157   503.2    3.454      38.525
2015    4        7     0  12    3.4169   502.9    3.460      38.487
2015    4        7     0  18    3.4182   502.6    3.465      38.448
2015    4        7     0  23    3.4195   502.3    3.470      38.409
2015    4        7     0  29    3.4207   501.9    3.476      38.371
2015    4        7     0  35    3.4220   501.6    3.481      38.332
2015    4        7     0  41    3.4233   501.3    3.486      38.293
2015    4        7     0  46    3.4247   501.1    3.491      38.254
2015    4        7     0  52    3.4260   500.8    3.497      38.216
2015    4        7     0  58    3.4274   500.5    3.502      38.177
2015    4        7     1   3    3.4288   500.2    3.507      38.138
2015    4        7     1   9    3.4302   499.9    3.513      38.099
2015    4        7     1  15    3.4316   499.6    3.518      38.060
2015    4        7     1  21    3.4330   499.3    3.523      38.021
2015    4        7     1  26    3.4345   499.0    3.528      37.982
2015    4        7     1  32    3.4360   498.7    3.534      37.943
2015    4        7     1  38    3.4375   498.4    3.539      37.904
2015    4        7     1  43    3.4390   498.1    3.545      37.865
2015    4        7     1  49    3.4405   497.8    3.550      37.826
2015    4        7     1  55    3.4420   497.5    3.555      37.788
2015    4        7     2   1    3.4436   497.2    3.561      37.749
2015    4        7     2   6    3.4452   496.9    3.566      37.710
2015    4        7     2  12    3.4468   496.6    3.572      37.671
2015    4        7     2  18    3.4484   496.3    3.577      37.633
2015    4        7     2  23    3.4500   496.1    3.583      37.594
2015    4        7     2  29    3.4516   495.8    3.588      37.555
2015    4        7     2  35    3.4533   495.5    3.594      37.517
2015    4        7     2  41    3.4550   495.2    3.599      37.478
2015    4        7     2  46    3.4567   494.9    3.605      37.440
2015    4        7     2  52    3.4584   494.6    3.610      37.402
2015    4        7     2  58    3.4601   494.3    3.616      37.364
2015    4        7     3   3    3.4618   494.0    3.622      37.326
2015    4        7     3   9    3.4636   493.7    3.627      37.288
2015    4        7     3  15    3.4654   493.5    3.633      37.251
2015    4        7     3  21    3.4672   493.2    3.639      37.213
2015    4        7     3  26    3.4690   492.9    3.645      37.176
2015    4        7     3  32    3.4709   492.6    3.650      37.139
2015    4        7     3  38    3.4727   492.3    3.656      37.102
2015    4        7     3  43    3.4746   492.0    3.662      37.065
2015    4        7     3  49    3.4765   491.8    3.668      37.029
2015    4        7     3  55    3.4785   491.5    3.674      36.993
2015    4        7     4   1    3.4804   491.2    3.680      36.957
2015    4        7     4   6    3.4824   490.9    3.686      36.921
2015    4        7     4  12    3.4844   490.6    3.692      36.886
2015    4        7     4  18    3.4865   490.3    3.698      36.851
2015    4        7     4  23    3.4885   490.1    3.704      36.816
2015    4        7     4  29    3.4906   489.8    3.710      36.782
2015    4        7     4  35    3.4927   489.5    3.717      36.748
2015    4        7     4  41    3.4948   489.2    3.723      36.714
2015    4        7     4  46    3.4970   489.0    3.729      36.681
2015    4        7     4  52    3.4992   488.7    3.736      36.647
2015    4        7     4  58    3.5014   488.4    3.742      36.615
2015    4        7     5   3    3.5037   488.1    3.749      36.582
2015    4        7     5   9    3.5059   487.9    3.755      36.551
2015    4        7     5  15    3.5082   487.6    3.762      36.519
2015    4        7     5  21    3.5105   487.3    3.769      36.488
2015    4        7     5  26    3.5129   487.1    3.775      36.457
2015    4        7     5  32    3.5153   486.8    3.782      36.426
2015    4        7     5  38    3.5177   486.5    3.789      36.396
2015    4        7     5  43    3.5201   486.2    3.796      36.366
2015    4        7     5  49    3.5226   486.0    3.803      36.337
2015    4        7     5  55    3.5251   485.7    3.810      36.308
2015    4        7     6   1    3.5276   485.5    3.817      36.279
2015    4        7     6   6    3.5301   485.2    3.824      36.251
2015    4        7     6  12    3.5327   484.9    3.831      36.223
2015    4        7     6  18    3.5353   484.7    3.839      36.195
2015    4        7     6  24    3.5379   484.4    3.846      36.168
2015    4        7     6  29    3.5405   484.1    3.853      36.141
2015    4        7     6  35    3.5432   483.9    3.861      36.114
2015    4        7     6  41    3.5459   483.6    3.868      36.088
2015    4        7     6  46    3.5486   483.4    3.876      36.062
2015    4        7     6  52    3.5513   483.1    3.884      36.036
2015    4        7     6  58    3.5541   482.9    3.891      36.011
2015    4        7     7   4    3.5568   482.6    3.899      35.986
2015    4        7     7   9    3.5596   482.4    3.907      35.961
2015    4        7     7  15    3.5624   482.1    3.915      35.937
2015    4        7     7  21    3.5653   481.9    3.923      35.912
2015    4        7     7  26    3.5681   481.6    3.931      35.889
2015    4        7     7  32    3.5710   481.4    3.938      35.865
2015    4        7     7  38    3.5739   481.1    3.946      35.842
2015    4        7     7  44    3.5768   480.9    3.954      35.818
2015    4        7     7  49    3.5797   480.7    3.962      35.795
2015    4        7     7  55    3.5826   480.4    3.970      35.773
2015    4        7     8   1    3.5856   480.2    3.979      35.750
2015    4        7     8   6    3.5885   480.0    3.987      35.728
2015    4        7     8  12    3.5915   479.7    3.995      35.706
2015    4        7     8  18    3.5944   479.5    4.003      35.684
2015    4        7     8  24    3.5974   479.3    4.011      35.662
2015    4        7     8  29    3.6004   479.0    4.019      35.640
2015    4        7     8  35    3.6034   478.8    4.027      35.618
2015    4        7     8  41    3.6064   478.6    4.035      35.596
2015    4        7     8  46    3.6094   478.4    4.043      35.575
2015    4        7     8  52    3.6124   478.1    4.051      35.553
2015    4        7     8  58    3.6154   477.9    4.059      35.532
2015    4        7     9   4    3.6184   477.7    4.067      35.510
2015    4        7     9   9    3.6214   477.5    4.075      35.489
2015    4        7     9  15    3.6245   477.2    4.083      35.468
2015    4        7     9  21    3.6275   477.0    4.091      35.446
2015    4        7     9  26    3.6306   476.8    4.098      35.425
2015    4        7     9  32    3.6336   476.6    4.106      35.404
2015    4        7     9  38    3.6367   476.4    4.114      35.383
2015    4        7     9  44    3.6398   476.2    4.122      35.362
2015    4        7     9  49    3.6429   475.9    4.130      35.341
2015    4        7     9  55    3.6460   475.7    4.137      35.321
2015    4        7    10   1    3.6492   475.5    4.145      35.300
2015    4        7    10   6    3.6523   475.3    4.153      35.280
2015    4        7    10  12    3.6554   475.1    4.160      35.259
2015    4        7    10  18    3.6586   474.9    4.168      35.239
2015    4        7    10  24    3.6618   474.7    4.176      35.219
2015    4        7    10  29    3.6649   474.5    4.183      35.199
2015    4        7    10  35    3.6681   474.3    4.191      35.179
2015    4        7    10  41    3.6713   474.1    4.199      35.160
2015    4        7    10  46    3.6746   473.9    4.206      35.140
2015    4        7    10  52    3.6778   473.6    4.214      35.121
2015    4        7    10  58    3.6810   473.4    4.221      35.102
2015    4        7    11   4    3.6843   473.2    4.229      35.083
2015    4        7    11   9    3.6876   473.0    4.237      35.064
2015    4        7    11  15    3.6909   472.8    4.244      35.046
2015    4        7    11  21    3.6942   472.6    4.252      35.027
2015    4        7    11  26    3.6975   472.4    4.260      35.009
2015    4        7    11  32    3.7008   472.2    4.267      34.991
2015    4        7    11  38    3.7042   472.0    4.275      34.974
2015    4        7    11  44    3.7075   471.9    4.283      34.957
2015    4        7    11  49    3.7109   471.7    4.291      34.940
2015    4        7    11  55    3.7143   471.5    4.298      34.923
2015    4        7    12   1    3.7177   471.3    4.306      34.907
2015    4        7    12   6    3.7212   471.1    4.314      34.891
2015    4        7    12  12    3.7246   470.9    4.322      34.875
2015    4        7    12  18    3.7281   470.7    4.330      34.860
2015    4        7    12  24    3.7316   470.5    4.338      34.845
2015    4        7    12  29    3.7352   470.3    4.346      34.831
2015    4        7    12  35    3.7387   470.1    4.354      34.817
2015    4        7    12  41    3.7423   469.9    4.362      34.803
2015    4        7    12  47    3.7459   469.7    4.370      34.790
2015    4        7    12  52    3.7495   469.6    4.379      34.777
2015    4        7    12  58    3.7531   469.4    4.387      34.764
2015    4        7    13   4    3.7568   469.2    4.395      34.752
2015    4        7    13   9    3.7605   469.0    4.404      34.741
2015    4        7    13  15    3.7642   468.8    4.412      34.730
2015    4        7    13  21    3.7679   468.6    4.420      34.719
2015    4        7    13  27    3.7717   468.5    4.429      34.709
2015    4        7    13  32    3.7754   468.3    4.438      34.699
2015    4        7    13  38    3.7793   468.1    4.446      34.690
2015    4        7    13  44    3.7831   467.9    4.455      34.681
2015    4        7    13  49    3.7869   467.8    4.464      34.672
2015    4        7    13  55    3.7908   467.6    4.472      34.664
2015    4        7    14   1    3.7947   467.4    4.481      34.657
2015    4        7    14   7    3.7986   467.2    4.490      34.650
2015    4        7    14  12    3.8025   467.1    4.499      34.643
2015    4        7    14  18    3.8064   466.9    4.508      34.636
2015    4        7    14  24    3.8104   466.7    4.517      34.630
2015    4        7    14  29    3.8144   466.6    4.526      34.625
2015    4        7    14  35    3.8184   466.4    4.535      34.619
2015    4        7    14  41    3.8224   466.2    4.544      34.614
2015    4        7    14  47    3.8264   466.1    4.553      34.609
2015    4        7    14  52    3.8304   465.9    4.562      34.605
2015    4        7    14  58    3.8344   465.8    4.571      34.601
2015    4        7    15   4    3.8385   465.6    4.580      34.597
2015    4        7    15   9    3.8425   465.5    4.590      34.593
2015    4        7    15  15    3.8465   465.3    4.599      34.589
2015    4        7    15  21    3.8506   465.1    4.608      34.586
2015    4        7    15  27    3.8546   465.0    4.617      34.583
2015    4        7    15  32    3.8587   464.8    4.626      34.580
2015    4        7    15  38    3.8627   464.7    4.635      34.577
2015    4        7    15  44    3.8667   464.5    4.644      34.574
2015    4        7    15  49    3.8708   464.4    4.653      34.571
2015    4        7    15  55    3.8748   464.3    4.662      34.568
2015    4        7    16   1    3.8788   464.1    4.671      34.565
2015    4        7    16   7    3.8829   464.0    4.680      34.563
2015    4        7    16  12    3.8869   463.8    4.689      34.560
2015    4        7    16  18    3.8909   463.7    4.697      34.557
2015    4        7    16  24    3.8950   463.5    4.706      34.555
2015    4        7    16  29    3.8990   463.4    4.715      34.552
2015    4        7    16  35    3.9030   463.3    4.724      34.549
2015    4        7    16  41    3.9071   463.1    4.732      34.547
2015    4        7    16  47    3.9111   463.0    4.741      34.544
2015    4        7    16  52    3.9151   462.9    4.749      34.542
2015    4        7    16  58    3.9192   462.7    4.758      34.539
2015    4        7    17   4    3.9232   462.6    4.766      34.537
2015    4        7    17   9    3.9272   462.5    4.775      34.534
2015    4        7    17  15    3.9313   462.3    4.783      34.532
2015    4        7    17  21    3.9353   462.2    4.792      34.529
2015    4        7    17  27    3.9394   462.1    4.800      34.527
2015    4        7    17  32    3.9434   461.9    4.808      34.525
2015    4        7    17  38    3.9475   461.8    4.816      34.523
2015    4        7    17  44    3.9515   461.7    4.825      34.521
2015    4        7    17  49    3.9556   461.5    4.833      34.519
2015    4        7    17  55    3.9597   461.4    4.841      34.517
2015    4        7    18   1    3.9637   461.3    4.849      34.515
2015    4        7    18   7    3.9678   461.2    4.857      34.513
2015    4        7    18  12    3.9719   461.0    4.865      34.512
2015    4        7    18  18    3.9760   460.9    4.873      34.510
2015    4        7    18  24    3.9800   460.8    4.881      34.509
2015    4        7    18  29    3.9841   460.7    4.889      34.508
2015    4        7    18  35    3.9882   460.6    4.897      34.507
2015    4        7    18  41    3.9923   460.4    4.905      34.506
2015    4        7    18  47    3.9964   460.3    4.913      34.505
2015    4        7    18  52    4.0005   460.2    4.921      34.505
2015    4        7    18  58    4.0047   460.1    4.929      34.505
2015    4        7    19   4    4.0088   460.0    4.937      34.505
2015    4        7    19  10    4.0129   459.9    4.945      34.505
2015    4        7    19  15    4.0170   459.7    4.952      34.505
2015    4        7    19  21    4.0212   459.6    4.960      34.506
2015    4        7    19  27    4.0253   459.5    4.968      34.507
2015    4        7    19  32    4.0295   459.4    4.976      34.508
2015    4        7    19  38    4.0336   459.3    4.983      34.509
2015    4        7    19  44    4.0378   459.2    4.991      34.510
2015    4        7    19  50    4.0419   459.1    4.999      34.512
2015    4        7    19  55    4.0461   459.0    5.006      34.514
2015    4        7    20   1    4.0503   458.8    5.014      34.516
2015    4        7    20   7    4.0545   458.7    5.022      34.518
2015    4        7    20  12    4.0587   458.6    5.029      34.520
2015    4        7    20  18    4.0629   458.5    5.037      34.523
2015    4        7    20  24    4.0671   458.4    5.045      34.525
2015    4        7    20  30    4.0713   458.3    5.052      34.528
2015    4        7    20  35    4.0755   458.2    5.060      34.531
2015    4        7    20  41    4.0798   458.1    5.067      34.535
2015    4        7    20  47    4.0840   458.0    5.075      34.538
2015    4        7    20  52    4.0882   457.9    5.082      34.542
2015    4        7    20  58    4.0925   457.8    5.090      34.545
2015    4        7    21   4    4.0967   457.7    5.097      34.549
2015    4        7    21  10    4.1010   457.6    5.105      34.553
2015    4        7    21  15    4.1052   457.5    5.112      34.557
2015    4        7    21  21    4.1095   457.4    5.120      34.561
2015    4        7    21  27    4.1138   457.3    5.127      34.566
2015    4        7    21  32    4.1180   457.2    5.135      34.570
2015    4        7    21  38    4.1223   457.1    5.142      34.575
2015    4        7    21  44    4.1266   457.0    5.149      34.580
2015    4        7    21  50    4.1308   456.9    5.157      34.585
2015    4        7    21  55    4.1351   456.8    5.164      34.590
2015    4        7    22   1    4.1394   456.7    5.171      34.595
2015    4        7    22   7    4.1437   456.6    5.178      34.600
2015    4        7    22  12    4.1480   456.5    5.186      34.605
2015    4        7    22  18    4.1522   456.4    5.193      34.610
2015    4        7    22  24    4.1565   456.4    5.200      34.616
2015    4        7    22  30    4.1608   456.3    5.207      34.621
2015    4        7    22  35    4.1651   456.2    5.214      34.627
2015    4        7    22  41    4.1694   456.1    5.221      34.633
2015    4        7    22  47    4.1736   456.0    5.228      34.638
2015    4        7    22  52    4.1779   455.9    5.235      34.644
2015    4        7    22  58    4.1822   455.8    5.242      34.650
2015    4        7    23   4    4.1865   455.7    5.249      34.656
2015    4        7    23  10    4.1908   455.6    5.256      34.662
2015    4        7    23  15    4.1950   455.6    5.263      34.668
2015    4        7    23  21    4.1993   455.5    5.270      34.674
2015    4        7    23  27    4.2036   455.4    5.277      34.680
2015    4        7    23  33    4.2078   455.3    5.284      34.687
2015    4        7    23  38    4.2121   455.2    5.291      34.693
2015    4        7    23  44    4.2164   455.1    5.298      34.700
2015    4        7    23  50    4.2206   455.1    5.305      34.706
2015    4        7    23  55    4.2249   455.0    5.312      34.713
2015    4        8     0   1    4.2291   454.9    5.319      34.720
2015    4        8     0   7    4.2334   454.8    5.326      34.726
2015    4        8     0  13    4.2376   454.7    5.332      34.733
2015    4        8     0  18    4.2418   454.7    5.339      34.740
2015    4        8     0  24    4.2461   454.6    5.346      34.748
2015    4        8     0  30    4.2503   454.5    5.353      34.755
2015    4        8     0  35    4.2545   454.4    5.360      34.762
2015    4        8     0  41    4.2587   454.4    5.366      34.770
2015    4        8     0  47    4.2629   454.3    5.373      34.777
2015    4        8     0  53    4.2671   454.2    5.380      34.785
2015    4        8     0  58    4.2713   454.1    5.387      34.793
2015    4        8     1   4    4.2755   454.1    5.394      34.801
2015    4        8     1  10    4.2797   454.0    5.401      34.809
2015    4        8     1  15    4.2839   453.9    5.407      34.818
2015    4        8     1  21    4.2880   453.9    5.414      34.826
2015    4        8     1  27    4.2922   453.8    5.421      34.835
2015    4        8     1  33    4.2963   453.7    5.428      34.844
2015    4        8     1  38    4.3005   453.7    5.434      34.853
2015    4        8     1  44    4.3046   453.6    5.441      34.862
2015    4        8     1  50    4.3088   453.5    5.448      34.871
2015    4        8     1  55    4.3129   453.5    5.454      34.880
2015    4        8     2   1    4.3170   453.4    5.461      34.890
2015    4        8     2   7    4.3211   453.3    5.468      34.899
2015    4        8     2  13    4.3252   453.3    5.474      34.909
2015    4        8     2  18    4.3293   453.2    5.481      34.919
2015    4        8     2  24    4.3334   453.1    5.488      34.929
2015    4        8     2  30    4.3375   453.1    5.494      34.939
2015    4        8     2  35    4.3416   453.0    5.501      34.950
2015    4        8     2  41    4.3457   453.0    5.507      34.960
2015    4        8     2  47    4.3497   452.9    5.514      34.971
2015    4        8     2  53    4.3538   452.8    5.520      34.981
2015    4        8     2  58    4.3579   452.8    5.526      34.992
2015    4        8     3   4    4.3619   452.7    5.533      35.003
2015    4        8     3  10    4.3659   452.7    5.539      35.014
2015    4        8     3  15    4.3700   452.6    5.545      35.025
2015    4        8     3  21    4.3740   452.6    5.551      35.036
2015    4        8     3  27    4.3780   452.5    5.557      35.048
2015    4        8     3  33    4.3821   452.4    5.563      35.059
2015    4        8     3  38    4.3861   452.4    5.570      35.070
2015    4        8     3  44    4.3901   452.3    5.576      35.082
2015    4        8     3  50    4.3941   452.3    5.582      35.093
2015    4        8     3  55    4.3981   452.2    5.587      35.105
2015    4        8     4   1    4.4021   452.2    5.593      35.117
2015    4        8     4   7    4.4061   452.1    5.599      35.128
2015    4        8     4  13    4.4101   452.1    5.605      35.140
2015    4        8     4  18    4.4141   452.0    5.611      35.152
2015    4        8     4  24    4.4180   452.0    5.616      35.164
2015    4        8     4  30    4.4220   451.9    5.622      35.175
2015    4        8     4  35    4.4260   451.9    5.628      35.187
2015    4        8     4  41    4.4300   451.8    5.633      35.199
2015    4        8     4  47    4.4339   451.8    5.639      35.211
2015    4        8     4  53    4.4379   451.7    5.644      35.223
2015    4        8     4  58    4.4419   451.7    5.650      35.234
2015    4        8     5   4    4.4458   451.6    5.655      35.246
2015    4        8     5  10    4.4498   451.6    5.660      35.258
2015    4        8     5  16    4.4538   451.5    5.666      35.270
2015    4        8     5  21    4.4577   451.5    5.671      35.282
2015    4        8     5  27    4.4617   451.4    5.676      35.293
2015    4        8     5  33    4.4657   451.4    5.682      35.305
2015    4        8     5  38    4.4697   451.3    5.687      35.317
2015    4        8     5  44    4.4736   451.3    5.692      35.329
2015    4        8     5  50    4.4776   451.2    5.697      35.341
2015    4        8     5  56    4.4816   451.2    5.703      35.353
2015    4        8     6   1    4.4856   451.2    5.708      35.365
2015    4        8     6   7    4.4896   451.1    5.713      35.377
2015    4        8     6  13    4.4936   451.1    5.718      35.389
2015    4        8     6  18    4.4976   451.0    5.723      35.402
2015    4        8     6  24    4.5016   451.0    5.728      35.414
2015    4        8     6  30    4.5056   450.9    5.734      35.427
2015    4        8     6  36    4.5096   450.9    5.739      35.440
2015    4        8     6  41    4.5136   450.9    5.744      35.453
2015    4        8     6  47    4.5175   450.8    5.749      35.466
2015    4        8     6  53    4.5215   450.8    5.754      35.480
2015    4        8     6  58    4.5254   450.8    5.759      35.494
2015    4        8     7   4    4.5294   450.7    5.763      35.508
2015    4        8     7  10    4.5333   450.7    5.768      35.522
2015    4        8     7  16    4.5372   450.6    5.773      35.536
2015    4        8     7  21    4.5411   450.6    5.778      35.550
2015    4        8     7  27    4.5450   450.6    5.782      35.565
2015    4        8     7  33    4.5488   450.5    5.787      35.579
2015    4        8     7  38    4.5527   450.5    5.792      35.594
2015    4        8     7  44    4.5565   450.5    5.796      35.608
2015    4        8     7  50    4.5603   450.4    5.801      35.623
2015    4        8     7  56    4.5641   450.4    5.805      35.637
2015    4        8     8   1    4.5679   450.4    5.810      35.652
2015    4        8     8   7    4.5717   450.3    5.815      35.666
2015    4        8     8  13    4.5755   450.3    5.819      35.680
2015    4        8     8  18    4.5792   450.3    5.823      35.694
2015    4        8     8  24    4.5830   450.3    5.828      35.709
2015    4        8     8  30    4.5867   450.2    5.832      35.723
2015    4        8     8  36    4.5904   450.2    5.837      35.736
2015    4        8     8  41    4.5941   450.2    5.841      35.750
2015    4        8     8  47    4.5978   450.1    5.846      35.764
2015    4        8     8  53    4.6015   450.1    5.850      35.778
2015    4        8     8  58    4.6051   450.1    5.854      35.792
2015    4        8     9   4    4.6088   450.1    5.859      35.806
2015    4        8     9  10    4.6124   450.0    5.863      35.819
2015    4        8     9  16    4.6161   450.0    5.867      35.833
2015    4        8     9  21    4.6197   450.0    5.872      35.847
2015    4        8     9  27    4.6233   449.9    5.876      35.861
2015    4        8     9  33    4.6269   449.9    5.880      35.875
2015    4        8     9  38    4.6305   449.9    5.885      35.889
2015    4        8     9  44    4.6341   449.9    5.889      35.903
2015    4        8     9  50    4.6376   449.8    5.893      35.917
2015    4        8     9  56    4.6412   449.8    5.897      35.931
2015    4        8    10   1    4.6448   449.8    5.902      35.945
2015    4        8    10   7    4.6483   449.8    5.906      35.959
2015    4        8    10  13    4.6518   449.8    5.910      35.974
2015    4        8    10  18    4.6554   449.7    5.914      35.989
2015    4        8    10  24    4.6589   449.7    5.918      36.003
2015    4        8    10  30    4.6624   449.7    5.923      36.018
2015    4        8    10  36    4.6659   449.7    5.927      36.034
2015    4        8    10  41    4.6694   449.6    5.931      36.049
2015    4        8    10  47    4.6728   449.6    5.935      36.065
2015    4        8    10  53    4.6763   449.6    5.939      36.080
2015    4        8    10  58    4.6798   449.6    5.943      36.096
2015    4        8    11   4    4.6832   449.6    5.948      36.113
2015    4        8    11  10    4.6867   449.6    5.952      36.129
2015    4        8    11  16    4.6901   449.5    5.956      36.146
2015    4        8    11  21    4.6936   449.5    5.960      36.163
2015    4        8    11  27    4.6970   449.5    5.964      36.180
2015    4        8    11  33    4.7004   449.5    5.968      36.197
2015    4        8    11  39    4.7038   449.5    5.972      36.215
2015    4        8    11  44    4.7072   449.5    5.976      36.233
2015    4        8    11  50    4.7106   449.4    5.981      36.251
2015    4        8    11  56    4.7140   449.4    5.985      36.269
2015    4        8    12   1    4.7174   449.4    5.989      36.288
2015    4        8    12   7    4.7208   449.4    5.993      36.307
2015    4        8    12  13    4.7242   449.4    5.997      36.326
2015    4        8    12  19    4.7276   449.4    6.001      36.345
2015    4        8    12  24    4.7310   449.4    6.005      36.364
2015    4        8    12  30    4.7344   449.3    6.009      36.384
2015    4        8    12  36    4.7377   449.3    6.014      36.403
2015    4        8    12  41    4.7411   449.3    6.018      36.423
2015    4        8    12  47    4.7445   449.3    6.022      36.443
2015    4        8    12  53    4.7479   449.3    6.026      36.463
2015    4        8    12  59    4.7513   449.3    6.030      36.483
2015    4        8    13   4    4.7547   449.3    6.035      36.503
2015    4        8    13  10    4.7581   449.3    6.039      36.524
2015    4        8    13  16    4.7615   449.3    6.043      36.544
2015    4        8    13  21    4.7649   449.3    6.048      36.565
2015    4        8    13  27    4.7683   449.2    6.052      36.587
2015    4        8    13  33    4.7717   449.2    6.056      36.608
2015    4        8    13  39    4.7751   449.2    6.061      36.630
2015    4        8    13  44    4.7785   449.2    6.065      36.652
2015    4        8    13  50    4.7819   449.2    6.069      36.675
2015    4        8    13  56    4.7853   449.2    6.073      36.699
2015    4        8    14   1    4.7886   449.2    6.077      36.723
2015    4        8    14   7    4.7919   449.2    6.081      36.747
2015    4        8    14  13    4.7952   449.2    6.085      36.772
2015    4        8    14  19    4.7985   449.3    6.089      36.797
2015    4        8    14  24    4.8017   449.3    6.092      36.823
2015    4        8    14  30    4.8049   449.3    6.096      36.848
2015    4        8    14  36    4.8081   449.3    6.099      36.872
2015    4        8    14  41    4.8113   449.3    6.103      36.897
2015    4        8    14  47    4.8144   449.3    6.106      36.921
2015    4        8    14  53    4.8175   449.3    6.109      36.945
2015    4        8    14  59    4.8206   449.3    6.112      36.969
2015    4        8    15   4    4.8237   449.3    6.115      36.992
2015    4        8    15  10    4.8268   449.3    6.118      37.016
2015    4        8    15  16    4.8298   449.3    6.120      37.038
2015    4        8    15  21    4.8328   449.3    6.123      37.061
2015    4        8    15  27    4.8358   449.3    6.126      37.083
2015    4        8    15  33    4.8388   449.3    6.128      37.104
2015    4        8    15  39    4.8418   449.3    6.131      37.126
2015    4        8    15  44    4.8448   449.3    6.133      37.147
2015    4        8    15  50    4.8477   449.3    6.136      37.167
2015    4        8    15  56    4.8507   449.3    6.138      37.187
2015    4        8    16   1    4.8536   449.3    6.140      37.207
2015    4        8    16   7    4.8565   449.3    6.143      37.227
2015    4        8    16  13    4.8595   449.4    6.145      37.247
2015    4        8    16  19    4.8624   449.4    6.147      37.266
2015    4        8    16  24    4.8653   449.4    6.149      37.285
2015    4        8    16  30    4.8681   449.4    6.152      37.303
2015    4        8    16  36    4.8710   449.4    6.154      37.322
2015    4        8    16  41    4.8739   449.4    6.156      37.340
2015    4        8    16  47    4.8767   449.4    6.158      37.358
2015    4        8    16  53    4.8796   449.4    6.160      37.376
2015    4        8    16  59    4.8824   449.4    6.162      37.394
2015    4        8    17   4    4.8852   449.4    6.164      37.412
2015    4        8    17  10    4.8880   449.4    6.166      37.430
2015    4        8    17  16    4.8908   449.4    6.168      37.448
2015    4        8    17  21    4.8936   449.4    6.170      37.465
2015    4        8    17  27    4.8964   449.4    6.172      37.483
2015    4        8    17  33    4.8991   449.4    6.174      37.501
2015    4        8    17  39    4.9019   449.5    6.176      37.519
2015    4        8    17  44    4.9046   449.5    6.178      37.537
2015    4        8    17  50    4.9074   449.5    6.180      37.555
2015    4        8    17  56    4.9101   449.5    6.182      37.573
2015    4        8    18   1    4.9128   449.5    6.183      37.591
2015    4        8    18   7    4.9155   449.5    6.185      37.610
2015    4        8    18  13    4.9182   449.5    6.187      37.628
2015    4        8    18  19    4.9209   449.5    6.189      37.647
2015    4        8    18  24    4.9236   449.5    6.191      37.667
2015    4        8    18  30    4.9262   449.5    6.193      37.686
2015    4        8    18  36    4.9289   449.5    6.195      37.706
2015    4        8    18  42    4.9316   449.6    6.197      37.726
2015    4        8    18  47    4.9342   449.6    6.199      37.747
2015    4        8    18  53    4.9368   449.6    6.201      37.768
2015    4        8    18  59    4.9395   449.6    6.203      37.789
2015    4        8    19   4    4.9421   449.6    6.205      37.810
2015    4        8    19  10    4.9447   449.6    6.207      37.832
2015    4        8    19  16    4.9474   449.6    6.209      37.854
2015    4        8    19  22    4.9500   449.6    6.211      37.877
2015    4        8    19  27    4.9526   449.7    6.213      37.900
2015    4        8    19  33    4.9552   449.7    6.216      37.923
2015    4        8    19  39    4.9578   449.7    6.218      37.946
2015    4        8    19  44    4.9604   449.7    6.220      37.970
2015    4        8    19  50    4.9630   449.7    6.222      37.994
2015    4        8    19  56    4.9656   449.7    6.224      38.019
2015    4        8    20   2    4.9682   449.8    6.227      38.043
2015    4        8    20   7    4.9708   449.8    6.229      38.068
2015    4        8    20  13    4.9733   449.8    6.231      38.093
2015    4        8    20  19    4.9759   449.8    6.234      38.118
2015    4        8    20  24    4.9785   449.8    6.236      38.144
2015    4        8    20  30    4.9811   449.9    6.238      38.170
2015    4        8    20  36    4.9836   449.9    6.241      38.196
2015    4        8    20  42    4.9862   449.9    6.243      38.222
2015    4        8    20  47    4.9887   449.9    6.246      38.249
2015    4        8    20  53    4.9913   449.9    6.248      38.275
2015    4        8    20  59    4.9938   450.0    6.251      38.303
2015    4        8    21   4    4.9963   450.0    6.253      38.330
2015    4        8    21  10    4.9988   450.0    6.255      38.358
2015    4        8    21  16    5.0013   450.0    6.258      38.386
2015    4        8    21  22    5.0038   450.1    6.260      38.415
2015    4        8    21  27    5.0062   450.1    6.262      38.444
2015    4        8    21  33    5.0086   450.1    6.264      38.473
2015    4        8    21  39    5.0110   450.2    6.266      38.503
2015    4        8    21  44    5.0134   450.2    6.268      38.532
2015    4        8    21  50    5.0157   450.2    6.270      38.561
2015    4        8    21  56    5.0181   450.2    6.271      38.589
2015    4        8    22   2    5.0204   450.3    6.273      38.617
2015    4        8    22   7    5.0227   450.3    6.274      38.645
2015    4        8    22  13    5.0250   450.3    6.276      38.673
2015    4        8    22  19    5.0272   450.3    6.278      38.701
2015    4        8    22  24    5.0295   450.4    6.279      38.728
2015    4        8    22  30    5.0317   450.4    6.280      38.755
2015    4        8    22  36    5.0340   450.4    6.282      38.782
2015    4        8    22  42    5.0362   450.5    6.283      38.809
2015    4        8    22  47    5.0384   450.5    6.284      38.836
2015    4        8    22  53    5.0407   450.5    6.286      38.862
2015    4        8    22  59    5.0429   450.5    6.287      38.888
2015    4        8    23   4    5.0451   450.6    6.288      38.914
2015    4        8    23  10    5.0472   450.6    6.289      38.940
2015    4        8    23  16    5.0494   450.6    6.290      38.966
2015    4        8    23  22    5.0516   450.7    6.291      38.992
2015    4        8    23  27    5.0537   450.7    6.292      39.017
2015    4        8    23  33    5.0559   450.7    6.293      39.043
2015    4        8    23  39    5.0580   450.7    6.294      39.068
2015    4        8    23  44    5.0601   450.8    6.295      39.093
2015    4        8    23  50    5.0622   450.8    6.296      39.117
2015    4        8    23  56    5.0643   450.8    6.297      39.142
2015    4        9     0   2    5.0664   450.9    6.298      39.166
2015    4        9     0   7    5.0685   450.9    6.298      39.190
2015    4        9     0  13    5.0706   450.9    6.299      39.214
2015    4        9     0  19    5.0726   451.0    6.300      39.237
2015    4        9     0  24    5.0746   451.0    6.300      39.261
2015    4        9     0  30    5.0767   451.0    6.301      39.284
2015    4        9     0  36    5.0787   451.0    6.302      39.307
2015    4        9     0  42    5.0807   451.1    6.302      39.329
2015    4        9     0  47    5.0827   451.1    6.303      39.352
2015    4        9     0  53    5.0847   451.1    6.303      39.374
2015    4        9     0  59    5.0867   451.2    6.304      39.397
2015    4        9     1   5    5.0887   451.2    6.304      39.419
2015    4        9     1  10    5.0907   451.2    6.305      39.441
2015    4        9     1  16    5.0927   451.3    6.305      39.463
2015    4        9     1  22    5.0947   451.3    6.306      39.485
2015    4        9     1  27    5.0966   451.3    6.307      39.507
2015    4        9     1  33    5.0986   451.3    6.307      39.529
2015    4        9     1  39    5.1006   451.4    6.308      39.551
2015    4        9     1  45    5.1026   451.4    6.308      39.574
2015    4        9     1  50    5.1045   451.4    6.309      39.596
2015    4        9     1  56    5.1065   451.5    6.310      39.619
2015    4        9     2   2    5.1085   451.5    6.311      39.641
2015    4        9     2   7    5.1105   451.5    6.312      39.664
2015    4        9     2  13    5.1125   451.6    6.313      39.687
2015    4        9     2  19    5.1145   451.6    6.314      39.711
2015    4        9     2  25    5.1165   451.6    6.315      39.735
2015    4        9     2  30    5.1185   451.7    6.316      39.759
2015    4        9     2  36    5.1205   451.7    6.317      39.783
2015    4        9     2  42    5.1225   451.7    6.318      39.808
2015    4        9     2  47    5.1245   451.8    6.320      39.833
2015    4        9     2  53    5.1265   451.8    6.321      39.859
2015    4        9     2  59    5.1285   451.8    6.322      39.885
2015    4        9     3   5    5.1305   451.9    6.324      39.911
2015    4        9     3  10    5.1325   451.9    6.325      39.939
2015    4        9     3  16    5.1344   451.9    6.327      39.966
2015    4        9     3  22    5.1364   452.0    6.329      39.995
2015    4        9     3  27    5.1383   452.0    6.330      40.023
2015    4        9     3  33    5.1403   452.0    6.332      40.053
2015    4        9     3  39    5.1422   452.1    6.333      40.083
2015    4        9     3  45    5.1441   452.1    6.335      40.113
2015    4        9     3  50    5.1460   452.2    6.336      40.145
2015    4        9     3  56    5.1478   452.2    6.338      40.177
2015    4        9     4   2    5.1497   452.3    6.339      40.210
2015    4        9     4   7    5.1515   452.3    6.340      40.242
2015    4        9     4  13    5.1533   452.3    6.342      40.275
2015    4        9     4  19    5.1551   452.4    6.343      40.308
2015    4        9     4  25    5.1569   452.4    6.344      40.340
2015    4        9     4  30    5.1587   452.5    6.345      40.372
2015    4        9     4  36    5.1605   452.5    6.346      40.404
2015    4        9     4  42    5.1622   452.5    6.347      40.435
2015    4        9     4  47    5.1640   452.6    6.347      40.466
2015    4        9     4  53    5.1657   452.6    6.348      40.497
2015    4        9     4  59    5.1675   452.6    6.349      40.527
2015    4        9     5   5    5.1692   452.7    6.349      40.557
2015    4        9     5  10    5.1709   452.7    6.350      40.587
2015    4        9     5  16    5.1727   452.8    6.350      40.616
2015    4        9     5  22    5.1744   452.8    6.351      40.645
2015    4        9     5  27    5.1761   452.8    6.351      40.674
2015    4        9     5  33    5.1778   452.9    6.352      40.702
2015    4        9     5  39    5.1795   452.9    6.352      40.731
2015    4        9     5  45    5.1812   453.0    6.352      40.759
2015    4        9     5  50    5.1830   453.0    6.353      40.786
2015    4        9     5  56    5.1847   453.0    6.353      40.814
2015    4        9     6   2    5.1864   453.1    6.353      40.841
2015    4        9     6   7    5.1881   453.1    6.353      40.868
2015    4        9     6  13    5.1898   453.2    6.354      40.895
2015    4        9     6  19    5.1915   453.2    6.354      40.921
2015    4        9     6  25    5.1932   453.2    6.354      40.947
2015    4        9     6  30    5.1949   453.3    6.354      40.974
2015    4        9     6  36    5.1965   453.3    6.353      40.999
2015    4        9     6  42    5.1982   453.4    6.353      41.025
2015    4        9     6  47    5.1999   453.4    6.353      41.051
2015    4        9     6  53    5.2015   453.4    6.353      41.076
2015    4        9     6  59    5.2032   453.5    6.353      41.101
2015    4        9     7   5    5.2048   453.5    6.352      41.125
2015    4        9     7  10    5.2064   453.6    6.352      41.149
2015    4        9     7  16    5.2080   453.6    6.351      41.173
2015    4        9     7  22    5.2096   453.6    6.351      41.196
2015    4        9     7  27    5.2112   453.7    6.350      41.219
2015    4        9     7  33    5.2128   453.7    6.350      41.241
2015    4        9     7  39    5.2143   453.8    6.349      41.263
2015    4        9     7  45    5.2159   453.8    6.348      41.285
2015    4        9     7  50    5.2174   453.8    6.348      41.306
2015    4        9     7  56    5.2190   453.9    6.347      41.327
2015    4        9     8   2    5.2205   453.9    6.346      41.348
2015    4        9     8   8    5.2221   454.0    6.346      41.369
2015    4        9     8  13    5.2236   454.0    6.345      41.389
2015    4        9     8  19    5.2251   454.0    6.344      41.409
2015    4        9     8  25    5.2266   454.1    6.344      41.429
2015    4        9     8  30    5.2281   454.1    6.343      41.449
2015    4        9     8  36    5.2296   454.1    6.342      41.468
2015    4        9     8  42    5.2311   454.2    6.342      41.487
2015    4        9     8  48    5.2325   454.2    6.341      41.506
2015    4        9     8  53    5.2340   454.2    6.340      41.525
2015    4        9     8  59    5.2355   454.3    6.340      41.544
2015    4        9     9   5    5.2370   454.3    6.339      41.563
2015    4        9     9  10    5.2384   454.3    6.339      41.582
2015    4        9     9  16    5.2399   454.4    6.339      41.601
2015    4        9     9  22    5.2413   454.4    6.338      41.620
2015    4        9     9  28    5.2428   454.4    6.338      41.639
2015    4        9     9  33    5.2443   454.5    6.338      41.658
2015    4        9     9  39    5.2457   454.5    6.338      41.677
2015    4        9     9  45    5.2472   454.5    6.338      41.696
2015    4        9     9  50    5.2487   454.6    6.338      41.716
2015    4        9     9  56    5.2502   454.6    6.339      41.736
2015    4        9    10   2    5.2517   454.6    6.339      41.756
2015    4        9    10   8    5.2532   454.7    6.340      41.776
2015    4        9    10  13    5.2547   454.7    6.340      41.797
2015    4        9    10  19    5.2562   454.7    6.341      41.819
2015    4        9    10  25    5.2578   454.8    6.342      41.841
2015    4        9    10  30    5.2593   454.8    6.343      41.864
2015    4        9    10  36    5.2609   454.8    6.344      41.887
2015    4        9    10  42    5.2625   454.9    6.345      41.911
2015    4        9    10  48    5.2641   454.9    6.347      41.936
2015    4        9    10  53    5.2657   454.9    6.348      41.961
2015    4        9    10  59    5.2673   454.9    6.350      41.988
2015    4        9    11   5    5.2689   455.0    6.352      42.015
2015    4        9    11  10    5.2706   455.0    6.353      42.043
2015    4        9    11  16    5.2722   455.1    6.355      42.073
2015    4        9    11  22    5.2739   455.1    6.357      42.103
2015    4        9    11  28    5.2756   455.1    6.358      42.134
2015    4        9    11  33    5.2772   455.2    6.360      42.166
2015    4        9    11  39    5.2789   455.2    6.362      42.199
2015    4        9    11  45    5.2806   455.2    6.363      42.232
2015    4        9    11  50    5.2822   455.3    6.365      42.265
2015    4        9    11  56    5.2839   455.3    6.366      42.299
2015    4        9    12   2    5.2856   455.4    6.368      42.332
2015    4        9    12   8    5.2872   455.4    6.369      42.365
2015    4        9    12  13    5.2888   455.5    6.370      42.398
2015    4        9    12  19    5.2905   455.5    6.371      42.431
2015    4        9    12  25    5.2921   455.5    6.372      42.463
2015    4        9    12  30    5.2937   455.6    6.373      42.494
2015    4        9    12  36    5.2953   455.6    6.373      42.524
2015    4        9    12  42    5.2969   455.7    6.374      42.554
2015    4        9    12  48    5.2985   455.7    6.375      42.583
2015    4        9    12  53    5.3000   455.8    6.375      42.611
2015    4        9    12  59    5.3016   455.8    6.375      42.639
2015    4        9    13   5    5.3032   455.8    6.376      42.666
2015    4        9    13  10    5.3047   455.9    6.376      42.692
2015    4        9    13  16    5.3063   455.9    6.376      42.718
2015    4        9    13  22    5.3079   456.0    6.376      42.743
2015    4        9    13  28    5.3094   456.0    6.376      42.768
2015    4        9    13  33    5.3110   456.1    6.376      42.792
2015    4        9    13  39    5.3125   456.1    6.376      42.816
2015    4        9    13  45    5.3141   456.2    6.376      42.839
2015    4        9    13  50    5.3156   456.2    6.375      42.862
2015    4        9    13  56    5.3172   456.2    6.375      42.885
2015    4        9    14   2    5.3187   456.3    6.375      42.907
2015    4        9    14   8    5.3203   456.3    6.375      42.928
2015    4        9    14  13    5.3218   456.4    6.374      42.950
2015    4        9    14  19    5.3233   456.4    6.374      42.970
2015    4        9    14  25    5.3249   456.4    6.373      42.991
2015    4        9    14  30    5.3264   456.5    6.373      43.011
2015    4        9    14  36    5.3279   456.5    6.372      43.031
2015    4        9    14  42    5.3294   456.6    6.372      43.050
2015    4        9    14  48    5.3310   456.6    6.371      43.069
2015    4        9    14  53    5.3325   456.7    6.370      43.088
2015    4        9    14  59    5.3340   456.7    6.370      43.107
2015    4        9    15   5    5.3355   456.7    6.369      43.125
2015    4        9    15  11    5.3370   456.8    6.368      43.143
2015    4        9    15  16    5.3385   456.8    6.368      43.160
2015    4        9    15  22    5.3400   456.9    6.367      43.178
2015    4        9    15  28    5.3415   456.9    6.366      43.195
2015    4        9    15  33    5.3431   456.9    6.365      43.212
2015    4        9    15  39    5.3446   457.0    6.364      43.229
2015    4        9    15  45    5.3461   457.0    6.364      43.246
2015    4        9    15  51    5.3476   457.1    6.363      43.262
2015    4        9    15  56    5.3491   457.1    6.362      43.278
2015    4        9    16   2    5.3506   457.1    6.361      43.295
2015    4        9    16   8    5.3521   457.2    6.360      43.311
2015    4        9    16  13    5.3536   457.2    6.360      43.327
2015    4        9    16  19    5.3551   457.3    6.359      43.343
2015    4        9    16  25    5.3566   457.3    6.358      43.360
2015    4        9    16  31    5.3582   457.3    6.357      43.376
2015    4        9    16  36    5.3597   457.4    6.357      43.392
2015    4        9    16  42    5.3612   457.4    6.356      43.408
2015    4        9    16  48    5.3628   457.4    6.356      43.425
2015    4        9    16  53    5.3643   457.5    6.355      43.442
2015    4        9    16  59    5.3659   457.5    6.355      43.458
2015    4        9    17   5    5.3674   457.6    6.354      43.475
2015    4        9    17  11    5.3690   457.6    6.354      43.493
2015    4        9    17  16    5.3706   457.6    6.354      43.510
2015    4        9    17  22    5.3722   457.7    6.354      43.528
2015    4        9    17  28    5.3738   457.7    6.354      43.546
2015    4        9    17  33    5.3755   457.7    6.354      43.565
2015    4        9    17  39    5.3771   457.8    6.354      43.583
2015    4        9    17  45    5.3788   457.8    6.354      43.603
2015    4        9    17  51    5.3805   457.8    6.354      43.622
2015    4        9    17  56    5.3822   457.9    6.355      43.642
2015    4        9    18   2    5.3840   457.9    6.356      43.663
2015    4        9    18   8    5.3858   458.0    6.356      43.684
2015    4        9    18  13    5.3876   458.0    6.357      43.706
2015    4        9    18  19    5.3894   458.0    6.358      43.728
2015    4        9    18  25    5.3912   458.1    6.359      43.750
2015    4        9    18  31    5.3931   458.1    6.360      43.773
2015    4        9    18  36    5.3950   458.2    6.361      43.797
2015    4        9    18  42    5.3969   458.2    6.363      43.821
2015    4        9    18  48    5.3989   458.3    6.364      43.846
2015    4        9    18  53    5.4008   458.3    6.366      43.872
2015    4        9    18  59    5.4028   458.3    6.367      43.898
2015    4        9    19   5    5.4048   458.4    6.369      43.924
2015    4        9    19  11    5.4068   458.4    6.370      43.951
2015    4        9    19  16    5.4088   458.5    6.372      43.978
2015    4        9    19  22    5.4108   458.5    6.374      44.006
2015    4        9    19  28    5.4129   458.6    6.376      44.035
2015    4        9    19  33    5.4149   458.6    6.377      44.063
2015    4        9    19  39    5.4169   458.7    6.379      44.093
2015    4        9    19  45    5.4189   458.7    6.381      44.122
2015    4        9    19  51    5.4209   458.8    6.382      44.151
2015    4        9    19  56    5.4229   458.8    6.384      44.180
2015    4        9    20   2    5.4249   458.9    6.385      44.209
2015    4        9    20   8    5.4269   458.9    6.387      44.238
2015    4        9    20  13    5.4289   459.0    6.389      44.266
2015    4        9    20  19    5.4309   459.1    6.390      44.294
2015    4        9    20  25    5.4329   459.1    6.392      44.322
2015    4        9    20  31    5.4349   459.2    6.393      44.350
2015    4        9    20  36    5.4368   459.2    6.395      44.378
2015    4        9    20  42    5.4388   459.3    6.396      44.405
2015    4        9    20  48    5.4408   459.3    6.398      44.433
2015    4        9    20  53    5.4428   459.4    6.399      44.461
2015    4        9    20  59    5.4448   459.5    6.400      44.489
2015    4        9    21   5    5.4468   459.5    6.402      44.517
2015    4        9    21  11    5.4488   459.6    6.403      44.545
2015    4        9    21  16    5.4507   459.6    6.404      44.574
2015    4        9    21  22    5.4527   459.7    6.405      44.602
2015    4        9    21  28    5.4547   459.8    6.406      44.631
2015    4        9    21  33    5.4566   459.8    6.407      44.660
2015    4        9    21  39    5.4586   459.9    6.408      44.689
2015    4        9    21  45    5.4605   459.9    6.409      44.717
2015    4        9    21  51    5.4625   460.0    6.410      44.746
2015    4        9    21  56    5.4644   460.1    6.410      44.774
2015    4        9    22   2    5.4664   460.1    6.411      44.802
2015    4        9    22   8    5.4683   460.2    6.412      44.830
2015    4        9    22  14    5.4703   460.3    6.412      44.858
2015    4        9    22  19    5.4722   460.3    6.413      44.885
2015    4        9    22  25    5.4742   460.4    6.413      44.912
2015    4        9    22  31    5.4761   460.5    6.414      44.939
2015    4        9    22  36    5.4781   460.5    6.414      44.965
2015    4        9    22  42    5.4800   460.6    6.415      44.992
2015    4        9    22  48    5.4819   460.7    6.415      45.018
2015    4        9    22  54    5.4839   460.7    6.416      45.043
2015    4        9    22  59    5.4858   460.8    6.416      45.069
2015    4        9    23   5    5.4878   460.9    6.416      45.094
2015    4        9    23  11    5.4897   460.9    6.417      45.119
2015    4        9    23  16    5.4917   461.0    6.417      45.144
2015    4        9    23  22    5.4936   461.1    6.417      45.169
2015    4        9    23  28    5.4955   461.1    6.417      45.194
2015    4        9    23  34    5.4975   461.2    6.418      45.218
2015    4        9    23  39    5.4994   461.3    6.418      45.243
2015    4        9    23  45    5.5014   461.3    6.418      45.267
2015    4        9    23  51    5.5034   461.4    6.419      45.292
2015    4        9    23  56    5.5053   461.5    6.419      45.316
2015    4       10     0   2    5.5073   461.5    6.419      45.341
2015    4       10     0   8    5.5093   461.6    6.419      45.366
2015    4       10     0  14    5.5113   461.7    6.420      45.390
2015    4       10     0  19    5.5133   461.7    6.420      45.415
2015    4       10     0  25    5.5153   461.8    6.420      45.440
2015    4       10     0  31    5.5174   461.9    6.421      45.465
2015    4       10     0  36    5.5194   462.0    6.421      45.491
2015    4       10     0  42    5.5215   462.0    6.422      45.516
2015    4       10     0  48    5.5236   462.1    6.422      45.542
2015    4       10     0  54    5.5257   462.2    6.423      45.568
2015    4       10     0  59    5.5279   462.3    6.424      45.594
2015    4       10     1   5    5.5300   462.3    6.424      45.621
2015    4       10     1  11    5.5322   462.4    6.425      45.648
2015    4       10     1  16    5.5344   462.5    6.426      45.675
2015    4       10     1  22    5.5366   462.6    6.427      45.702
2015    4       10     1  28    5.5389   462.6    6.428      45.730
2015    4       10     1  34    5.5412   462.7    6.429      45.758
2015    4       10     1  39    5.5435   462.8    6.430      45.786
2015    4       10     1  45    5.5458   462.9    6.431      45.815
2015    4       10     1  51    5.5482   463.0    6.432      45.844
2015    4       10     1  56    5.5506   463.0    6.434      45.873
2015    4       10     2   2    5.5530   463.1    6.435      45.903
2015    4       10     2   8    5.5554   463.2    6.437      45.933
2015    4       10     2  14    5.5578   463.3    6.438      45.965
2015    4       10     2  19    5.5602   463.4    6.440      45.996
2015    4       10     2  25    5.5627   463.5    6.442      46.029
2015    4       10     2  31    5.5651   463.6    6.444      46.062
2015    4       10     2  36    5.5675   463.7    6.446      46.095
2015    4       10     2  42    5.5700   463.8    6.448      46.130
2015    4       10     2  48    5.5724   463.9    6.450      46.165
2015    4       10     2  54    5.5747   464.0    6.452      46.202
2015    4       10     2  59    5.5771   464.1    6.453      46.240
2015    4       10     3   5    5.5795   464.2    6.455      46.279
2015    4       10     3  11    5.5818   464.3    6.457      46.319
2015    4       10     3  16    5.5841   464.4    6.459      46.359
2015    4       10     3  22    5.5864   464.5    6.460      46.400
2015    4       10     3  28    5.5887   464.6    6.462      46.440
2015    4       10     3  34    5.5909   464.7    6.463      46.481
2015    4       10     3  39    5.5932   464.8    6.465      46.522
2015    4       10     3  45    5.5954   464.9    6.466      46.562
2015    4       10     3  51    5.5976   465.0    6.467      46.602
2015    4       10     3  56    5.5998   465.1    6.469      46.643
2015    4       10     4   2    5.6020   465.2    6.470      46.683
2015    4       10     4   8    5.6042   465.3    6.471      46.722
2015    4       10     4  14    5.6064   465.5    6.472      46.762
2015    4       10     4  19    5.6086   465.6    6.473      46.802
2015    4       10     4  25    5.6108   465.7    6.474      46.842
2015    4       10     4  31    5.6130   465.8    6.475      46.881
2015    4       10     4  36    5.6152   465.9    6.476      46.921
2015    4       10     4  42    5.6174   466.0    6.477      46.960
2015    4       10     4  48    5.6196   466.1    6.478      46.999
2015    4       10     4  54    5.6219   466.2    6.479      47.039
2015    4       10     4  59    5.6241   466.3    6.480      47.078
2015    4       10     5   5    5.6263   466.4    6.481      47.117
2015    4       10     5  11    5.6286   466.6    6.482      47.157
2015    4       10     5  17    5.6308   466.7    6.483      47.196
2015    4       10     5  22    5.6331   466.8    6.484      47.236
2015    4       10     5  28    5.6354   466.9    6.484      47.276
2015    4       10     5  34    5.6376   467.0    6.485      47.316
2015    4       10     5  39    5.6399   467.1    6.486      47.356
2015    4       10     5  45    5.6421   467.2    6.487      47.397
2015    4       10     5  51    5.6444   467.3    6.488      47.438
2015    4       10     5  57    5.6467   467.5    6.488      47.479
2015    4       10     6   2    5.6489   467.6    6.489      47.521
2015    4       10     6   8    5.6511   467.7    6.490      47.563
2015    4       10     6  14    5.6533   467.8    6.490      47.606
2015    4       10     6  19    5.6555   467.9    6.491      47.648
2015    4       10     6  25    5.6577   468.1    6.491      47.691
2015    4       10     6  31    5.6599   468.2    6.491      47.734
2015    4       10     6  37    5.6620   468.3    6.492      47.776
2015    4       10     6  42    5.6641   468.4    6.492      47.818
2015    4       10     6  48    5.6662   468.6    6.492      47.860
2015    4       10     6  54    5.6682   468.7    6.492      47.901
2015    4       10     6  59    5.6703   468.8    6.492      47.942
2015    4       10     7   5    5.6723   468.9    6.492      47.982
2015    4       10     7  11    5.6744   469.1    6.492      48.022
2015    4       10     7  17    5.6764   469.2    6.492      48.062
2015    4       10     7  22    5.6784   469.3    6.491      48.102
2015    4       10     7  28    5.6804   469.4    6.491      48.141
2015    4       10     7  34    5.6824   469.5    6.491      48.179
2015    4       10     7  39    5.6844   469.7    6.491      48.218
2015    4       10     7  45    5.6864   469.8    6.491      48.256
2015    4       10     7  51    5.6884   469.9    6.490      48.293
2015    4       10     7  57    5.6905   470.0    6.490      48.331
2015    4       10     8   2    5.6925   470.2    6.490      48.368
2015    4       10     8   8    5.6945   470.3    6.490      48.405
2015    4       10     8  14    5.6966   470.4    6.490      48.442
2015    4       10     8  19    5.6986   470.5    6.490      48.479
2015    4       10     8  25    5.7007   470.7    6.489      48.516
2015    4       10     8  31    5.7028   470.8    6.489      48.552
2015    4       10     8  37    5.7050   470.9    6.489      48.589
2015    4       10     8  42    5.7071   471.1    6.489      48.626
2015    4       10     8  48    5.7093   471.2    6.490      48.663
2015    4       10     8  54    5.7115   471.3    6.490      48.700
2015    4       10     8  59    5.7138   471.4    6.490      48.738
2015    4       10     9   5    5.7160   471.6    6.491      48.775
2015    4       10     9  11    5.7183   471.7    6.491      48.813
2015    4       10     9  17    5.7206   471.8    6.492      48.852
2015    4       10     9  22    5.7230   472.0    6.492      48.891
2015    4       10     9  28    5.7253   472.1    6.493      48.930
2015    4       10     9  34    5.7276   472.2    6.494      48.970
2015    4       10     9  39    5.7300   472.4    6.495      49.011
2015    4       10     9  45    5.7323   472.5    6.496      49.053
2015    4       10     9  51    5.7346   472.6    6.497      49.095
2015    4       10     9  57    5.7369   472.8    6.498      49.138
2015    4       10    10   2    5.7392   472.9    6.500      49.182
2015    4       10    10   8    5.7414   473.1    6.501      49.227
2015    4       10    10  14    5.7436   473.2    6.502      49.273
2015    4       10    10  19    5.7458   473.4    6.503      49.319
2015    4       10    10  25    5.7479   473.5    6.504      49.367
2015    4       10    10  31    5.7500   473.7    6.505      49.416
2015    4       10    10  37    5.7520   473.9    6.506      49.465
2015    4       10    10  42    5.7541   474.0    6.507      49.514
2015    4       10    10  48    5.7561   474.2    6.507      49.564
2015    4       10    10  54    5.7581   474.3    6.508      49.613
2015    4       10    10  59    5.7600   474.5    6.509      49.661
2015    4       10    11   5    5.7620   474.7    6.509      49.709
2015    4       10    11  11    5.7639   474.8    6.509      49.756
2015    4       10    11  17    5.7658   475.0    6.510      49.803
2015    4       10    11  22    5.7677   475.1    6.510      49.850
2015    4       10    11  28    5.7696   475.3    6.510      49.897
2015    4       10    11  34    5.7716   475.4    6.511      49.943
2015    4       10    11  39    5.7735   475.6    6.511      49.989
2015    4       10    11  45    5.7755   475.8    6.512      50.035
2015    4       10    11  51    5.7775   475.9    6.512      50.081
2015    4       10    11  57    5.7796   476.1    6.513      50.129
2015    4       10    12   2    5.7816   476.3    6.513      50.176
2015    4       10    12   8    5.7837   476.4    6.514      50.224
2015    4       10    12  14    5.7859   476.6    6.514      50.272
2015    4       10    12  20    5.7880   476.8    6.515      50.321
2015    4       10    12  25    5.7902   476.9    6.516      50.372
2015    4       10    12  31    5.7924   477.1    6.516      50.424
2015    4       10    12  37    5.7946   477.3    6.517      50.478
2015    4       10    12  42    5.7968   477.5    6.517      50.533
2015    4       10    12  48    5.7989   477.7    6.517      50.589
2015    4       10    12  54    5.8009   477.9    6.517      50.646
2015    4       10    13   0    5.8029   478.1    6.517      50.703
2015    4       10    13   5    5.8049   478.3    6.517      50.759
2015    4       10    13  11    5.8067   478.5    6.516      50.814
2015    4       10    13  17    5.8085   478.7    6.515      50.868
2015    4       10    13  22    5.8103   478.9    6.514      50.922
2015    4       10    13  28    5.8120   479.1    6.513      50.976
2015    4       10    13  34    5.8136   479.3    6.511      51.028
2015    4       10    13  40    5.8152   479.4    6.510      51.081
2015    4       10    13  45    5.8168   479.6    6.508      51.133
2015    4       10    13  51    5.8183   479.8    6.507      51.184
2015    4       10    13  57    5.8198   480.0    6.505      51.236
2015    4       10    14   2    5.8213   480.2    6.503      51.287
2015    4       10    14   8    5.8228   480.4    6.502      51.338
2015    4       10    14  14    5.8243   480.6    6.500      51.388
2015    4       10    14  20    5.8258   480.8    6.498      51.439
2015    4       10    14  25    5.8272   481.0    6.496      51.489
2015    4       10    14  31    5.8287   481.2    6.494      51.539
2015    4       10    14  37    5.8301   481.4    6.493      51.589
2015    4       10    14  42    5.8316   481.6    6.491      51.639
2015    4       10    14  48    5.8331   481.7    6.489      51.688
2015    4       10    14  54    5.8345   481.9    6.487      51.738
2015    4       10    15   0    5.8360   482.1    6.485      51.788
2015    4       10    15   5    5.8375   482.3    6.484      51.837
2015    4       10    15  11    5.8391   482.5    6.482      51.887
2015    4       10    15  17    5.8406   482.7    6.481      51.938
2015    4       10    15  22    5.8422   482.9    6.479      51.989
2015    4       10    15  28    5.8439   483.1    6.478      52.041
2015    4       10    15  34    5.8456   483.3    6.476      52.094
2015    4       10    15  40    5.8472   483.5    6.475      52.146
2015    4       10    15  45    5.8490   483.7    6.474      52.200
2015    4       10    15  51    5.8508   483.9    6.472      52.254
2015    4       10    15  57    5.8526   484.1    6.471      52.310
2015    4       10    16   2    5.8544   484.3    6.470      52.365
2015    4       10    16   8    5.8562   484.5    6.468      52.422
2015    4       10    16  14    5.8580   484.8    6.467      52.479
2015    4       10    16  20    5.8598   485.0    6.465      52.536
2015    4       10    16  25    5.8616   485.2    6.463      52.592
2015    4       10    16  31    5.8633   485.4    6.461      52.647
2015    4       10    16  37    5.8649   485.7    6.459      52.701
2015    4       10    16  42    5.8666   485.9    6.457      52.754
2015    4       10    16  48    5.8681   486.1    6.455      52.805
2015    4       10    16  54    5.8697   486.3    6.452      52.856
2015    4       10    17   0    5.8711   486.6    6.449      52.905
2015    4       10    17   5    5.8726   486.8    6.446      52.953
2015    4       10    17  11    5.8740   487.0    6.443      53.001
2015    4       10    17  17    5.8754   487.2    6.440      53.047
2015    4       10    17  22    5.8768   487.5    6.437      53.093
2015    4       10    17  28    5.8781   487.7    6.434      53.138
2015    4       10    17  34    5.8794   487.9    6.431      53.183
2015    4       10    17  40    5.8807   488.1    6.428      53.227
2015    4       10    17  45    5.8820   488.4    6.424      53.271
2015    4       10    17  51    5.8833   488.6    6.421      53.315
2015    4       10    17  57    5.8845   488.8    6.418      53.358
2015    4       10    18   2    5.8857   489.1    6.414      53.400
2015    4       10    18   8    5.8869   489.3    6.411      53.443
2015    4       10    18  14    5.8881   489.5    6.408      53.485
2015    4       10    18  20    5.8893   489.8    6.405      53.527
2015    4       10    18  25    5.8905   490.0    6.402      53.569
2015    4       10    18  31    5.8916   490.2    6.399      53.611
2015    4       10    18  37    5.8927   490.5    6.396      53.653
2015    4       10    18  42    5.8939   490.7    6.393      53.696
2015    4       10    18  48    5.8950   490.9    6.390      53.739
2015    4       10    18  54    5.8961   491.2    6.387      53.783
2015    4       10    19   0    5.8971   491.4    6.384      53.827
2015    4       10    19   5    5.8982   491.7    6.382      53.872
2015    4       10    19  11    5.8992   491.9    6.379      53.918
2015    4       10    19  17    5.9002   492.2    6.376      53.965
2015    4       10    19  23    5.9011   492.4    6.374      54.014
2015    4       10    19  28    5.9020   492.7    6.371      54.064
2015    4       10    19  34    5.9028   493.0    6.367      54.116
2015    4       10    19  40    5.9035   493.2    6.364      54.169
2015    4       10    19  45    5.9040   493.5    6.360      54.223
2015    4       10    19  51    5.9045   493.8    6.356      54.276
2015    4       10    19  57    5.9048   494.1    6.352      54.328
2015    4       10    20   3    5.9050   494.4    6.348      54.380
2015    4       10    20   8    5.9052   494.7    6.343      54.430
2015    4       10    20  14    5.9052   495.0    6.338      54.480
2015    4       10    20  20    5.9051   495.2    6.332      54.529
2015    4       10    20  25    5.9049   495.5    6.326      54.577
2015    4       10    20  31    5.9046   495.8    6.321      54.624
2015    4       10    20  37    5.9043   496.1    6.315      54.671
2015    4       10    20  43    5.9039   496.4    6.308      54.717
2015    4       10    20  48    5.9034   496.7    6.302      54.763
2015    4       10    20  54    5.9029   497.0    6.296      54.808
2015    4       10    21   0    5.9023   497.3    6.289      54.853
2015    4       10    21   5    5.9016   497.5    6.282      54.898
2015    4       10    21  11    5.9009   497.8    6.276      54.942
2015    4       10    21  17    5.9001   498.1    6.269      54.986
2015    4       10    21  23    5.8992   498.4    6.262      55.030
2015    4       10    21  28    5.8982   498.7    6.256      55.074
2015    4       10    21  34    5.8973   499.0    6.249      55.117
2015    4       10    21  40    5.8962   499.2    6.242      55.161
2015    4       10    21  45    5.8951   499.5    6.235      55.204
2015    4       10    21  51    5.8939   499.8    6.228      55.247
2015    4       10    21  57    5.8927   500.1    6.221      55.290
2015    4       10    22   3    5.8914   500.3    6.215      55.334
2015    4       10    22   8    5.8901   500.6    6.208      55.377
2015    4       10    22  14    5.8888   500.9    6.201      55.421
2015    4       10    22  20    5.8875   501.2    6.195      55.465
2015    4       10    22  25    5.8861   501.4    6.188      55.510
2015    4       10    22  31    5.8848   501.7    6.182      55.555
2015    4       10    22  37    5.8835   502.0    6.175      55.602
2015    4       10    22  43    5.8821   502.3    6.169      55.649
2015    4       10    22  48    5.8808   502.5    6.163      55.697
2015    4       10    22  54    5.8795   502.8    6.157      55.745
2015    4       10    23   0    5.8781   503.1    6.151      55.794
2015    4       10    23   5    5.8768   503.4    6.145      55.845
2015    4       10    23  11    5.8754   503.6    6.139      55.897
2015    4       10    23  17    5.8740   503.9    6.133      55.949
2015    4       10    23  23    5.8726   504.2    6.127      56.002
2015    4       10    23  28    5.8711   504.5    6.121      56.056
2015    4       10    23  34    5.8696   504.8    6.114      56.110
2015    4       10    23  40    5.8680   505.1    6.108      56.162
2015    4       10    23  45    5.8663   505.4    6.101      56.213
2015    4       10    23  51    5.8646   505.7    6.095      56.263
2015    4       10    23  57    5.8627   506.0    6.088      56.311
2015    4       11     0   3    5.8608   506.3    6.081      56.358
