year    month   day   hour  minute  B_enl V_enl   n_enl       T_enl
[year] [month] [day] [hour][minute] [nT]  [km/s]  [cm-3]      [kK]
2015    4        1     0   5    6.1198   584.8    4.739      64.602
2015    4        1     0  10    6.1165   585.1    4.732      64.627
2015    4        1     0  16    6.1132   585.4    4.725      64.653
2015    4        1     0  22    6.1099   585.8    4.719      64.679
2015    4        1     0  28    6.1066   586.1    4.712      64.706
2015    4        1     0  33    6.1033   586.4    4.705      64.732
2015    4        1     0  39    6.1000   586.7    4.698      64.759
2015    4        1     0  45    6.0968   587.0    4.692      64.786
2015    4        1     0  50    6.0935   587.3    4.685      64.813
2015    4        1     0  56    6.0903   587.6    4.678      64.840
2015    4        1     1   2    6.0870   587.9    4.672      64.867
2015    4        1     1   8    6.0838   588.2    4.665      64.895
2015    4        1     1  13    6.0806   588.5    4.659      64.922
2015    4        1     1  19    6.0774   588.8    4.653      64.950
2015    4        1     1  25    6.0742   589.1    4.646      64.978
2015    4        1     1  30    6.0710   589.5    4.640      65.005
2015    4        1     1  36    6.0678   589.8    4.633      65.033
2015    4        1     1  42    6.0646   590.1    4.627      65.061
2015    4        1     1  48    6.0615   590.4    4.620      65.088
2015    4        1     1  53    6.0583   590.7    4.614      65.116
2015    4        1     1  59    6.0552   591.0    4.607      65.143
2015    4        1     2   5    6.0520   591.3    4.601      65.170
2015    4        1     2  11    6.0489   591.6    4.594      65.197
2015    4        1     2  16    6.0458   591.9    4.588      65.223
2015    4        1     2  22    6.0427   592.2    4.581      65.250
2015    4        1     2  28    6.0396   592.5    4.575      65.276
2015    4        1     2  33    6.0365   592.8    4.568      65.302
2015    4        1     2  39    6.0334   593.1    4.561      65.328
2015    4        1     2  45    6.0304   593.4    4.555      65.353
2015    4        1     2  51    6.0273   593.7    4.548      65.379
2015    4        1     2  56    6.0243   594.0    4.542      65.404
2015    4        1     3   2    6.0213   594.3    4.535      65.429
2015    4        1     3   8    6.0183   594.6    4.529      65.454
2015    4        1     3  13    6.0153   594.9    4.522      65.479
2015    4        1     3  19    6.0123   595.2    4.515      65.504
2015    4        1     3  25    6.0093   595.5    4.509      65.528
2015    4        1     3  31    6.0063   595.8    4.502      65.553
2015    4        1     3  36    6.0033   596.1    4.496      65.577
2015    4        1     3  42    6.0004   596.4    4.489      65.601
2015    4        1     3  48    5.9974   596.7    4.483      65.626
2015    4        1     3  53    5.9944   597.0    4.476      65.650
2015    4        1     3  59    5.9915   597.3    4.470      65.674
2015    4        1     4   5    5.9885   597.6    4.463      65.698
2015    4        1     4  11    5.9856   597.9    4.457      65.722
2015    4        1     4  16    5.9826   598.2    4.450      65.745
2015    4        1     4  22    5.9797   598.5    4.444      65.769
2015    4        1     4  28    5.9767   598.8    4.437      65.793
2015    4        1     4  34    5.9738   599.1    4.431      65.816
2015    4        1     4  39    5.9708   599.4    4.425      65.840
2015    4        1     4  45    5.9679   599.7    4.418      65.864
2015    4        1     4  51    5.9649   600.0    4.412      65.887
2015    4        1     4  56    5.9620   600.3    4.406      65.911
2015    4        1     5   2    5.9591   600.6    4.399      65.935
2015    4        1     5   8    5.9562   600.9    4.393      65.958
2015    4        1     5  14    5.9532   601.2    4.387      65.982
2015    4        1     5  19    5.9503   601.5    4.381      66.006
2015    4        1     5  25    5.9474   601.8    4.374      66.030
2015    4        1     5  31    5.9445   602.1    4.368      66.054
2015    4        1     5  36    5.9416   602.4    4.362      66.079
2015    4        1     5  42    5.9387   602.7    4.356      66.103
2015    4        1     5  48    5.9359   603.0    4.350      66.128
2015    4        1     5  54    5.9330   603.2    4.344      66.152
2015    4        1     5  59    5.9301   603.5    4.338      66.177
2015    4        1     6   5    5.9272   603.8    4.332      66.202
2015    4        1     6  11    5.9244   604.1    4.326      66.228
2015    4        1     6  17    5.9215   604.4    4.320      66.253
2015    4        1     6  22    5.9187   604.7    4.315      66.279
2015    4        1     6  28    5.9158   605.0    4.309      66.305
2015    4        1     6  34    5.9130   605.3    4.303      66.331
2015    4        1     6  39    5.9101   605.6    4.297      66.357
2015    4        1     6  45    5.9073   605.9    4.292      66.384
2015    4        1     6  51    5.9045   606.2    4.286      66.410
2015    4        1     6  57    5.9016   606.5    4.280      66.437
2015    4        1     7   2    5.8988   606.8    4.275      66.464
2015    4        1     7   8    5.8960   607.0    4.269      66.491
2015    4        1     7  14    5.8932   607.3    4.264      66.519
2015    4        1     7  19    5.8903   607.6    4.258      66.546
2015    4        1     7  25    5.8875   607.9    4.253      66.574
2015    4        1     7  31    5.8847   608.2    4.247      66.602
2015    4        1     7  37    5.8819   608.5    4.242      66.629
2015    4        1     7  42    5.8791   608.8    4.237      66.657
2015    4        1     7  48    5.8763   609.1    4.231      66.685
2015    4        1     7  54    5.8735   609.4    4.226      66.713
2015    4        1     7  59    5.8707   609.6    4.221      66.741
2015    4        1     8   5    5.8679   609.9    4.215      66.769
2015    4        1     8  11    5.8652   610.2    4.210      66.796
2015    4        1     8  17    5.8624   610.5    4.205      66.824
2015    4        1     8  22    5.8596   610.8    4.199      66.852
2015    4        1     8  28    5.8568   611.1    4.194      66.879
2015    4        1     8  34    5.8541   611.4    4.189      66.907
2015    4        1     8  40    5.8513   611.6    4.183      66.934
2015    4        1     8  45    5.8485   611.9    4.178      66.961
2015    4        1     8  51    5.8458   612.2    4.173      66.988
2015    4        1     8  57    5.8430   612.5    4.167      67.014
2015    4        1     9   2    5.8403   612.8    4.162      67.041
2015    4        1     9   8    5.8375   613.1    4.157      67.067
2015    4        1     9  14    5.8348   613.3    4.151      67.093
2015    4        1     9  20    5.8321   613.6    4.146      67.119
2015    4        1     9  25    5.8294   613.9    4.141      67.144
2015    4        1     9  31    5.8266   614.2    4.135      67.169
2015    4        1     9  37    5.8239   614.5    4.130      67.194
2015    4        1     9  42    5.8212   614.7    4.124      67.219
2015    4        1     9  48    5.8185   615.0    4.119      67.243
2015    4        1     9  54    5.8158   615.3    4.114      67.268
2015    4        1    10   0    5.8131   615.6    4.108      67.292
2015    4        1    10   5    5.8104   615.9    4.103      67.315
2015    4        1    10  11    5.8077   616.1    4.097      67.339
2015    4        1    10  17    5.8050   616.4    4.092      67.362
2015    4        1    10  22    5.8023   616.7    4.086      67.385
2015    4        1    10  28    5.7996   617.0    4.081      67.408
2015    4        1    10  34    5.7969   617.3    4.076      67.431
2015    4        1    10  40    5.7942   617.5    4.070      67.454
2015    4        1    10  45    5.7915   617.8    4.065      67.476
2015    4        1    10  51    5.7888   618.1    4.059      67.499
2015    4        1    10  57    5.7862   618.4    4.054      67.521
2015    4        1    11   3    5.7835   618.7    4.049      67.543
2015    4        1    11   8    5.7808   618.9    4.043      67.565
2015    4        1    11  14    5.7781   619.2    4.038      67.587
2015    4        1    11  20    5.7754   619.5    4.033      67.609
2015    4        1    11  25    5.7727   619.8    4.027      67.631
2015    4        1    11  31    5.7700   620.0    4.022      67.652
2015    4        1    11  37    5.7673   620.3    4.017      67.674
2015    4        1    11  43    5.7645   620.6    4.011      67.695
2015    4        1    11  48    5.7618   620.9    4.006      67.716
2015    4        1    11  54    5.7591   621.1    4.001      67.738
2015    4        1    12   0    5.7564   621.4    3.996      67.759
2015    4        1    12   5    5.7537   621.7    3.990      67.780
2015    4        1    12  11    5.7509   622.0    3.985      67.801
2015    4        1    12  17    5.7482   622.2    3.980      67.822
2015    4        1    12  23    5.7455   622.5    3.975      67.843
2015    4        1    12  28    5.7427   622.8    3.970      67.864
2015    4        1    12  34    5.7400   623.0    3.964      67.884
2015    4        1    12  40    5.7373   623.3    3.959      67.905
2015    4        1    12  46    5.7345   623.6    3.954      67.926
2015    4        1    12  51    5.7318   623.9    3.949      67.947
2015    4        1    12  57    5.7290   624.1    3.944      67.968
2015    4        1    13   3    5.7263   624.4    3.939      67.989
2015    4        1    13   8    5.7236   624.7    3.934      68.010
2015    4        1    13  14    5.7208   624.9    3.929      68.032
2015    4        1    13  20    5.7181   625.2    3.924      68.053
2015    4        1    13  26    5.7154   625.5    3.919      68.075
2015    4        1    13  31    5.7126   625.7    3.914      68.097
2015    4        1    13  37    5.7099   626.0    3.909      68.119
2015    4        1    13  43    5.7072   626.3    3.905      68.141
2015    4        1    13  48    5.7045   626.5    3.900      68.163
2015    4        1    13  54    5.7018   626.8    3.895      68.186
2015    4        1    14   0    5.6990   627.0    3.890      68.209
2015    4        1    14   6    5.6963   627.3    3.886      68.232
2015    4        1    14  11    5.6936   627.6    3.881      68.255
2015    4        1    14  17    5.6909   627.8    3.876      68.278
2015    4        1    14  23    5.6882   628.1    3.872      68.302
2015    4        1    14  28    5.6855   628.4    3.867      68.326
2015    4        1    14  34    5.6828   628.6    3.863      68.350
2015    4        1    14  40    5.6801   628.9    3.858      68.373
2015    4        1    14  46    5.6774   629.1    3.854      68.397
2015    4        1    14  51    5.6747   629.4    3.849      68.421
2015    4        1    14  57    5.6719   629.7    3.845      68.445
2015    4        1    15   3    5.6692   629.9    3.840      68.469
2015    4        1    15   9    5.6665   630.2    3.836      68.493
2015    4        1    15  14    5.6638   630.4    3.831      68.517
2015    4        1    15  20    5.6611   630.7    3.827      68.541
2015    4        1    15  26    5.6584   630.9    3.822      68.565
2015    4        1    15  31    5.6557   631.2    3.818      68.588
2015    4        1    15  37    5.6530   631.5    3.813      68.612
2015    4        1    15  43    5.6503   631.7    3.809      68.635
2015    4        1    15  49    5.6476   632.0    3.805      68.658
2015    4        1    15  54    5.6449   632.2    3.800      68.681
2015    4        1    16   0    5.6422   632.5    3.796      68.704
2015    4        1    16   6    5.6396   632.7    3.791      68.727
2015    4        1    16  11    5.6369   633.0    3.787      68.749
2015    4        1    16  17    5.6342   633.2    3.782      68.772
2015    4        1    16  23    5.6315   633.5    3.778      68.794
2015    4        1    16  29    5.6288   633.7    3.773      68.816
2015    4        1    16  34    5.6262   634.0    3.769      68.838
2015    4        1    16  40    5.6235   634.2    3.765      68.859
2015    4        1    16  46    5.6208   634.5    3.760      68.880
2015    4        1    16  51    5.6182   634.7    3.756      68.901
2015    4        1    16  57    5.6155   635.0    3.751      68.922
2015    4        1    17   3    5.6128   635.2    3.747      68.943
2015    4        1    17   9    5.6102   635.5    3.742      68.963
2015    4        1    17  14    5.6075   635.7    3.738      68.983
2015    4        1    17  20    5.6048   636.0    3.733      69.002
2015    4        1    17  26    5.6022   636.2    3.729      69.022
2015    4        1    17  31    5.5995   636.5    3.724      69.041
2015    4        1    17  37    5.5968   636.7    3.720      69.060
2015    4        1    17  43    5.5942   637.0    3.716      69.079
2015    4        1    17  49    5.5915   637.2    3.711      69.097
2015    4        1    17  54    5.5888   637.4    3.707      69.115
2015    4        1    18   0    5.5862   637.7    3.702      69.133
2015    4        1    18   6    5.5835   637.9    3.698      69.151
2015    4        1    18  12    5.5808   638.2    3.693      69.168
2015    4        1    18  17    5.5781   638.4    3.689      69.185
2015    4        1    18  23    5.5754   638.7    3.684      69.203
2015    4        1    18  29    5.5728   638.9    3.680      69.220
2015    4        1    18  34    5.5701   639.1    3.676      69.237
2015    4        1    18  40    5.5674   639.4    3.671      69.253
2015    4        1    18  46    5.5647   639.6    3.667      69.270
2015    4        1    18  52    5.5620   639.9    3.662      69.287
2015    4        1    18  57    5.5594   640.1    3.658      69.303
2015    4        1    19   3    5.5567   640.3    3.654      69.320
2015    4        1    19   9    5.5540   640.6    3.649      69.337
2015    4        1    19  14    5.5513   640.8    3.645      69.353
2015    4        1    19  20    5.5486   641.1    3.641      69.369
2015    4        1    19  26    5.5459   641.3    3.636      69.386
2015    4        1    19  32    5.5432   641.5    3.632      69.402
2015    4        1    19  37    5.5405   641.8    3.628      69.418
2015    4        1    19  43    5.5378   642.0    3.624      69.435
2015    4        1    19  49    5.5351   642.2    3.619      69.451
2015    4        1    19  55    5.5324   642.5    3.615      69.467
2015    4        1    20   0    5.5297   642.7    3.611      69.483
2015    4        1    20   6    5.5269   642.9    3.607      69.499
2015    4        1    20  12    5.5242   643.2    3.603      69.515
2015    4        1    20  17    5.5215   643.4    3.598      69.531
2015    4        1    20  23    5.5188   643.6    3.594      69.547
2015    4        1    20  29    5.5160   643.9    3.590      69.563
2015    4        1    20  35    5.5133   644.1    3.586      69.578
2015    4        1    20  40    5.5106   644.3    3.582      69.594
2015    4        1    20  46    5.5078   644.5    3.578      69.610
2015    4        1    20  52    5.5051   644.8    3.574      69.626
2015    4        1    20  57    5.5023   645.0    3.569      69.641
2015    4        1    21   3    5.4996   645.2    3.565      69.657
2015    4        1    21   9    5.4968   645.5    3.561      69.673
2015    4        1    21  15    5.4941   645.7    3.557      69.689
2015    4        1    21  20    5.4914   645.9    3.553      69.705
2015    4        1    21  26    5.4886   646.1    3.549      69.722
2015    4        1    21  32    5.4859   646.3    3.546      69.738
2015    4        1    21  38    5.4832   646.6    3.542      69.755
2015    4        1    21  43    5.4804   646.8    3.538      69.771
2015    4        1    21  49    5.4777   647.0    3.534      69.788
2015    4        1    21  55    5.4750   647.2    3.530      69.805
2015    4        1    22   0    5.4723   647.4    3.526      69.823
2015    4        1    22   6    5.4695   647.7    3.523      69.840
2015    4        1    22  12    5.4668   647.9    3.519      69.857
2015    4        1    22  18    5.4641   648.1    3.515      69.875
2015    4        1    22  23    5.4614   648.3    3.511      69.892
2015    4        1    22  29    5.4587   648.5    3.508      69.909
2015    4        1    22  35    5.4560   648.7    3.504      69.927
2015    4        1    22  40    5.4533   649.0    3.500      69.944
2015    4        1    22  46    5.4506   649.2    3.497      69.961
2015    4        1    22  52    5.4479   649.4    3.493      69.978
2015    4        1    22  58    5.4452   649.6    3.490      69.995
2015    4        1    23   3    5.4425   649.8    3.486      70.011
2015    4        1    23   9    5.4397   650.0    3.482      70.027
2015    4        1    23  15    5.4370   650.2    3.479      70.043
2015    4        1    23  20    5.4343   650.4    3.475      70.059
2015    4        1    23  26    5.4316   650.6    3.471      70.074
2015    4        1    23  32    5.4289   650.9    3.468      70.089
2015    4        1    23  38    5.4262   651.1    3.464      70.104
2015    4        1    23  43    5.4235   651.3    3.460      70.118
2015    4        1    23  49    5.4208   651.5    3.457      70.132
2015    4        1    23  55    5.4181   651.7    3.453      70.145
2015    4        2     0   0    5.4154   651.9    3.449      70.158
2015    4        2     0   6    5.4128   652.1    3.446      70.171
2015    4        2     0  12    5.4101   652.3    3.442      70.184
2015    4        2     0  18    5.4074   652.5    3.439      70.196
2015    4        2     0  23    5.4047   652.7    3.435      70.208
2015    4        2     0  29    5.4020   652.9    3.431      70.220
2015    4        2     0  35    5.3994   653.1    3.428      70.232
2015    4        2     0  40    5.3967   653.3    3.424      70.244
2015    4        2     0  46    5.3941   653.5    3.420      70.255
2015    4        2     0  52    5.3914   653.7    3.417      70.266
2015    4        2     0  58    5.3887   653.9    3.413      70.277
2015    4        2     1   3    5.3861   654.1    3.410      70.288
2015    4        2     1   9    5.3834   654.3    3.406      70.299
2015    4        2     1  15    5.3808   654.5    3.402      70.310
2015    4        2     1  21    5.3781   654.7    3.399      70.320
2015    4        2     1  26    5.3755   654.9    3.395      70.331
2015    4        2     1  32    5.3728   655.1    3.392      70.341
2015    4        2     1  38    5.3701   655.3    3.388      70.351
2015    4        2     1  43    5.3675   655.5    3.385      70.362
2015    4        2     1  49    5.3648   655.7    3.381      70.372
2015    4        2     1  55    5.3622   655.8    3.378      70.382
2015    4        2     2   1    5.3595   656.0    3.374      70.392
2015    4        2     2   6    5.3568   656.2    3.371      70.403
2015    4        2     2  12    5.3542   656.4    3.367      70.413
2015    4        2     2  18    5.3515   656.6    3.364      70.423
2015    4        2     2  23    5.3488   656.8    3.360      70.433
2015    4        2     2  29    5.3462   657.0    3.357      70.444
2015    4        2     2  35    5.3435   657.2    3.353      70.454
2015    4        2     2  41    5.3408   657.4    3.350      70.465
2015    4        2     2  46    5.3382   657.5    3.346      70.476
2015    4        2     2  52    5.3355   657.7    3.343      70.487
2015    4        2     2  58    5.3328   657.9    3.339      70.498
2015    4        2     3   4    5.3302   658.1    3.336      70.509
2015    4        2     3   9    5.3275   658.3    3.333      70.520
2015    4        2     3  15    5.3248   658.5    3.329      70.531
2015    4        2     3  21    5.3222   658.6    3.326      70.543
2015    4        2     3  26    5.3195   658.8    3.323      70.555
2015    4        2     3  32    5.3168   659.0    3.320      70.566
2015    4        2     3  38    5.3142   659.2    3.316      70.578
2015    4        2     3  44    5.3115   659.4    3.313      70.590
2015    4        2     3  49    5.3088   659.5    3.310      70.602
2015    4        2     3  55    5.3062   659.7    3.307      70.613
2015    4        2     4   1    5.3035   659.9    3.303      70.625
2015    4        2     4   6    5.3008   660.1    3.300      70.636
2015    4        2     4  12    5.2981   660.3    3.297      70.648
2015    4        2     4  18    5.2954   660.4    3.294      70.659
2015    4        2     4  24    5.2927   660.6    3.291      70.670
2015    4        2     4  29    5.2900   660.8    3.288      70.681
2015    4        2     4  35    5.2873   661.0    3.284      70.691
2015    4        2     4  41    5.2846   661.1    3.281      70.702
2015    4        2     4  47    5.2819   661.3    3.278      70.712
2015    4        2     4  52    5.2792   661.5    3.275      70.722
2015    4        2     4  58    5.2765   661.6    3.272      70.732
2015    4        2     5   4    5.2738   661.8    3.269      70.741
2015    4        2     5   9    5.2711   662.0    3.266      70.751
2015    4        2     5  15    5.2684   662.1    3.263      70.760
2015    4        2     5  21    5.2657   662.3    3.260      70.769
2015    4        2     5  27    5.2630   662.5    3.256      70.778
2015    4        2     5  32    5.2603   662.6    3.253      70.786
2015    4        2     5  38    5.2576   662.8    3.250      70.795
2015    4        2     5  44    5.2549   663.0    3.247      70.803
2015    4        2     5  49    5.2523   663.1    3.244      70.812
2015    4        2     5  55    5.2496   663.3    3.241      70.820
2015    4        2     6   1    5.2469   663.4    3.238      70.828
2015    4        2     6   7    5.2443   663.6    3.236      70.836
2015    4        2     6  12    5.2416   663.8    3.233      70.843
2015    4        2     6  18    5.2390   663.9    3.230      70.851
2015    4        2     6  24    5.2363   664.1    3.227      70.858
2015    4        2     6  29    5.2337   664.2    3.224      70.865
2015    4        2     6  35    5.2310   664.4    3.221      70.872
2015    4        2     6  41    5.2284   664.5    3.218      70.878
2015    4        2     6  47    5.2258   664.7    3.215      70.884
2015    4        2     6  52    5.2231   664.9    3.212      70.890
2015    4        2     6  58    5.2205   665.0    3.209      70.895
2015    4        2     7   4    5.2179   665.2    3.206      70.900
2015    4        2     7   9    5.2153   665.3    3.204      70.905
2015    4        2     7  15    5.2127   665.5    3.201      70.910
2015    4        2     7  21    5.2101   665.6    3.198      70.914
2015    4        2     7  27    5.2074   665.8    3.195      70.918
2015    4        2     7  32    5.2048   665.9    3.192      70.922
2015    4        2     7  38    5.2022   666.1    3.189      70.926
2015    4        2     7  44    5.1997   666.2    3.186      70.929
2015    4        2     7  50    5.1971   666.3    3.183      70.932
2015    4        2     7  55    5.1945   666.5    3.180      70.936
2015    4        2     8   1    5.1919   666.6    3.178      70.939
2015    4        2     8   7    5.1894   666.8    3.175      70.942
2015    4        2     8  12    5.1868   666.9    3.172      70.946
2015    4        2     8  18    5.1843   667.1    3.169      70.949
2015    4        2     8  24    5.1817   667.2    3.166      70.953
2015    4        2     8  30    5.1792   667.3    3.163      70.957
2015    4        2     8  35    5.1767   667.5    3.161      70.961
2015    4        2     8  41    5.1742   667.6    3.158      70.965
2015    4        2     8  47    5.1717   667.8    3.155      70.970
2015    4        2     8  52    5.1692   667.9    3.152      70.974
2015    4        2     8  58    5.1667   668.0    3.150      70.979
2015    4        2     9   4    5.1642   668.2    3.147      70.984
2015    4        2     9  10    5.1618   668.3    3.144      70.989
2015    4        2     9  15    5.1593   668.4    3.142      70.995
2015    4        2     9  21    5.1568   668.6    3.139      71.000
2015    4        2     9  27    5.1544   668.7    3.136      71.006
2015    4        2     9  32    5.1519   668.8    3.134      71.012
2015    4        2     9  38    5.1494   669.0    3.131      71.018
2015    4        2     9  44    5.1469   669.1    3.128      71.023
2015    4        2     9  50    5.1445   669.2    3.126      71.029
2015    4        2     9  55    5.1420   669.4    3.123      71.035
2015    4        2    10   1    5.1395   669.5    3.121      71.041
2015    4        2    10   7    5.1370   669.6    3.118      71.047
2015    4        2    10  13    5.1345   669.8    3.115      71.052
2015    4        2    10  18    5.1320   669.9    3.113      71.058
2015    4        2    10  24    5.1295   670.0    3.110      71.064
2015    4        2    10  30    5.1271   670.2    3.108      71.070
2015    4        2    10  35    5.1246   670.3    3.105      71.075
2015    4        2    10  41    5.1221   670.4    3.103      71.081
2015    4        2    10  47    5.1196   670.5    3.100      71.087
2015    4        2    10  53    5.1171   670.7    3.098      71.092
2015    4        2    10  58    5.1146   670.8    3.095      71.098
2015    4        2    11   4    5.1121   670.9    3.093      71.104
2015    4        2    11  10    5.1096   671.0    3.090      71.110
2015    4        2    11  15    5.1071   671.1    3.088      71.116
2015    4        2    11  21    5.1046   671.3    3.085      71.121
2015    4        2    11  27    5.1022   671.4    3.083      71.127
2015    4        2    11  33    5.0997   671.5    3.081      71.133
2015    4        2    11  38    5.0972   671.6    3.078      71.138
2015    4        2    11  44    5.0947   671.7    3.076      71.144
2015    4        2    11  50    5.0922   671.8    3.074      71.149
2015    4        2    11  56    5.0898   672.0    3.072      71.154
2015    4        2    12   1    5.0873   672.1    3.069      71.159
2015    4        2    12   7    5.0848   672.2    3.067      71.164
2015    4        2    12  13    5.0823   672.3    3.065      71.168
2015    4        2    12  18    5.0798   672.4    3.062      71.172
2015    4        2    12  24    5.0774   672.5    3.060      71.175
2015    4        2    12  30    5.0749   672.6    3.058      71.179
2015    4        2    12  36    5.0724   672.7    3.056      71.181
2015    4        2    12  41    5.0699   672.8    3.053      71.183
2015    4        2    12  47    5.0674   672.9    3.051      71.185
2015    4        2    12  53    5.0649   673.1    3.049      71.186
2015    4        2    12  58    5.0625   673.2    3.047      71.187
2015    4        2    13   4    5.0600   673.3    3.044      71.187
2015    4        2    13  10    5.0575   673.4    3.042      71.187
2015    4        2    13  16    5.0551   673.5    3.040      71.187
2015    4        2    13  21    5.0526   673.6    3.038      71.186
2015    4        2    13  27    5.0501   673.7    3.035      71.185
2015    4        2    13  33    5.0477   673.8    3.033      71.184
2015    4        2    13  38    5.0453   673.9    3.031      71.182
2015    4        2    13  44    5.0428   674.0    3.028      71.180
2015    4        2    13  50    5.0404   674.1    3.026      71.178
2015    4        2    13  56    5.0380   674.1    3.024      71.176
2015    4        2    14   1    5.0357   674.2    3.022      71.173
2015    4        2    14   7    5.0333   674.3    3.019      71.171
2015    4        2    14  13    5.0309   674.4    3.017      71.169
2015    4        2    14  18    5.0286   674.5    3.015      71.166
2015    4        2    14  24    5.0263   674.6    3.013      71.164
2015    4        2    14  30    5.0239   674.7    3.010      71.161
2015    4        2    14  36    5.0216   674.8    3.008      71.159
2015    4        2    14  41    5.0193   674.9    3.006      71.156
2015    4        2    14  47    5.0171   675.0    3.004      71.154
2015    4        2    14  53    5.0148   675.1    3.002      71.151
2015    4        2    14  58    5.0125   675.2    2.999      71.149
2015    4        2    15   4    5.0103   675.2    2.997      71.146
2015    4        2    15  10    5.0080   675.3    2.995      71.144
2015    4        2    15  16    5.0058   675.4    2.993      71.141
2015    4        2    15  21    5.0036   675.5    2.991      71.139
2015    4        2    15  27    5.0013   675.6    2.989      71.136
2015    4        2    15  33    4.9991   675.7    2.986      71.134
2015    4        2    15  39    4.9969   675.8    2.984      71.131
2015    4        2    15  44    4.9947   675.8    2.982      71.129
2015    4        2    15  50    4.9925   675.9    2.980      71.126
2015    4        2    15  56    4.9903   676.0    2.978      71.124
2015    4        2    16   1    4.9882   676.1    2.976      71.122
2015    4        2    16   7    4.9860   676.2    2.974      71.120
2015    4        2    16  13    4.9838   676.3    2.972      71.119
2015    4        2    16  19    4.9817   676.3    2.970      71.117
2015    4        2    16  24    4.9795   676.4    2.968      71.116
2015    4        2    16  30    4.9774   676.5    2.966      71.115
2015    4        2    16  36    4.9752   676.6    2.964      71.114
2015    4        2    16  41    4.9731   676.6    2.962      71.114
2015    4        2    16  47    4.9710   676.7    2.960      71.114
2015    4        2    16  53    4.9688   676.8    2.958      71.114
2015    4        2    16  59    4.9667   676.9    2.956      71.115
2015    4        2    17   4    4.9646   677.0    2.954      71.116
2015    4        2    17  10    4.9625   677.0    2.952      71.117
2015    4        2    17  16    4.9604   677.1    2.950      71.119
2015    4        2    17  21    4.9583   677.2    2.949      71.120
2015    4        2    17  27    4.9562   677.3    2.947      71.122
2015    4        2    17  33    4.9540   677.3    2.945      71.124
2015    4        2    17  39    4.9519   677.4    2.944      71.126
2015    4        2    17  44    4.9498   677.5    2.942      71.128
2015    4        2    17  50    4.9477   677.6    2.940      71.131
2015    4        2    17  56    4.9456   677.6    2.939      71.133
2015    4        2    18   1    4.9435   677.7    2.937      71.135
2015    4        2    18   7    4.9413   677.8    2.935      71.137
2015    4        2    18  13    4.9392   677.8    2.934      71.139
2015    4        2    18  19    4.9371   677.9    2.932      71.141
2015    4        2    18  24    4.9349   678.0    2.931      71.142
2015    4        2    18  30    4.9328   678.0    2.929      71.143
2015    4        2    18  36    4.9307   678.1    2.927      71.144
2015    4        2    18  42    4.9285   678.2    2.926      71.145
2015    4        2    18  47    4.9264   678.2    2.924      71.145
2015    4        2    18  53    4.9242   678.3    2.923      71.145
2015    4        2    18  59    4.9221   678.4    2.921      71.145
2015    4        2    19   4    4.9200   678.4    2.920      71.144
2015    4        2    19  10    4.9178   678.5    2.918      71.143
2015    4        2    19  16    4.9157   678.5    2.916      71.142
2015    4        2    19  22    4.9136   678.6    2.915      71.141
2015    4        2    19  27    4.9114   678.7    2.913      71.139
2015    4        2    19  33    4.9093   678.7    2.912      71.137
2015    4        2    19  39    4.9072   678.8    2.910      71.134
2015    4        2    19  44    4.9051   678.8    2.909      71.132
2015    4        2    19  50    4.9030   678.9    2.907      71.129
2015    4        2    19  56    4.9009   678.9    2.906      71.125
2015    4        2    20   2    4.8988   679.0    2.904      71.122
2015    4        2    20   7    4.8967   679.1    2.902      71.118
2015    4        2    20  13    4.8946   679.1    2.901      71.114
2015    4        2    20  19    4.8925   679.2    2.899      71.110
2015    4        2    20  24    4.8905   679.2    2.898      71.105
2015    4        2    20  30    4.8884   679.3    2.896      71.101
2015    4        2    20  36    4.8864   679.3    2.895      71.096
2015    4        2    20  42    4.8844   679.3    2.893      71.091
2015    4        2    20  47    4.8824   679.4    2.892      71.085
2015    4        2    20  53    4.8803   679.4    2.890      71.080
2015    4        2    20  59    4.8783   679.5    2.889      71.074
2015    4        2    21   4    4.8764   679.5    2.887      71.068
2015    4        2    21  10    4.8744   679.6    2.886      71.062
2015    4        2    21  16    4.8724   679.6    2.884      71.056
2015    4        2    21  22    4.8705   679.7    2.882      71.049
2015    4        2    21  27    4.8685   679.7    2.881      71.043
2015    4        2    21  33    4.8666   679.7    2.879      71.036
2015    4        2    21  39    4.8647   679.8    2.878      71.029
2015    4        2    21  44    4.8627   679.8    2.876      71.022
2015    4        2    21  50    4.8609   679.9    2.875      71.015
2015    4        2    21  56    4.8590   679.9    2.873      71.008
2015    4        2    22   2    4.8571   679.9    2.871      71.000
2015    4        2    22   7    4.8552   680.0    2.870      70.993
2015    4        2    22  13    4.8534   680.0    2.868      70.986
2015    4        2    22  19    4.8515   680.1    2.867      70.979
2015    4        2    22  24    4.8497   680.1    2.865      70.972
2015    4        2    22  30    4.8479   680.1    2.864      70.965
2015    4        2    22  36    4.8461   680.2    2.862      70.958
2015    4        2    22  42    4.8443   680.2    2.860      70.951
2015    4        2    22  47    4.8425   680.2    2.859      70.944
2015    4        2    22  53    4.8408   680.3    2.857      70.938
2015    4        2    22  59    4.8390   680.3    2.856      70.931
2015    4        2    23   5    4.8372   680.3    2.854      70.925
2015    4        2    23  10    4.8355   680.4    2.853      70.919
2015    4        2    23  16    4.8337   680.4    2.852      70.914
2015    4        2    23  22    4.8320   680.4    2.850      70.908
2015    4        2    23  27    4.8303   680.5    2.849      70.903
2015    4        2    23  33    4.8285   680.5    2.847      70.898
2015    4        2    23  39    4.8268   680.6    2.846      70.893
2015    4        2    23  45    4.8251   680.6    2.845      70.888
2015    4        2    23  50    4.8234   680.6    2.843      70.884
2015    4        2    23  56    4.8216   680.7    2.842      70.879
2015    4        3     0   2    4.8199   680.7    2.841      70.875
2015    4        3     0   7    4.8182   680.7    2.840      70.871
2015    4        3     0  13    4.8165   680.7    2.838      70.868
2015    4        3     0  19    4.8148   680.8    2.837      70.864
2015    4        3     0  25    4.8130   680.8    2.836      70.861
2015    4        3     0  30    4.8113   680.8    2.835      70.857
2015    4        3     0  36    4.8096   680.9    2.834      70.854
2015    4        3     0  42    4.8079   680.9    2.832      70.851
2015    4        3     0  48    4.8062   680.9    2.831      70.848
2015    4        3     0  53    4.8044   681.0    2.830      70.845
2015    4        3     0  59    4.8027   681.0    2.829      70.842
2015    4        3     1   5    4.8010   681.0    2.828      70.839
2015    4        3     1  10    4.7992   681.0    2.827      70.837
2015    4        3     1  16    4.7975   681.1    2.826      70.834
2015    4        3     1  22    4.7958   681.1    2.825      70.831
2015    4        3     1  28    4.7940   681.1    2.824      70.828
2015    4        3     1  33    4.7923   681.2    2.823      70.826
2015    4        3     1  39    4.7906   681.2    2.822      70.823
2015    4        3     1  45    4.7888   681.2    2.821      70.820
2015    4        3     1  50    4.7871   681.2    2.820      70.817
2015    4        3     1  56    4.7854   681.3    2.819      70.814
2015    4        3     2   2    4.7837   681.3    2.818      70.810
2015    4        3     2   8    4.7819   681.3    2.817      70.807
2015    4        3     2  13    4.7802   681.3    2.816      70.804
2015    4        3     2  19    4.7785   681.3    2.816      70.800
2015    4        3     2  25    4.7768   681.4    2.815      70.796
2015    4        3     2  31    4.7751   681.4    2.814      70.792
2015    4        3     2  36    4.7734   681.4    2.813      70.788
2015    4        3     2  42    4.7717   681.4    2.812      70.784
2015    4        3     2  48    4.7701   681.4    2.811      70.780
2015    4        3     2  53    4.7684   681.5    2.810      70.775
2015    4        3     2  59    4.7667   681.5    2.809      70.770
2015    4        3     3   5    4.7651   681.5    2.808      70.765
2015    4        3     3  11    4.7634   681.5    2.807      70.759
2015    4        3     3  16    4.7618   681.5    2.806      70.753
2015    4        3     3  22    4.7601   681.5    2.806      70.747
2015    4        3     3  28    4.7585   681.6    2.805      70.741
2015    4        3     3  33    4.7569   681.6    2.804      70.735
2015    4        3     3  39    4.7553   681.6    2.803      70.728
2015    4        3     3  45    4.7537   681.6    2.802      70.721
2015    4        3     3  51    4.7521   681.6    2.801      70.713
2015    4        3     3  56    4.7505   681.6    2.800      70.706
2015    4        3     4   2    4.7489   681.6    2.799      70.698
2015    4        3     4   8    4.7473   681.6    2.798      70.689
2015    4        3     4  14    4.7457   681.6    2.797      70.681
2015    4        3     4  19    4.7442   681.7    2.796      70.672
2015    4        3     4  25    4.7426   681.7    2.795      70.663
2015    4        3     4  31    4.7411   681.7    2.794      70.654
2015    4        3     4  36    4.7395   681.7    2.793      70.645
2015    4        3     4  42    4.7380   681.7    2.792      70.635
2015    4        3     4  48    4.7365   681.7    2.791      70.626
2015    4        3     4  54    4.7349   681.7    2.790      70.616
2015    4        3     4  59    4.7334   681.7    2.789      70.607
2015    4        3     5   5    4.7319   681.7    2.788      70.597
2015    4        3     5  11    4.7304   681.7    2.787      70.587
2015    4        3     5  16    4.7289   681.7    2.786      70.577
2015    4        3     5  22    4.7274   681.7    2.785      70.568
2015    4        3     5  28    4.7259   681.7    2.784      70.558
2015    4        3     5  34    4.7245   681.7    2.783      70.548
2015    4        3     5  39    4.7230   681.7    2.782      70.539
2015    4        3     5  45    4.7215   681.7    2.781      70.529
2015    4        3     5  51    4.7201   681.7    2.780      70.520
2015    4        3     5  56    4.7186   681.7    2.779      70.510
2015    4        3     6   2    4.7172   681.7    2.778      70.501
2015    4        3     6   8    4.7157   681.7    2.777      70.492
2015    4        3     6  14    4.7143   681.7    2.776      70.483
2015    4        3     6  19    4.7129   681.7    2.775      70.474
2015    4        3     6  25    4.7114   681.7    2.774      70.466
2015    4        3     6  31    4.7100   681.7    2.774      70.457
2015    4        3     6  36    4.7086   681.7    2.773      70.449
2015    4        3     6  42    4.7072   681.7    2.772      70.441
2015    4        3     6  48    4.7058   681.7    2.771      70.433
2015    4        3     6  54    4.7044   681.7    2.770      70.425
2015    4        3     6  59    4.7030   681.7    2.769      70.418
2015    4        3     7   5    4.7016   681.7    2.769      70.410
2015    4        3     7  11    4.7001   681.7    2.768      70.403
2015    4        3     7  17    4.6987   681.7    2.767      70.395
2015    4        3     7  22    4.6973   681.7    2.766      70.388
2015    4        3     7  28    4.6959   681.7    2.766      70.381
2015    4        3     7  34    4.6945   681.7    2.765      70.374
2015    4        3     7  39    4.6931   681.7    2.764      70.367
2015    4        3     7  45    4.6917   681.7    2.763      70.360
2015    4        3     7  51    4.6902   681.7    2.763      70.353
2015    4        3     7  57    4.6888   681.7    2.762      70.346
2015    4        3     8   2    4.6874   681.7    2.761      70.340
2015    4        3     8   8    4.6860   681.7    2.761      70.333
2015    4        3     8  14    4.6846   681.7    2.760      70.327
2015    4        3     8  19    4.6831   681.6    2.759      70.320
2015    4        3     8  25    4.6817   681.6    2.759      70.314
2015    4        3     8  31    4.6803   681.6    2.758      70.308
2015    4        3     8  37    4.6789   681.6    2.757      70.302
2015    4        3     8  42    4.6775   681.6    2.757      70.296
2015    4        3     8  48    4.6761   681.6    2.756      70.290
2015    4        3     8  54    4.6746   681.6    2.756      70.284
2015    4        3     9   0    4.6732   681.6    2.755      70.279
2015    4        3     9   5    4.6718   681.6    2.754      70.273
2015    4        3     9  11    4.6704   681.6    2.754      70.268
2015    4        3     9  17    4.6691   681.6    2.753      70.263
2015    4        3     9  22    4.6677   681.6    2.753      70.257
2015    4        3     9  28    4.6663   681.6    2.752      70.252
2015    4        3     9  34    4.6649   681.6    2.752      70.247
2015    4        3     9  40    4.6635   681.5    2.751      70.242
2015    4        3     9  45    4.6622   681.5    2.751      70.237
2015    4        3     9  51    4.6608   681.5    2.750      70.232
2015    4        3     9  57    4.6595   681.5    2.750      70.227
2015    4        3    10   3    4.6581   681.5    2.749      70.222
2015    4        3    10   8    4.6568   681.5    2.749      70.217
2015    4        3    10  14    4.6554   681.5    2.748      70.211
2015    4        3    10  20    4.6541   681.5    2.748      70.206
2015    4        3    10  25    4.6527   681.5    2.747      70.200
2015    4        3    10  31    4.6514   681.5    2.747      70.194
2015    4        3    10  37    4.6500   681.5    2.746      70.187
2015    4        3    10  43    4.6487   681.5    2.746      70.180
2015    4        3    10  48    4.6473   681.5    2.745      70.173
2015    4        3    10  54    4.6460   681.5    2.745      70.165
2015    4        3    11   0    4.6446   681.4    2.744      70.157
2015    4        3    11   5    4.6433   681.4    2.744      70.148
2015    4        3    11  11    4.6419   681.4    2.743      70.139
2015    4        3    11  17    4.6405   681.4    2.742      70.129
2015    4        3    11  23    4.6392   681.4    2.742      70.118
2015    4        3    11  28    4.6378   681.4    2.741      70.107
2015    4        3    11  34    4.6365   681.4    2.740      70.096
2015    4        3    11  40    4.6351   681.4    2.740      70.083
2015    4        3    11  45    4.6337   681.3    2.739      70.071
2015    4        3    11  51    4.6324   681.3    2.738      70.058
2015    4        3    11  57    4.6310   681.3    2.737      70.044
2015    4        3    12   3    4.6296   681.3    2.737      70.031
2015    4        3    12   8    4.6283   681.3    2.736      70.017
2015    4        3    12  14    4.6269   681.3    2.735      70.003
2015    4        3    12  20    4.6256   681.2    2.734      69.989
2015    4        3    12  25    4.6242   681.2    2.734      69.974
2015    4        3    12  31    4.6229   681.2    2.733      69.960
2015    4        3    12  37    4.6215   681.2    2.732      69.946
2015    4        3    12  43    4.6202   681.2    2.731      69.931
2015    4        3    12  48    4.6189   681.1    2.731      69.917
2015    4        3    12  54    4.6175   681.1    2.730      69.903
2015    4        3    13   0    4.6162   681.1    2.729      69.890
2015    4        3    13   6    4.6149   681.1    2.729      69.876
2015    4        3    13  11    4.6136   681.0    2.728      69.863
2015    4        3    13  17    4.6123   681.0    2.727      69.851
2015    4        3    13  23    4.6110   681.0    2.727      69.838
2015    4        3    13  28    4.6097   680.9    2.726      69.827
2015    4        3    13  34    4.6084   680.9    2.726      69.815
2015    4        3    13  40    4.6071   680.9    2.725      69.804
2015    4        3    13  46    4.6058   680.9    2.725      69.794
2015    4        3    13  51    4.6046   680.8    2.724      69.785
2015    4        3    13  57    4.6033   680.8    2.724      69.775
2015    4        3    14   3    4.6020   680.8    2.724      69.767
2015    4        3    14   8    4.6008   680.7    2.723      69.759
2015    4        3    14  14    4.5995   680.7    2.723      69.751
2015    4        3    14  20    4.5982   680.7    2.723      69.743
2015    4        3    14  26    4.5970   680.7    2.722      69.736
2015    4        3    14  31    4.5957   680.6    2.722      69.729
2015    4        3    14  37    4.5944   680.6    2.722      69.723
2015    4        3    14  43    4.5932   680.6    2.721      69.716
2015    4        3    14  48    4.5919   680.5    2.721      69.709
2015    4        3    14  54    4.5906   680.5    2.721      69.703
2015    4        3    15   0    4.5894   680.5    2.721      69.696
2015    4        3    15   6    4.5881   680.4    2.720      69.689
2015    4        3    15  11    4.5868   680.4    2.720      69.682
2015    4        3    15  17    4.5855   680.4    2.720      69.675
2015    4        3    15  23    4.5842   680.3    2.719      69.668
2015    4        3    15  29    4.5829   680.3    2.719      69.660
2015    4        3    15  34    4.5816   680.3    2.719      69.653
2015    4        3    15  40    4.5803   680.2    2.718      69.645
2015    4        3    15  46    4.5790   680.2    2.718      69.637
2015    4        3    15  51    4.5777   680.2    2.718      69.629
2015    4        3    15  57    4.5764   680.1    2.717      69.620
2015    4        3    16   3    4.5751   680.1    2.717      69.612
2015    4        3    16   9    4.5738   680.1    2.716      69.604
2015    4        3    16  14    4.5725   680.1    2.716      69.595
2015    4        3    16  20    4.5712   680.0    2.716      69.587
2015    4        3    16  26    4.5699   680.0    2.715      69.579
2015    4        3    16  31    4.5686   680.0    2.715      69.570
2015    4        3    16  37    4.5673   679.9    2.714      69.561
2015    4        3    16  43    4.5660   679.9    2.714      69.553
2015    4        3    16  49    4.5647   679.9    2.713      69.544
2015    4        3    16  54    4.5634   679.8    2.713      69.535
2015    4        3    17   0    4.5621   679.8    2.713      69.526
2015    4        3    17   6    4.5608   679.8    2.712      69.516
2015    4        3    17  12    4.5595   679.7    2.712      69.507
2015    4        3    17  17    4.5582   679.7    2.711      69.497
2015    4        3    17  23    4.5568   679.7    2.711      69.487
2015    4        3    17  29    4.5555   679.7    2.710      69.476
2015    4        3    17  34    4.5542   679.6    2.710      69.465
2015    4        3    17  40    4.5528   679.6    2.709      69.453
2015    4        3    17  46    4.5515   679.6    2.709      69.441
2015    4        3    17  52    4.5501   679.5    2.708      69.429
2015    4        3    17  57    4.5488   679.5    2.708      69.416
2015    4        3    18   3    4.5474   679.5    2.707      69.402
2015    4        3    18   9    4.5460   679.4    2.706      69.388
2015    4        3    18  14    4.5447   679.4    2.706      69.374
2015    4        3    18  20    4.5433   679.4    2.705      69.358
2015    4        3    18  26    4.5419   679.3    2.705      69.343
2015    4        3    18  32    4.5406   679.3    2.704      69.327
2015    4        3    18  37    4.5392   679.3    2.703      69.310
2015    4        3    18  43    4.5378   679.2    2.703      69.293
2015    4        3    18  49    4.5364   679.2    2.702      69.276
2015    4        3    18  54    4.5350   679.2    2.701      69.259
2015    4        3    19   0    4.5337   679.1    2.701      69.241
2015    4        3    19   6    4.5323   679.1    2.700      69.223
2015    4        3    19  12    4.5309   679.1    2.699      69.205
2015    4        3    19  17    4.5296   679.0    2.699      69.187
2015    4        3    19  23    4.5282   679.0    2.698      69.169
2015    4        3    19  29    4.5268   678.9    2.698      69.151
2015    4        3    19  34    4.5255   678.9    2.697      69.134
2015    4        3    19  40    4.5241   678.8    2.697      69.116
2015    4        3    19  46    4.5228   678.8    2.696      69.099
2015    4        3    19  52    4.5215   678.8    2.696      69.083
2015    4        3    19  57    4.5201   678.7    2.695      69.067
2015    4        3    20   3    4.5188   678.7    2.695      69.052
2015    4        3    20   9    4.5175   678.6    2.694      69.037
2015    4        3    20  15    4.5162   678.6    2.694      69.023
2015    4        3    20  20    4.5149   678.5    2.694      69.009
2015    4        3    20  26    4.5136   678.5    2.694      68.996
2015    4        3    20  32    4.5123   678.4    2.693      68.984
2015    4        3    20  37    4.5110   678.4    2.693      68.973
2015    4        3    20  43    4.5097   678.4    2.693      68.962
2015    4        3    20  49    4.5084   678.3    2.693      68.952
2015    4        3    20  55    4.5070   678.3    2.693      68.942
2015    4        3    21   0    4.5057   678.2    2.693      68.933
2015    4        3    21   6    4.5044   678.2    2.693      68.925
2015    4        3    21  12    4.5030   678.1    2.693      68.917
2015    4        3    21  17    4.5017   678.1    2.692      68.909
2015    4        3    21  23    4.5004   678.0    2.692      68.901
2015    4        3    21  29    4.4990   678.0    2.692      68.894
2015    4        3    21  35    4.4977   677.9    2.692      68.887
2015    4        3    21  40    4.4963   677.9    2.692      68.879
2015    4        3    21  46    4.4949   677.8    2.692      68.872
2015    4        3    21  52    4.4936   677.8    2.692      68.864
2015    4        3    21  57    4.4922   677.7    2.692      68.856
2015    4        3    22   3    4.4908   677.7    2.691      68.848
2015    4        3    22   9    4.4894   677.6    2.691      68.839
2015    4        3    22  15    4.4880   677.5    2.691      68.830
2015    4        3    22  20    4.4866   677.5    2.691      68.820
2015    4        3    22  26    4.4852   677.4    2.690      68.809
2015    4        3    22  32    4.4838   677.4    2.690      68.797
2015    4        3    22  38    4.4823   677.3    2.690      68.785
2015    4        3    22  43    4.4809   677.3    2.689      68.772
2015    4        3    22  49    4.4795   677.2    2.689      68.758
2015    4        3    22  55    4.4780   677.2    2.689      68.743
2015    4        3    23   0    4.4765   677.1    2.688      68.728
2015    4        3    23   6    4.4751   677.0    2.688      68.712
2015    4        3    23  12    4.4736   677.0    2.687      68.695
2015    4        3    23  18    4.4721   676.9    2.687      68.677
2015    4        3    23  23    4.4706   676.9    2.686      68.658
2015    4        3    23  29    4.4691   676.8    2.685      68.639
2015    4        3    23  35    4.4676   676.7    2.685      68.619
2015    4        3    23  40    4.4661   676.7    2.684      68.599
2015    4        3    23  46    4.4646   676.6    2.683      68.578
2015    4        3    23  52    4.4631   676.5    2.683      68.556
2015    4        3    23  58    4.4616   676.5    2.682      68.534
2015    4        4     0   3    4.4600   676.4    2.681      68.512
2015    4        4     0   9    4.4585   676.3    2.681      68.489
2015    4        4     0  15    4.4570   676.3    2.680      68.466
2015    4        4     0  21    4.4555   676.2    2.679      68.443
2015    4        4     0  26    4.4540   676.1    2.678      68.420
2015    4        4     0  32    4.4525   676.0    2.678      68.396
2015    4        4     0  38    4.4510   676.0    2.677      68.373
2015    4        4     0  43    4.4495   675.9    2.676      68.350
2015    4        4     0  49    4.4481   675.8    2.676      68.327
2015    4        4     0  55    4.4466   675.7    2.675      68.304
2015    4        4     1   1    4.4452   675.7    2.675      68.281
2015    4        4     1   6    4.4437   675.6    2.674      68.259
2015    4        4     1  12    4.4423   675.5    2.674      68.237
2015    4        4     1  18    4.4409   675.4    2.673      68.216
2015    4        4     1  23    4.4395   675.4    2.673      68.194
2015    4        4     1  29    4.4381   675.3    2.672      68.173
2015    4        4     1  35    4.4366   675.2    2.672      68.152
2015    4        4     1  41    4.4352   675.1    2.671      68.132
2015    4        4     1  46    4.4338   675.1    2.671      68.111
2015    4        4     1  52    4.4324   675.0    2.671      68.091
2015    4        4     1  58    4.4309   674.9    2.670      68.071
2015    4        4     2   3    4.4295   674.8    2.670      68.051
2015    4        4     2   9    4.4280   674.8    2.670      68.031
2015    4        4     2  15    4.4266   674.7    2.670      68.011
2015    4        4     2  21    4.4251   674.6    2.669      67.992
2015    4        4     2  26    4.4236   674.5    2.669      67.972
2015    4        4     2  32    4.4221   674.5    2.669      67.953
2015    4        4     2  38    4.4206   674.4    2.669      67.934
2015    4        4     2  44    4.4191   674.3    2.668      67.915
2015    4        4     2  49    4.4177   674.2    2.668      67.897
2015    4        4     2  55    4.4162   674.2    2.668      67.878
2015    4        4     3   1    4.4147   674.1    2.668      67.860
2015    4        4     3   6    4.4132   674.0    2.668      67.842
2015    4        4     3  12    4.4117   674.0    2.667      67.824
2015    4        4     3  18    4.4102   673.9    2.667      67.807
2015    4        4     3  24    4.4086   673.8    2.667      67.790
2015    4        4     3  29    4.4071   673.7    2.667      67.773
2015    4        4     3  35    4.4056   673.7    2.667      67.756
2015    4        4     3  41    4.4040   673.6    2.666      67.739
2015    4        4     3  46    4.4025   673.5    2.666      67.722
2015    4        4     3  52    4.4009   673.5    2.666      67.706
2015    4        4     3  58    4.3993   673.4    2.666      67.689
2015    4        4     4   4    4.3977   673.3    2.666      67.672
2015    4        4     4   9    4.3960   673.2    2.665      67.656
2015    4        4     4  15    4.3944   673.2    2.665      67.638
2015    4        4     4  21    4.3927   673.1    2.665      67.621
2015    4        4     4  26    4.3910   673.0    2.664      67.604
2015    4        4     4  32    4.3893   672.9    2.664      67.586
2015    4        4     4  38    4.3876   672.8    2.663      67.567
2015    4        4     4  44    4.3859   672.8    2.663      67.548
2015    4        4     4  49    4.3842   672.7    2.662      67.529
2015    4        4     4  55    4.3824   672.6    2.662      67.509
2015    4        4     5   1    4.3807   672.5    2.661      67.488
2015    4        4     5   6    4.3790   672.4    2.661      67.466
2015    4        4     5  12    4.3772   672.3    2.660      67.444
2015    4        4     5  18    4.3755   672.2    2.660      67.422
2015    4        4     5  24    4.3738   672.1    2.659      67.399
2015    4        4     5  29    4.3720   672.0    2.658      67.375
2015    4        4     5  35    4.3703   672.0    2.658      67.351
2015    4        4     5  41    4.3686   671.9    2.657      67.327
2015    4        4     5  47    4.3669   671.8    2.657      67.302
2015    4        4     5  52    4.3652   671.7    2.656      67.277
2015    4        4     5  58    4.3635   671.6    2.656      67.252
2015    4        4     6   4    4.3618   671.5    2.655      67.227
2015    4        4     6   9    4.3601   671.4    2.655      67.201
2015    4        4     6  15    4.3584   671.3    2.654      67.176
2015    4        4     6  21    4.3567   671.2    2.654      67.149
2015    4        4     6  27    4.3550   671.1    2.653      67.123
2015    4        4     6  32    4.3534   671.0    2.653      67.097
2015    4        4     6  38    4.3517   670.9    2.653      67.070
2015    4        4     6  44    4.3501   670.8    2.652      67.043
2015    4        4     6  49    4.3484   670.7    2.652      67.016
2015    4        4     6  55    4.3468   670.6    2.652      66.989
2015    4        4     7   1    4.3451   670.4    2.651      66.962
2015    4        4     7   7    4.3435   670.3    2.651      66.935
2015    4        4     7  12    4.3419   670.2    2.651      66.907
2015    4        4     7  18    4.3402   670.1    2.651      66.880
2015    4        4     7  24    4.3386   670.0    2.650      66.853
2015    4        4     7  30    4.3370   669.9    2.650      66.825
2015    4        4     7  35    4.3354   669.8    2.650      66.799
2015    4        4     7  41    4.3338   669.7    2.650      66.772
2015    4        4     7  47    4.3322   669.5    2.650      66.746
2015    4        4     7  52    4.3306   669.4    2.650      66.720
2015    4        4     7  58    4.3290   669.3    2.650      66.694
2015    4        4     8   4    4.3274   669.2    2.649      66.669
2015    4        4     8  10    4.3258   669.1    2.649      66.644
2015    4        4     8  15    4.3243   669.0    2.649      66.619
2015    4        4     8  21    4.3227   668.8    2.649      66.595
2015    4        4     8  27    4.3211   668.7    2.649      66.571
2015    4        4     8  32    4.3196   668.6    2.649      66.548
2015    4        4     8  38    4.3180   668.5    2.649      66.525
2015    4        4     8  44    4.3164   668.4    2.649      66.502
2015    4        4     8  50    4.3149   668.3    2.649      66.480
2015    4        4     8  55    4.3133   668.1    2.649      66.457
2015    4        4     9   1    4.3117   668.0    2.649      66.435
2015    4        4     9   7    4.3101   667.9    2.649      66.413
2015    4        4     9  12    4.3085   667.8    2.649      66.391
2015    4        4     9  18    4.3069   667.7    2.649      66.369
2015    4        4     9  24    4.3052   667.6    2.649      66.347
2015    4        4     9  30    4.3036   667.5    2.649      66.324
2015    4        4     9  35    4.3019   667.3    2.649      66.301
2015    4        4     9  41    4.3003   667.2    2.649      66.278
2015    4        4     9  47    4.2986   667.1    2.648      66.254
2015    4        4     9  52    4.2969   667.0    2.648      66.230
2015    4        4     9  58    4.2951   666.9    2.648      66.205
2015    4        4    10   4    4.2934   666.8    2.648      66.179
2015    4        4    10  10    4.2917   666.6    2.647      66.152
2015    4        4    10  15    4.2899   666.5    2.647      66.124
2015    4        4    10  21    4.2881   666.4    2.646      66.095
2015    4        4    10  27    4.2864   666.3    2.646      66.066
2015    4        4    10  32    4.2846   666.2    2.645      66.036
2015    4        4    10  38    4.2828   666.0    2.645      66.005
2015    4        4    10  44    4.2809   665.9    2.644      65.973
2015    4        4    10  50    4.2791   665.8    2.643      65.941
2015    4        4    10  55    4.2773   665.7    2.643      65.908
2015    4        4    11   1    4.2754   665.6    2.642      65.874
2015    4        4    11   7    4.2735   665.4    2.641      65.839
2015    4        4    11  12    4.2717   665.3    2.641      65.804
2015    4        4    11  18    4.2698   665.2    2.640      65.769
2015    4        4    11  24    4.2679   665.0    2.639      65.733
2015    4        4    11  30    4.2660   664.9    2.638      65.696
2015    4        4    11  35    4.2641   664.8    2.638      65.659
2015    4        4    11  41    4.2622   664.7    2.637      65.623
2015    4        4    11  47    4.2603   664.5    2.636      65.586
2015    4        4    11  53    4.2584   664.4    2.635      65.548
2015    4        4    11  58    4.2565   664.2    2.635      65.511
2015    4        4    12   4    4.2546   664.1    2.634      65.474
2015    4        4    12  10    4.2527   664.0    2.633      65.437
2015    4        4    12  15    4.2507   663.8    2.632      65.401
2015    4        4    12  21    4.2488   663.7    2.632      65.364
2015    4        4    12  27    4.2469   663.5    2.631      65.329
2015    4        4    12  33    4.2451   663.4    2.631      65.293
2015    4        4    12  38    4.2432   663.3    2.630      65.258
2015    4        4    12  44    4.2413   663.1    2.630      65.224
2015    4        4    12  50    4.2394   663.0    2.629      65.190
2015    4        4    12  55    4.2375   662.8    2.629      65.158
2015    4        4    13   1    4.2357   662.7    2.628      65.125
2015    4        4    13   7    4.2338   662.5    2.628      65.094
2015    4        4    13  13    4.2320   662.4    2.628      65.063
2015    4        4    13  18    4.2302   662.3    2.628      65.032
2015    4        4    13  24    4.2283   662.1    2.628      65.003
2015    4        4    13  30    4.2265   662.0    2.627      64.974
2015    4        4    13  36    4.2247   661.8    2.627      64.946
2015    4        4    13  41    4.2229   661.7    2.627      64.918
2015    4        4    13  47    4.2211   661.5    2.628      64.891
2015    4        4    13  53    4.2194   661.4    2.628      64.864
2015    4        4    13  58    4.2176   661.2    2.628      64.838
2015    4        4    14   4    4.2158   661.1    2.628      64.813
2015    4        4    14  10    4.2140   661.0    2.628      64.787
2015    4        4    14  16    4.2122   660.8    2.629      64.762
2015    4        4    14  21    4.2105   660.7    2.629      64.738
2015    4        4    14  27    4.2087   660.5    2.629      64.713
2015    4        4    14  33    4.2069   660.4    2.630      64.689
2015    4        4    14  38    4.2051   660.3    2.630      64.665
2015    4        4    14  44    4.2033   660.1    2.630      64.641
2015    4        4    14  50    4.2015   660.0    2.631      64.617
2015    4        4    14  56    4.1997   659.8    2.631      64.593
2015    4        4    15   1    4.1979   659.7    2.632      64.569
2015    4        4    15   7    4.1961   659.6    2.632      64.546
2015    4        4    15  13    4.1943   659.4    2.633      64.522
2015    4        4    15  18    4.1925   659.3    2.633      64.498
2015    4        4    15  24    4.1907   659.1    2.634      64.473
2015    4        4    15  30    4.1889   659.0    2.634      64.449
2015    4        4    15  36    4.1870   658.8    2.634      64.425
2015    4        4    15  41    4.1852   658.7    2.635      64.400
2015    4        4    15  47    4.1834   658.6    2.635      64.376
2015    4        4    15  53    4.1816   658.4    2.635      64.351
2015    4        4    15  58    4.1798   658.3    2.636      64.327
2015    4        4    16   4    4.1780   658.1    2.636      64.302
2015    4        4    16  10    4.1762   658.0    2.636      64.278
2015    4        4    16  16    4.1745   657.8    2.637      64.253
2015    4        4    16  21    4.1727   657.7    2.637      64.228
2015    4        4    16  27    4.1709   657.5    2.637      64.204
2015    4        4    16  33    4.1691   657.4    2.638      64.179
2015    4        4    16  39    4.1674   657.3    2.638      64.153
2015    4        4    16  44    4.1656   657.1    2.638      64.128
2015    4        4    16  50    4.1638   657.0    2.638      64.102
2015    4        4    16  56    4.1620   656.8    2.638      64.075
2015    4        4    17   1    4.1602   656.7    2.638      64.048
2015    4        4    17   7    4.1584   656.5    2.638      64.019
2015    4        4    17  13    4.1566   656.4    2.638      63.990
2015    4        4    17  19    4.1548   656.2    2.638      63.961
2015    4        4    17  24    4.1530   656.1    2.638      63.930
2015    4        4    17  30    4.1511   655.9    2.638      63.898
2015    4        4    17  36    4.1493   655.8    2.638      63.865
2015    4        4    17  41    4.1475   655.6    2.637      63.832
2015    4        4    17  47    4.1457   655.5    2.637      63.798
2015    4        4    17  53    4.1439   655.3    2.637      63.762
2015    4        4    17  59    4.1420   655.1    2.637      63.726
2015    4        4    18   4    4.1402   655.0    2.636      63.690
2015    4        4    18  10    4.1384   654.8    2.636      63.652
2015    4        4    18  16    4.1365   654.7    2.636      63.614
2015    4        4    18  21    4.1347   654.5    2.635      63.575
2015    4        4    18  27    4.1328   654.4    2.635      63.536
2015    4        4    18  33    4.1310   654.2    2.634      63.496
2015    4        4    18  39    4.1292   654.0    2.634      63.456
2015    4        4    18  44    4.1273   653.9    2.633      63.415
2015    4        4    18  50    4.1255   653.7    2.633      63.374
2015    4        4    18  56    4.1236   653.5    2.633      63.333
2015    4        4    19   1    4.1218   653.4    2.632      63.292
2015    4        4    19   7    4.1199   653.2    2.632      63.251
2015    4        4    19  13    4.1181   653.1    2.631      63.210
2015    4        4    19  19    4.1162   652.9    2.631      63.168
2015    4        4    19  24    4.1144   652.7    2.630      63.127
2015    4        4    19  30    4.1125   652.6    2.630      63.086
2015    4        4    19  36    4.1107   652.4    2.629      63.045
2015    4        4    19  42    4.1088   652.2    2.629      63.004
2015    4        4    19  47    4.1070   652.1    2.629      62.964
2015    4        4    19  53    4.1051   651.9    2.628      62.923
2015    4        4    19  59    4.1033   651.7    2.628      62.883
2015    4        4    20   4    4.1014   651.5    2.628      62.843
2015    4        4    20  10    4.0995   651.4    2.627      62.803
2015    4        4    20  16    4.0976   651.2    2.627      62.762
2015    4        4    20  22    4.0957   651.0    2.626      62.722
2015    4        4    20  27    4.0938   650.8    2.626      62.682
2015    4        4    20  33    4.0919   650.7    2.626      62.642
2015    4        4    20  39    4.0900   650.5    2.625      62.602
2015    4        4    20  44    4.0881   650.3    2.625      62.561
2015    4        4    20  50    4.0861   650.1    2.624      62.520
2015    4        4    20  56    4.0842   649.9    2.624      62.480
2015    4        4    21   2    4.0822   649.8    2.624      62.439
2015    4        4    21   7    4.0803   649.6    2.623      62.398
2015    4        4    21  13    4.0783   649.4    2.623      62.357
2015    4        4    21  19    4.0763   649.2    2.623      62.316
2015    4        4    21  24    4.0744   649.0    2.622      62.275
2015    4        4    21  30    4.0724   648.8    2.622      62.235
2015    4        4    21  36    4.0704   648.6    2.621      62.194
2015    4        4    21  42    4.0684   648.4    2.621      62.153
2015    4        4    21  47    4.0664   648.2    2.621      62.113
2015    4        4    21  53    4.0644   648.1    2.621      62.073
2015    4        4    21  59    4.0625   647.9    2.620      62.034
2015    4        4    22   5    4.0605   647.7    2.620      61.995
2015    4        4    22  10    4.0585   647.5    2.620      61.956
2015    4        4    22  16    4.0565   647.3    2.620      61.918
2015    4        4    22  22    4.0546   647.1    2.620      61.880
2015    4        4    22  27    4.0526   646.9    2.620      61.843
2015    4        4    22  33    4.0507   646.7    2.620      61.807
2015    4        4    22  39    4.0487   646.5    2.620      61.771
2015    4        4    22  45    4.0468   646.3    2.621      61.736
2015    4        4    22  50    4.0449   646.1    2.621      61.702
2015    4        4    22  56    4.0429   645.9    2.621      61.668
2015    4        4    23   2    4.0410   645.8    2.621      61.634
2015    4        4    23   7    4.0391   645.6    2.622      61.601
2015    4        4    23  13    4.0371   645.4    2.622      61.569
2015    4        4    23  19    4.0352   645.2    2.623      61.537
2015    4        4    23  25    4.0333   645.0    2.623      61.506
2015    4        4    23  30    4.0313   644.8    2.624      61.475
2015    4        4    23  36    4.0294   644.6    2.624      61.444
2015    4        4    23  42    4.0275   644.4    2.625      61.414
2015    4        4    23  47    4.0256   644.2    2.626      61.384
2015    4        4    23  53    4.0236   644.0    2.626      61.354
2015    4        4    23  59    4.0217   643.8    2.627      61.325
2015    4        5     0   5    4.0198   643.6    2.627      61.295
2015    4        5     0  10    4.0179   643.4    2.628      61.265
2015    4        5     0  16    4.0159   643.2    2.629      61.236
2015    4        5     0  22    4.0140   643.1    2.629      61.206
2015    4        5     0  27    4.0121   642.9    2.630      61.177
2015    4        5     0  33    4.0102   642.7    2.631      61.148
2015    4        5     0  39    4.0083   642.5    2.632      61.119
2015    4        5     0  45    4.0064   642.3    2.632      61.090
2015    4        5     0  50    4.0045   642.1    2.633      61.061
2015    4        5     0  56    4.0027   641.9    2.634      61.032
2015    4        5     1   2    4.0008   641.7    2.635      61.004
2015    4        5     1   7    3.9990   641.5    2.635      60.975
2015    4        5     1  13    3.9971   641.4    2.636      60.946
2015    4        5     1  19    3.9953   641.2    2.636      60.918
2015    4        5     1  25    3.9934   641.0    2.637      60.888
2015    4        5     1  30    3.9916   640.8    2.637      60.857
2015    4        5     1  36    3.9897   640.6    2.638      60.825
2015    4        5     1  42    3.9879   640.5    2.638      60.793
2015    4        5     1  48    3.9860   640.3    2.638      60.759
2015    4        5     1  53    3.9842   640.1    2.639      60.725
2015    4        5     1  59    3.9823   639.9    2.639      60.690
2015    4        5     2   5    3.9805   639.7    2.639      60.654
2015    4        5     2  10    3.9787   639.6    2.639      60.618
2015    4        5     2  16    3.9768   639.4    2.639      60.581
2015    4        5     2  22    3.9750   639.2    2.639      60.544
2015    4        5     2  28    3.9732   639.0    2.640      60.507
2015    4        5     2  33    3.9714   638.8    2.640      60.469
2015    4        5     2  39    3.9696   638.6    2.640      60.431
2015    4        5     2  45    3.9678   638.5    2.640      60.392
2015    4        5     2  50    3.9660   638.3    2.640      60.353
2015    4        5     2  56    3.9642   638.1    2.640      60.314
2015    4        5     3   2    3.9624   637.9    2.640      60.275
2015    4        5     3   8    3.9606   637.7    2.640      60.235
2015    4        5     3  13    3.9589   637.5    2.640      60.195
2015    4        5     3  19    3.9571   637.3    2.640      60.155
2015    4        5     3  25    3.9553   637.1    2.640      60.114
2015    4        5     3  30    3.9536   637.0    2.640      60.073
2015    4        5     3  36    3.9518   636.8    2.640      60.031
2015    4        5     3  42    3.9501   636.6    2.640      59.989
2015    4        5     3  48    3.9483   636.4    2.639      59.946
2015    4        5     3  53    3.9465   636.2    2.639      59.902
2015    4        5     3  59    3.9447   636.0    2.639      59.858
2015    4        5     4   5    3.9429   635.8    2.639      59.813
2015    4        5     4  10    3.9411   635.6    2.639      59.767
2015    4        5     4  16    3.9393   635.4    2.638      59.721
2015    4        5     4  22    3.9375   635.2    2.638      59.674
2015    4        5     4  28    3.9357   635.0    2.638      59.626
2015    4        5     4  33    3.9339   634.8    2.638      59.578
2015    4        5     4  39    3.9321   634.6    2.637      59.529
2015    4        5     4  45    3.9303   634.4    2.637      59.479
2015    4        5     4  51    3.9284   634.2    2.636      59.429
2015    4        5     4  56    3.9266   634.0    2.636      59.379
2015    4        5     5   2    3.9248   633.7    2.636      59.328
2015    4        5     5   8    3.9229   633.5    2.635      59.277
2015    4        5     5  13    3.9211   633.3    2.635      59.225
2015    4        5     5  19    3.9193   633.1    2.634      59.173
2015    4        5     5  25    3.9174   632.9    2.634      59.121
2015    4        5     5  31    3.9156   632.7    2.633      59.069
2015    4        5     5  36    3.9138   632.4    2.633      59.016
2015    4        5     5  42    3.9119   632.2    2.632      58.963
2015    4        5     5  48    3.9101   632.0    2.632      58.910
2015    4        5     5  53    3.9083   631.8    2.631      58.857
2015    4        5     5  59    3.9064   631.6    2.631      58.804
2015    4        5     6   5    3.9046   631.3    2.630      58.751
2015    4        5     6  11    3.9027   631.1    2.630      58.697
2015    4        5     6  16    3.9009   630.9    2.629      58.644
2015    4        5     6  22    3.8990   630.6    2.629      58.591
2015    4        5     6  28    3.8971   630.4    2.629      58.537
2015    4        5     6  33    3.8953   630.2    2.628      58.484
2015    4        5     6  39    3.8934   630.0    2.628      58.430
2015    4        5     6  45    3.8915   629.7    2.628      58.377
2015    4        5     6  51    3.8896   629.5    2.627      58.324
2015    4        5     6  56    3.8877   629.2    2.627      58.271
2015    4        5     7   2    3.8859   629.0    2.627      58.218
2015    4        5     7   8    3.8840   628.8    2.627      58.166
2015    4        5     7  13    3.8821   628.5    2.627      58.114
2015    4        5     7  19    3.8802   628.3    2.627      58.063
2015    4        5     7  25    3.8783   628.1    2.627      58.012
2015    4        5     7  31    3.8765   627.8    2.627      57.962
2015    4        5     7  36    3.8746   627.6    2.627      57.913
2015    4        5     7  42    3.8728   627.3    2.627      57.865
2015    4        5     7  48    3.8710   627.1    2.628      57.818
2015    4        5     7  54    3.8691   626.8    2.628      57.772
2015    4        5     7  59    3.8673   626.6    2.629      57.728
2015    4        5     8   5    3.8655   626.3    2.629      57.685
2015    4        5     8  11    3.8638   626.1    2.630      57.642
2015    4        5     8  16    3.8620   625.9    2.631      57.602
2015    4        5     8  22    3.8602   625.6    2.632      57.562
2015    4        5     8  28    3.8585   625.4    2.633      57.523
2015    4        5     8  34    3.8567   625.2    2.633      57.485
2015    4        5     8  39    3.8549   624.9    2.634      57.447
2015    4        5     8  45    3.8531   624.7    2.635      57.410
2015    4        5     8  51    3.8513   624.4    2.636      57.372
2015    4        5     8  56    3.8495   624.2    2.637      57.333
2015    4        5     9   2    3.8477   624.0    2.638      57.295
2015    4        5     9   8    3.8459   623.7    2.639      57.256
2015    4        5     9  14    3.8441   623.5    2.640      57.218
2015    4        5     9  19    3.8423   623.3    2.641      57.179
2015    4        5     9  25    3.8404   623.0    2.643      57.140
2015    4        5     9  31    3.8386   622.8    2.644      57.102
2015    4        5     9  36    3.8368   622.5    2.645      57.064
2015    4        5     9  42    3.8350   622.3    2.646      57.026
2015    4        5     9  48    3.8332   622.0    2.648      56.988
2015    4        5     9  54    3.8314   621.8    2.649      56.950
2015    4        5     9  59    3.8296   621.5    2.650      56.914
2015    4        5    10   5    3.8279   621.3    2.652      56.878
2015    4        5    10  11    3.8261   621.1    2.653      56.843
2015    4        5    10  16    3.8244   620.8    2.655      56.808
2015    4        5    10  22    3.8227   620.6    2.657      56.774
2015    4        5    10  28    3.8210   620.3    2.658      56.741
2015    4        5    10  34    3.8194   620.1    2.660      56.708
2015    4        5    10  39    3.8177   619.9    2.662      56.676
2015    4        5    10  45    3.8161   619.6    2.663      56.644
2015    4        5    10  51    3.8145   619.4    2.665      56.612
2015    4        5    10  56    3.8128   619.2    2.666      56.579
2015    4        5    11   2    3.8112   618.9    2.667      56.545
2015    4        5    11   8    3.8095   618.7    2.669      56.510
2015    4        5    11  14    3.8078   618.5    2.670      56.474
2015    4        5    11  19    3.8061   618.3    2.671      56.436
2015    4        5    11  25    3.8044   618.1    2.672      56.398
2015    4        5    11  31    3.8027   617.8    2.673      56.360
2015    4        5    11  37    3.8010   617.6    2.674      56.320
2015    4        5    11  42    3.7993   617.4    2.675      56.280
2015    4        5    11  48    3.7976   617.2    2.675      56.240
2015    4        5    11  54    3.7959   617.0    2.676      56.199
2015    4        5    11  59    3.7942   616.7    2.677      56.159
2015    4        5    12   5    3.7924   616.5    2.678      56.117
2015    4        5    12  11    3.7907   616.3    2.678      56.076
2015    4        5    12  17    3.7890   616.1    2.679      56.034
2015    4        5    12  22    3.7872   615.9    2.679      55.993
2015    4        5    12  28    3.7855   615.6    2.680      55.950
2015    4        5    12  34    3.7837   615.4    2.681      55.908
2015    4        5    12  39    3.7820   615.2    2.681      55.865
2015    4        5    12  45    3.7802   615.0    2.682      55.821
2015    4        5    12  51    3.7784   614.8    2.682      55.777
2015    4        5    12  57    3.7766   614.5    2.683      55.733
2015    4        5    13   2    3.7748   614.3    2.683      55.688
2015    4        5    13   8    3.7730   614.1    2.683      55.643
2015    4        5    13  14    3.7712   613.8    2.684      55.597
2015    4        5    13  19    3.7693   613.6    2.684      55.551
2015    4        5    13  25    3.7675   613.4    2.684      55.504
2015    4        5    13  31    3.7657   613.2    2.684      55.456
2015    4        5    13  37    3.7639   612.9    2.684      55.408
2015    4        5    13  42    3.7620   612.7    2.684      55.359
2015    4        5    13  48    3.7602   612.5    2.685      55.309
2015    4        5    13  54    3.7584   612.2    2.685      55.259
2015    4        5    13  59    3.7565   612.0    2.685      55.209
2015    4        5    14   5    3.7547   611.8    2.685      55.157
2015    4        5    14  11    3.7528   611.5    2.685      55.105
2015    4        5    14  17    3.7509   611.3    2.685      55.053
2015    4        5    14  22    3.7491   611.0    2.684      54.999
2015    4        5    14  28    3.7472   610.8    2.684      54.945
2015    4        5    14  34    3.7453   610.6    2.684      54.891
2015    4        5    14  39    3.7434   610.3    2.684      54.836
2015    4        5    14  45    3.7415   610.1    2.684      54.780
2015    4        5    14  51    3.7396   609.8    2.683      54.723
2015    4        5    14  57    3.7376   609.6    2.683      54.666
2015    4        5    15   2    3.7357   609.3    2.683      54.608
2015    4        5    15   8    3.7338   609.1    2.682      54.550
2015    4        5    15  14    3.7318   608.8    2.682      54.491
2015    4        5    15  20    3.7299   608.6    2.682      54.431
2015    4        5    15  25    3.7279   608.3    2.681      54.371
2015    4        5    15  31    3.7259   608.1    2.681      54.310
2015    4        5    15  37    3.7239   607.8    2.681      54.249
2015    4        5    15  42    3.7220   607.5    2.680      54.188
2015    4        5    15  48    3.7200   607.3    2.680      54.127
2015    4        5    15  54    3.7180   607.0    2.680      54.066
2015    4        5    16   0    3.7160   606.7    2.679      54.005
2015    4        5    16   5    3.7140   606.5    2.679      53.944
2015    4        5    16  11    3.7120   606.2    2.679      53.883
2015    4        5    16  17    3.7100   605.9    2.679      53.823
2015    4        5    16  22    3.7081   605.6    2.679      53.763
2015    4        5    16  28    3.7061   605.4    2.679      53.704
2015    4        5    16  34    3.7041   605.1    2.679      53.646
2015    4        5    16  40    3.7022   604.8    2.679      53.588
2015    4        5    16  45    3.7002   604.5    2.679      53.532
2015    4        5    16  51    3.6983   604.2    2.680      53.477
2015    4        5    16  57    3.6964   604.0    2.680      53.423
2015    4        5    17   2    3.6945   603.7    2.681      53.371
2015    4        5    17   8    3.6927   603.4    2.682      53.319
2015    4        5    17  14    3.6909   603.1    2.683      53.270
2015    4        5    17  20    3.6891   602.8    2.684      53.221
2015    4        5    17  25    3.6873   602.5    2.685      53.174
2015    4        5    17  31    3.6855   602.2    2.686      53.129
2015    4        5    17  37    3.6838   602.0    2.688      53.085
2015    4        5    17  42    3.6820   601.7    2.689      53.043
2015    4        5    17  48    3.6803   601.4    2.691      53.002
2015    4        5    17  54    3.6787   601.1    2.692      52.962
2015    4        5    18   0    3.6770   600.8    2.694      52.924
2015    4        5    18   5    3.6753   600.6    2.696      52.888
2015    4        5    18  11    3.6737   600.3    2.698      52.852
2015    4        5    18  17    3.6721   600.0    2.700      52.818
2015    4        5    18  23    3.6704   599.7    2.702      52.785
2015    4        5    18  28    3.6688   599.4    2.704      52.753
2015    4        5    18  34    3.6672   599.2    2.706      52.720
2015    4        5    18  40    3.6656   598.9    2.708      52.688
2015    4        5    18  45    3.6639   598.6    2.710      52.656
2015    4        5    18  51    3.6623   598.4    2.712      52.624
2015    4        5    18  57    3.6607   598.1    2.714      52.592
2015    4        5    19   3    3.6591   597.8    2.716      52.559
2015    4        5    19   8    3.6575   597.6    2.718      52.527
2015    4        5    19  14    3.6559   597.3    2.720      52.494
2015    4        5    19  20    3.6543   597.0    2.722      52.461
2015    4        5    19  25    3.6527   596.8    2.724      52.428
2015    4        5    19  31    3.6512   596.5    2.726      52.394
2015    4        5    19  37    3.6496   596.2    2.728      52.361
2015    4        5    19  43    3.6480   596.0    2.730      52.326
2015    4        5    19  48    3.6464   595.7    2.732      52.291
2015    4        5    19  54    3.6448   595.5    2.734      52.256
2015    4        5    20   0    3.6432   595.2    2.736      52.220
2015    4        5    20   5    3.6417   594.9    2.737      52.184
2015    4        5    20  11    3.6401   594.7    2.739      52.148
2015    4        5    20  17    3.6385   594.4    2.741      52.111
2015    4        5    20  23    3.6369   594.2    2.743      52.075
2015    4        5    20  28    3.6353   593.9    2.744      52.038
2015    4        5    20  34    3.6336   593.6    2.746      52.001
2015    4        5    20  40    3.6320   593.4    2.747      51.964
2015    4        5    20  45    3.6304   593.1    2.749      51.927
2015    4        5    20  51    3.6288   592.9    2.750      51.890
2015    4        5    20  57    3.6271   592.6    2.751      51.852
2015    4        5    21   3    3.6255   592.4    2.753      51.813
2015    4        5    21   8    3.6238   592.1    2.754      51.773
2015    4        5    21  14    3.6222   591.8    2.755      51.733
2015    4        5    21  20    3.6205   591.6    2.756      51.692
2015    4        5    21  25    3.6188   591.3    2.757      51.650
2015    4        5    21  31    3.6171   591.1    2.758      51.607
2015    4        5    21  37    3.6155   590.8    2.759      51.563
2015    4        5    21  43    3.6138   590.6    2.760      51.519
2015    4        5    21  48    3.6121   590.3    2.761      51.473
2015    4        5    21  54    3.6104   590.1    2.761      51.427
2015    4        5    22   0    3.6087   589.8    2.762      51.380
2015    4        5    22   5    3.6069   589.5    2.763      51.332
2015    4        5    22  11    3.6052   589.3    2.763      51.283
2015    4        5    22  17    3.6035   589.0    2.764      51.233
2015    4        5    22  23    3.6017   588.8    2.764      51.182
2015    4        5    22  28    3.6000   588.5    2.764      51.131
2015    4        5    22  34    3.5983   588.2    2.765      51.079
2015    4        5    22  40    3.5965   588.0    2.765      51.026
2015    4        5    22  46    3.5947   587.7    2.765      50.972
2015    4        5    22  51    3.5930   587.5    2.765      50.917
2015    4        5    22  57    3.5912   587.2    2.766      50.862
2015    4        5    23   3    3.5894   586.9    2.766      50.806
2015    4        5    23   8    3.5877   586.6    2.766      50.749
2015    4        5    23  14    3.5859   586.4    2.766      50.692
2015    4        5    23  20    3.5841   586.1    2.766      50.634
2015    4        5    23  26    3.5823   585.8    2.766      50.575
2015    4        5    23  31    3.5805   585.5    2.766      50.516
2015    4        5    23  37    3.5787   585.3    2.766      50.456
2015    4        5    23  43    3.5769   585.0    2.766      50.396
2015    4        5    23  48    3.5751   584.7    2.766      50.336
2015    4        5    23  54    3.5734   584.4    2.766      50.276
2015    4        6     0   0    3.5716   584.1    2.765      50.215
2015    4        6     0   6    3.5698   583.8    2.765      50.154
2015    4        6     0  11    3.5680   583.5    2.765      50.094
2015    4        6     0  17    3.5662   583.2    2.766      50.033
2015    4        6     0  23    3.5645   582.9    2.766      49.973
2015    4        6     0  28    3.5627   582.6    2.766      49.913
2015    4        6     0  34    3.5609   582.4    2.766      49.853
2015    4        6     0  40    3.5592   582.1    2.766      49.794
2015    4        6     0  46    3.5575   581.8    2.766      49.735
2015    4        6     0  51    3.5557   581.5    2.767      49.677
2015    4        6     0  57    3.5540   581.2    2.767      49.619
2015    4        6     1   3    3.5523   580.9    2.768      49.561
2015    4        6     1   8    3.5506   580.6    2.768      49.504
2015    4        6     1  14    3.5489   580.3    2.769      49.448
2015    4        6     1  20    3.5472   580.0    2.769      49.392
2015    4        6     1  26    3.5455   579.6    2.770      49.336
2015    4        6     1  31    3.5438   579.3    2.771      49.280
2015    4        6     1  37    3.5421   579.0    2.772      49.225
2015    4        6     1  43    3.5404   578.7    2.773      49.171
2015    4        6     1  49    3.5387   578.4    2.774      49.116
2015    4        6     1  54    3.5371   578.1    2.775      49.063
2015    4        6     2   0    3.5354   577.8    2.776      49.010
2015    4        6     2   6    3.5337   577.5    2.777      48.957
2015    4        6     2  11    3.5321   577.1    2.779      48.905
2015    4        6     2  17    3.5305   576.8    2.780      48.854
2015    4        6     2  23    3.5289   576.5    2.781      48.804
2015    4        6     2  29    3.5273   576.2    2.783      48.754
2015    4        6     2  34    3.5257   575.9    2.785      48.706
2015    4        6     2  40    3.5242   575.5    2.787      48.658
2015    4        6     2  46    3.5227   575.2    2.789      48.612
2015    4        6     2  51    3.5213   574.9    2.791      48.567
2015    4        6     2  57    3.5199   574.6    2.793      48.522
2015    4        6     3   3    3.5185   574.3    2.795      48.479
2015    4        6     3   9    3.5171   573.9    2.798      48.437
2015    4        6     3  14    3.5158   573.6    2.800      48.396
2015    4        6     3  20    3.5145   573.3    2.803      48.355
2015    4        6     3  26    3.5133   573.0    2.805      48.316
2015    4        6     3  31    3.5121   572.7    2.808      48.277
2015    4        6     3  37    3.5109   572.4    2.811      48.239
2015    4        6     3  43    3.5097   572.1    2.813      48.202
2015    4        6     3  49    3.5085   571.8    2.816      48.166
2015    4        6     3  54    3.5073   571.5    2.819      48.130
2015    4        6     4   0    3.5062   571.2    2.822      48.094
2015    4        6     4   6    3.5050   570.9    2.825      48.059
2015    4        6     4  11    3.5038   570.6    2.828      48.023
2015    4        6     4  17    3.5026   570.3    2.830      47.987
2015    4        6     4  23    3.5014   570.0    2.833      47.951
2015    4        6     4  29    3.5001   569.7    2.836      47.915
2015    4        6     4  34    3.4989   569.4    2.838      47.878
2015    4        6     4  40    3.4976   569.1    2.841      47.841
2015    4        6     4  46    3.4963   568.8    2.843      47.803
2015    4        6     4  51    3.4951   568.5    2.846      47.765
2015    4        6     4  57    3.4938   568.2    2.848      47.726
2015    4        6     5   3    3.4925   567.9    2.850      47.687
2015    4        6     5   9    3.4912   567.6    2.853      47.647
2015    4        6     5  14    3.4899   567.3    2.855      47.608
2015    4        6     5  20    3.4886   567.0    2.857      47.567
2015    4        6     5  26    3.4873   566.7    2.859      47.527
2015    4        6     5  31    3.4860   566.4    2.861      47.486
2015    4        6     5  37    3.4847   566.1    2.863      47.445
2015    4        6     5  43    3.4834   565.8    2.865      47.404
2015    4        6     5  49    3.4821   565.5    2.867      47.362
2015    4        6     5  54    3.4808   565.2    2.869      47.320
2015    4        6     6   0    3.4794   564.9    2.870      47.278
2015    4        6     6   6    3.4781   564.6    2.872      47.236
2015    4        6     6  11    3.4768   564.3    2.874      47.193
2015    4        6     6  17    3.4755   564.1    2.875      47.150
2015    4        6     6  23    3.4742   563.8    2.877      47.107
2015    4        6     6  29    3.4728   563.5    2.878      47.064
2015    4        6     6  34    3.4715   563.2    2.880      47.020
2015    4        6     6  40    3.4702   562.9    2.881      46.975
2015    4        6     6  46    3.4688   562.6    2.883      46.931
2015    4        6     6  51    3.4675   562.3    2.884      46.885
2015    4        6     6  57    3.4662   562.0    2.885      46.839
2015    4        6     7   3    3.4648   561.7    2.886      46.793
2015    4        6     7   9    3.4635   561.4    2.888      46.746
2015    4        6     7  14    3.4621   561.1    2.889      46.699
2015    4        6     7  20    3.4608   560.8    2.890      46.650
2015    4        6     7  26    3.4594   560.5    2.891      46.602
2015    4        6     7  32    3.4581   560.2    2.892      46.553
2015    4        6     7  37    3.4567   559.9    2.893      46.503
2015    4        6     7  43    3.4554   559.6    2.894      46.452
2015    4        6     7  49    3.4540   559.3    2.895      46.401
2015    4        6     7  54    3.4527   558.9    2.895      46.349
2015    4        6     8   0    3.4513   558.6    2.896      46.297
2015    4        6     8   6    3.4500   558.3    2.897      46.244
2015    4        6     8  12    3.4486   558.0    2.898      46.191
2015    4        6     8  17    3.4473   557.7    2.899      46.136
2015    4        6     8  23    3.4459   557.4    2.899      46.081
2015    4        6     8  29    3.4446   557.1    2.900      46.026
2015    4        6     8  34    3.4432   556.8    2.901      45.970
2015    4        6     8  40    3.4418   556.4    2.901      45.913
2015    4        6     8  46    3.4405   556.1    2.902      45.855
2015    4        6     8  52    3.4391   555.8    2.903      45.797
2015    4        6     8  57    3.4378   555.5    2.903      45.739
2015    4        6     9   3    3.4365   555.1    2.904      45.681
2015    4        6     9   9    3.4351   554.8    2.905      45.622
2015    4        6     9  14    3.4338   554.5    2.906      45.563
2015    4        6     9  20    3.4325   554.1    2.907      45.504
2015    4        6     9  26    3.4313   553.8    2.907      45.445
2015    4        6     9  32    3.4300   553.5    2.908      45.387
2015    4        6     9  37    3.4288   553.1    2.910      45.328
2015    4        6     9  43    3.4276   552.8    2.911      45.270
2015    4        6     9  49    3.4264   552.5    2.912      45.213
2015    4        6     9  54    3.4252   552.1    2.913      45.156
2015    4        6    10   0    3.4241   551.8    2.915      45.099
2015    4        6    10   6    3.4230   551.4    2.916      45.043
2015    4        6    10  12    3.4220   551.1    2.918      44.988
2015    4        6    10  17    3.4209   550.8    2.920      44.933
2015    4        6    10  23    3.4199   550.4    2.922      44.879
2015    4        6    10  29    3.4190   550.1    2.924      44.826
2015    4        6    10  35    3.4180   549.7    2.926      44.773
2015    4        6    10  40    3.4171   549.4    2.929      44.721
2015    4        6    10  46    3.4162   549.1    2.931      44.670
2015    4        6    10  52    3.4154   548.7    2.934      44.620
2015    4        6    10  57    3.4146   548.4    2.936      44.570
2015    4        6    11   3    3.4138   548.1    2.939      44.521
2015    4        6    11   9    3.4130   547.7    2.942      44.473
2015    4        6    11  15    3.4122   547.4    2.945      44.425
2015    4        6    11  20    3.4115   547.1    2.948      44.377
2015    4        6    11  26    3.4107   546.7    2.951      44.330
2015    4        6    11  32    3.4100   546.4    2.955      44.284
2015    4        6    11  37    3.4092   546.1    2.958      44.237
2015    4        6    11  43    3.4085   545.7    2.961      44.191
2015    4        6    11  49    3.4077   545.4    2.965      44.146
2015    4        6    11  55    3.4070   545.0    2.968      44.100
2015    4        6    12   0    3.4063   544.7    2.971      44.055
2015    4        6    12   6    3.4056   544.4    2.975      44.011
2015    4        6    12  12    3.4049   544.0    2.978      43.966
2015    4        6    12  17    3.4042   543.7    2.982      43.922
2015    4        6    12  23    3.4035   543.3    2.985      43.878
2015    4        6    12  29    3.4029   543.0    2.988      43.835
2015    4        6    12  35    3.4022   542.6    2.992      43.792
2015    4        6    12  40    3.4016   542.3    2.995      43.749
2015    4        6    12  46    3.4009   542.0    2.999      43.706
2015    4        6    12  52    3.4003   541.6    3.002      43.664
2015    4        6    12  57    3.3997   541.3    3.006      43.622
2015    4        6    13   3    3.3990   541.0    3.009      43.580
2015    4        6    13   9    3.3984   540.6    3.013      43.539
2015    4        6    13  15    3.3978   540.3    3.016      43.498
2015    4        6    13  20    3.3972   539.9    3.019      43.457
2015    4        6    13  26    3.3966   539.6    3.023      43.416
2015    4        6    13  32    3.3960   539.3    3.026      43.375
2015    4        6    13  37    3.3954   538.9    3.030      43.334
2015    4        6    13  43    3.3948   538.6    3.033      43.294
2015    4        6    13  49    3.3942   538.3    3.036      43.254
2015    4        6    13  55    3.3936   537.9    3.039      43.214
2015    4        6    14   0    3.3930   537.6    3.043      43.173
2015    4        6    14   6    3.3924   537.3    3.046      43.133
2015    4        6    14  12    3.3919   537.0    3.049      43.093
2015    4        6    14  17    3.3913   536.6    3.052      43.052
2015    4        6    14  23    3.3907   536.3    3.055      43.011
2015    4        6    14  29    3.3902   536.0    3.059      42.970
2015    4        6    14  35    3.3896   535.6    3.062      42.929
2015    4        6    14  40    3.3891   535.3    3.065      42.888
2015    4        6    14  46    3.3885   535.0    3.068      42.847
2015    4        6    14  52    3.3880   534.7    3.071      42.806
2015    4        6    14  57    3.3875   534.3    3.074      42.764
2015    4        6    15   3    3.3870   534.0    3.077      42.722
2015    4        6    15   9    3.3865   533.7    3.080      42.680
2015    4        6    15  15    3.3860   533.4    3.083      42.638
2015    4        6    15  20    3.3856   533.1    3.086      42.595
2015    4        6    15  26    3.3851   532.7    3.089      42.553
2015    4        6    15  32    3.3847   532.4    3.092      42.510
2015    4        6    15  38    3.3842   532.1    3.095      42.467
2015    4        6    15  43    3.3838   531.8    3.098      42.423
2015    4        6    15  49    3.3834   531.5    3.101      42.379
2015    4        6    15  55    3.3830   531.1    3.104      42.335
2015    4        6    16   0    3.3826   530.8    3.107      42.291
2015    4        6    16   6    3.3822   530.5    3.110      42.246
2015    4        6    16  12    3.3818   530.2    3.112      42.201
2015    4        6    16  18    3.3814   529.9    3.115      42.155
2015    4        6    16  23    3.3810   529.5    3.118      42.109
2015    4        6    16  29    3.3807   529.2    3.121      42.063
2015    4        6    16  35    3.3803   528.9    3.124      42.016
2015    4        6    16  40    3.3800   528.6    3.126      41.969
2015    4        6    16  46    3.3796   528.3    3.129      41.921
2015    4        6    16  52    3.3793   527.9    3.132      41.873
2015    4        6    16  58    3.3790   527.6    3.135      41.825
2015    4        6    17   3    3.3787   527.3    3.137      41.776
2015    4        6    17   9    3.3784   526.9    3.140      41.726
2015    4        6    17  15    3.3782   526.6    3.143      41.677
2015    4        6    17  20    3.3779   526.3    3.146      41.627
2015    4        6    17  26    3.3777   526.0    3.148      41.577
2015    4        6    17  32    3.3774   525.6    3.151      41.526
2015    4        6    17  38    3.3772   525.3    3.154      41.475
2015    4        6    17  43    3.3770   525.0    3.157      41.424
2015    4        6    17  49    3.3769   524.6    3.160      41.374
2015    4        6    17  55    3.3767   524.3    3.163      41.323
2015    4        6    18   0    3.3766   524.0    3.166      41.272
2015    4        6    18   6    3.3765   523.6    3.169      41.221
2015    4        6    18  12    3.3765   523.3    3.172      41.170
2015    4        6    18  18    3.3764   523.0    3.176      41.120
2015    4        6    18  23    3.3764   522.6    3.179      41.069
2015    4        6    18  29    3.3765   522.3    3.182      41.019
2015    4        6    18  35    3.3765   521.9    3.186      40.970
2015    4        6    18  40    3.3766   521.6    3.189      40.920
2015    4        6    18  46    3.3767   521.3    3.193      40.871
2015    4        6    18  52    3.3768   520.9    3.196      40.822
2015    4        6    18  58    3.3770   520.6    3.200      40.774
2015    4        6    19   3    3.3771   520.3    3.204      40.726
2015    4        6    19   9    3.3774   519.9    3.208      40.678
2015    4        6    19  15    3.3776   519.6    3.212      40.631
2015    4        6    19  20    3.3778   519.3    3.216      40.584
2015    4        6    19  26    3.3781   518.9    3.220      40.537
2015    4        6    19  32    3.3784   518.6    3.224      40.491
2015    4        6    19  38    3.3787   518.3    3.228      40.445
2015    4        6    19  43    3.3791   517.9    3.232      40.399
2015    4        6    19  49    3.3794   517.6    3.236      40.353
2015    4        6    19  55    3.3798   517.3    3.240      40.308
2015    4        6    20   0    3.3802   516.9    3.244      40.263
2015    4        6    20   6    3.3806   516.6    3.248      40.218
2015    4        6    20  12    3.3810   516.3    3.253      40.173
2015    4        6    20  18    3.3814   515.9    3.257      40.129
2015    4        6    20  23    3.3819   515.6    3.261      40.085
2015    4        6    20  29    3.3824   515.3    3.266      40.041
2015    4        6    20  35    3.3828   514.9    3.270      39.997
2015    4        6    20  40    3.3834   514.6    3.275      39.953
2015    4        6    20  46    3.3839   514.3    3.279      39.910
2015    4        6    20  52    3.3844   513.9    3.283      39.867
2015    4        6    20  58    3.3850   513.6    3.288      39.824
2015    4        6    21   3    3.3856   513.3    3.293      39.781
2015    4        6    21   9    3.3862   512.9    3.297      39.739
2015    4        6    21  15    3.3869   512.6    3.302      39.697
2015    4        6    21  21    3.3875   512.3    3.306      39.656
2015    4        6    21  26    3.3882   511.9    3.311      39.614
2015    4        6    21  32    3.3889   511.6    3.316      39.573
2015    4        6    21  38    3.3896   511.3    3.321      39.532
2015    4        6    21  43    3.3904   511.0    3.326      39.492
2015    4        6    21  49    3.3912   510.6    3.330      39.451
2015    4        6    21  55    3.3920   510.3    3.335      39.411
2015    4        6    22   1    3.3928   510.0    3.340      39.372
2015    4        6    22   6    3.3936   509.7    3.345      39.332
2015    4        6    22  12    3.3945   509.4    3.350      39.293
2015    4        6    22  18    3.3954   509.0    3.355      39.254
2015    4        6    22  23    3.3963   508.7    3.360      39.215
2015    4        6    22  29    3.3972   508.4    3.366      39.176
2015    4        6    22  35    3.3982   508.1    3.371      39.137
2015    4        6    22  41    3.3992   507.8    3.376      39.099
2015    4        6    22  46    3.4002   507.5    3.381      39.060
2015    4        6    22  52    3.4012   507.1    3.386      39.022
2015    4        6    22  58    3.4022   506.8    3.391      38.984
2015    4        6    23   3    3.4032   506.5    3.397      38.946
2015    4        6    23   9    3.4043   506.2    3.402      38.907
2015    4        6    23  15    3.4054   505.9    3.407      38.869
2015    4        6    23  21    3.4065   505.6    3.412      38.831
2015    4        6    23  26    3.4076   505.3    3.418      38.793
2015    4        6    23  32    3.4087   505.0    3.423      38.755
2015    4        6    23  38    3.4098   504.7    3.428      38.716
2015    4        6    23  43    3.4110   504.4    3.434      38.678
2015    4        6    23  49    3.4121   504.1    3.439      38.640
2015    4        6    23  55    3.4133   503.8    3.444      38.601
2015    4        7     0   1    3.4145   503.5    3.449      38.563
2015    4        7     0   6    3.4157   503.1    3.455      38.524
2015    4        7     0  12    3.4170   502.8    3.460      38.486
2015    4        7     0  18    3.4182   502.5    3.465      38.447
2015    4        7     0  23    3.4195   502.2    3.470      38.409
2015    4        7     0  29    3.4207   501.9    3.476      38.370
2015    4        7     0  35    3.4220   501.6    3.481      38.331
2015    4        7     0  41    3.4234   501.3    3.486      38.292
2015    4        7     0  46    3.4247   501.0    3.491      38.254
2015    4        7     0  52    3.4260   500.7    3.497      38.215
2015    4        7     0  58    3.4274   500.4    3.502      38.176
2015    4        7     1   3    3.4288   500.1    3.507      38.137
2015    4        7     1   9    3.4302   499.9    3.513      38.098
2015    4        7     1  15    3.4316   499.6    3.518      38.059
2015    4        7     1  21    3.4330   499.3    3.523      38.020
2015    4        7     1  26    3.4345   499.0    3.529      37.981
2015    4        7     1  32    3.4360   498.7    3.534      37.942
2015    4        7     1  38    3.4375   498.4    3.539      37.903
2015    4        7     1  43    3.4390   498.1    3.545      37.865
2015    4        7     1  49    3.4405   497.8    3.550      37.826
2015    4        7     1  55    3.4420   497.5    3.556      37.787
2015    4        7     2   1    3.4436   497.2    3.561      37.748
2015    4        7     2   6    3.4452   496.9    3.566      37.709
2015    4        7     2  12    3.4468   496.6    3.572      37.670
2015    4        7     2  18    3.4484   496.3    3.577      37.632
2015    4        7     2  23    3.4500   496.0    3.583      37.593
2015    4        7     2  29    3.4517   495.8    3.588      37.555
2015    4        7     2  35    3.4533   495.5    3.594      37.516
2015    4        7     2  41    3.4550   495.2    3.599      37.478
2015    4        7     2  46    3.4567   494.9    3.605      37.439
2015    4        7     2  52    3.4584   494.6    3.611      37.401
2015    4        7     2  58    3.4601   494.3    3.616      37.363
2015    4        7     3   4    3.4619   494.0    3.622      37.325
2015    4        7     3   9    3.4636   493.7    3.628      37.287
2015    4        7     3  15    3.4654   493.5    3.633      37.250
2015    4        7     3  21    3.4672   493.2    3.639      37.212
2015    4        7     3  26    3.4691   492.9    3.645      37.175
2015    4        7     3  32    3.4709   492.6    3.651      37.138
2015    4        7     3  38    3.4728   492.3    3.656      37.101
2015    4        7     3  44    3.4747   492.0    3.662      37.064
2015    4        7     3  49    3.4766   491.7    3.668      37.028
2015    4        7     3  55    3.4785   491.5    3.674      36.992
2015    4        7     4   1    3.4805   491.2    3.680      36.956
2015    4        7     4   6    3.4824   490.9    3.686      36.920
2015    4        7     4  12    3.4844   490.6    3.692      36.885
2015    4        7     4  18    3.4865   490.3    3.698      36.850
2015    4        7     4  24    3.4885   490.1    3.704      36.815
2015    4        7     4  29    3.4906   489.8    3.711      36.781
2015    4        7     4  35    3.4927   489.5    3.717      36.747
2015    4        7     4  41    3.4949   489.2    3.723      36.713
2015    4        7     4  46    3.4970   489.0    3.729      36.680
2015    4        7     4  52    3.4992   488.7    3.736      36.647
2015    4        7     4  58    3.5014   488.4    3.742      36.614
2015    4        7     5   4    3.5037   488.1    3.749      36.582
2015    4        7     5   9    3.5060   487.9    3.755      36.550
2015    4        7     5  15    3.5083   487.6    3.762      36.518
2015    4        7     5  21    3.5106   487.3    3.769      36.487
2015    4        7     5  26    3.5129   487.0    3.775      36.456
2015    4        7     5  32    3.5153   486.8    3.782      36.426
2015    4        7     5  38    3.5177   486.5    3.789      36.395
2015    4        7     5  44    3.5202   486.2    3.796      36.366
2015    4        7     5  49    3.5226   486.0    3.803      36.336
2015    4        7     5  55    3.5251   485.7    3.810      36.307
2015    4        7     6   1    3.5276   485.4    3.817      36.279
2015    4        7     6   6    3.5302   485.2    3.824      36.250
2015    4        7     6  12    3.5327   484.9    3.832      36.222
2015    4        7     6  18    3.5353   484.7    3.839      36.195
2015    4        7     6  24    3.5380   484.4    3.846      36.167
2015    4        7     6  29    3.5406   484.1    3.854      36.140
2015    4        7     6  35    3.5432   483.9    3.861      36.114
2015    4        7     6  41    3.5459   483.6    3.869      36.088
2015    4        7     6  46    3.5486   483.4    3.876      36.062
2015    4        7     6  52    3.5514   483.1    3.884      36.036
2015    4        7     6  58    3.5541   482.9    3.892      36.011
2015    4        7     7   4    3.5569   482.6    3.899      35.986
2015    4        7     7   9    3.5597   482.4    3.907      35.961
2015    4        7     7  15    3.5625   482.1    3.915      35.936
2015    4        7     7  21    3.5653   481.9    3.923      35.912
2015    4        7     7  27    3.5682   481.6    3.931      35.888
2015    4        7     7  32    3.5711   481.4    3.939      35.865
2015    4        7     7  38    3.5739   481.1    3.947      35.841
2015    4        7     7  44    3.5769   480.9    3.955      35.818
2015    4        7     7  49    3.5798   480.7    3.963      35.795
2015    4        7     7  55    3.5827   480.4    3.971      35.772
2015    4        7     8   1    3.5856   480.2    3.979      35.750
2015    4        7     8   7    3.5886   480.0    3.987      35.727
2015    4        7     8  12    3.5915   479.7    3.995      35.705
2015    4        7     8  18    3.5945   479.5    4.003      35.683
2015    4        7     8  24    3.5975   479.3    4.011      35.661
2015    4        7     8  29    3.6005   479.0    4.019      35.639
2015    4        7     8  35    3.6034   478.8    4.027      35.618
2015    4        7     8  41    3.6064   478.6    4.035      35.596
2015    4        7     8  47    3.6094   478.4    4.043      35.574
2015    4        7     8  52    3.6124   478.1    4.051      35.553
2015    4        7     8  58    3.6154   477.9    4.059      35.531
2015    4        7     9   4    3.6185   477.7    4.067      35.510
2015    4        7     9   9    3.6215   477.5    4.075      35.489
2015    4        7     9  15    3.6245   477.2    4.083      35.467
2015    4        7     9  21    3.6276   477.0    4.091      35.446
2015    4        7     9  27    3.6307   476.8    4.099      35.425
2015    4        7     9  32    3.6337   476.6    4.106      35.404
2015    4        7     9  38    3.6368   476.4    4.114      35.383
2015    4        7     9  44    3.6399   476.1    4.122      35.362
2015    4        7     9  49    3.6430   475.9    4.130      35.341
2015    4        7     9  55    3.6461   475.7    4.137      35.320
2015    4        7    10   1    3.6492   475.5    4.145      35.300
2015    4        7    10   7    3.6524   475.3    4.153      35.279
2015    4        7    10  12    3.6555   475.1    4.161      35.259
2015    4        7    10  18    3.6587   474.9    4.168      35.239
2015    4        7    10  24    3.6618   474.7    4.176      35.219
2015    4        7    10  29    3.6650   474.5    4.184      35.199
2015    4        7    10  35    3.6682   474.3    4.191      35.179
2015    4        7    10  41    3.6714   474.1    4.199      35.159
2015    4        7    10  47    3.6746   473.8    4.206      35.140
2015    4        7    10  52    3.6779   473.6    4.214      35.121
2015    4        7    10  58    3.6811   473.4    4.222      35.101
2015    4        7    11   4    3.6844   473.2    4.229      35.083
2015    4        7    11   9    3.6876   473.0    4.237      35.064
2015    4        7    11  15    3.6909   472.8    4.245      35.045
2015    4        7    11  21    3.6942   472.6    4.252      35.027
2015    4        7    11  27    3.6975   472.4    4.260      35.009
2015    4        7    11  32    3.7009   472.2    4.268      34.991
2015    4        7    11  38    3.7042   472.0    4.275      34.974
2015    4        7    11  44    3.7076   471.8    4.283      34.957
2015    4        7    11  49    3.7110   471.6    4.291      34.940
2015    4        7    11  55    3.7144   471.5    4.299      34.923
2015    4        7    12   1    3.7178   471.3    4.307      34.907
2015    4        7    12   7    3.7213   471.1    4.314      34.891
2015    4        7    12  12    3.7247   470.9    4.322      34.875
2015    4        7    12  18    3.7282   470.7    4.330      34.860
2015    4        7    12  24    3.7317   470.5    4.338      34.845
2015    4        7    12  29    3.7352   470.3    4.346      34.831
2015    4        7    12  35    3.7388   470.1    4.354      34.817
2015    4        7    12  41    3.7424   469.9    4.362      34.803
2015    4        7    12  47    3.7460   469.7    4.371      34.790
2015    4        7    12  52    3.7496   469.6    4.379      34.777
2015    4        7    12  58    3.7532   469.4    4.387      34.764
2015    4        7    13   4    3.7569   469.2    4.395      34.752
2015    4        7    13   9    3.7606   469.0    4.404      34.741
2015    4        7    13  15    3.7643   468.8    4.412      34.730
2015    4        7    13  21    3.7680   468.6    4.421      34.719
2015    4        7    13  27    3.7718   468.5    4.429      34.709
2015    4        7    13  32    3.7755   468.3    4.438      34.699
2015    4        7    13  38    3.7793   468.1    4.447      34.690
2015    4        7    13  44    3.7832   467.9    4.455      34.681
2015    4        7    13  50    3.7870   467.7    4.464      34.673
2015    4        7    13  55    3.7909   467.6    4.473      34.665
2015    4        7    14   1    3.7948   467.4    4.482      34.657
2015    4        7    14   7    3.7987   467.2    4.490      34.650
2015    4        7    14  12    3.8026   467.1    4.499      34.643
2015    4        7    14  18    3.8065   466.9    4.508      34.636
2015    4        7    14  24    3.8105   466.7    4.517      34.630
2015    4        7    14  30    3.8145   466.6    4.526      34.625
2015    4        7    14  35    3.8185   466.4    4.535      34.619
2015    4        7    14  41    3.8225   466.2    4.544      34.614
2015    4        7    14  47    3.8265   466.1    4.553      34.609
2015    4        7    14  52    3.8305   465.9    4.562      34.605
2015    4        7    14  58    3.8345   465.8    4.572      34.601
2015    4        7    15   4    3.8386   465.6    4.581      34.597
2015    4        7    15  10    3.8426   465.4    4.590      34.593
2015    4        7    15  15    3.8466   465.3    4.599      34.589
2015    4        7    15  21    3.8507   465.1    4.608      34.586
2015    4        7    15  27    3.8547   465.0    4.617      34.583
2015    4        7    15  32    3.8588   464.8    4.626      34.579
2015    4        7    15  38    3.8628   464.7    4.635      34.576
2015    4        7    15  44    3.8668   464.5    4.644      34.573
2015    4        7    15  50    3.8709   464.4    4.653      34.571
2015    4        7    15  55    3.8749   464.3    4.662      34.568
2015    4        7    16   1    3.8789   464.1    4.671      34.565
2015    4        7    16   7    3.8830   464.0    4.680      34.562
2015    4        7    16  12    3.8870   463.8    4.689      34.560
2015    4        7    16  18    3.8910   463.7    4.698      34.557
2015    4        7    16  24    3.8951   463.5    4.706      34.554
2015    4        7    16  30    3.8991   463.4    4.715      34.552
2015    4        7    16  35    3.9031   463.3    4.724      34.549
2015    4        7    16  41    3.9072   463.1    4.732      34.547
2015    4        7    16  47    3.9112   463.0    4.741      34.544
2015    4        7    16  52    3.9152   462.9    4.750      34.542
2015    4        7    16  58    3.9193   462.7    4.758      34.539
2015    4        7    17   4    3.9233   462.6    4.767      34.537
2015    4        7    17  10    3.9273   462.5    4.775      34.534
2015    4        7    17  15    3.9314   462.3    4.783      34.532
2015    4        7    17  21    3.9354   462.2    4.792      34.529
2015    4        7    17  27    3.9395   462.1    4.800      34.527
2015    4        7    17  32    3.9435   461.9    4.808      34.525
2015    4        7    17  38    3.9476   461.8    4.817      34.523
2015    4        7    17  44    3.9516   461.7    4.825      34.521
2015    4        7    17  50    3.9557   461.5    4.833      34.519
2015    4        7    17  55    3.9598   461.4    4.841      34.517
2015    4        7    18   1    3.9638   461.3    4.849      34.515
2015    4        7    18   7    3.9679   461.2    4.857      34.514
2015    4        7    18  12    3.9720   461.0    4.866      34.512
2015    4        7    18  18    3.9761   460.9    4.874      34.511
2015    4        7    18  24    3.9802   460.8    4.882      34.509
2015    4        7    18  30    3.9842   460.7    4.890      34.508
2015    4        7    18  35    3.9883   460.6    4.898      34.507
2015    4        7    18  41    3.9924   460.4    4.905      34.507
2015    4        7    18  47    3.9965   460.3    4.913      34.506
2015    4        7    18  52    4.0006   460.2    4.921      34.506
2015    4        7    18  58    4.0048   460.1    4.929      34.506
2015    4        7    19   4    4.0089   460.0    4.937      34.506
2015    4        7    19  10    4.0130   459.8    4.945      34.506
2015    4        7    19  15    4.0171   459.7    4.953      34.506
2015    4        7    19  21    4.0213   459.6    4.960      34.507
2015    4        7    19  27    4.0254   459.5    4.968      34.508
2015    4        7    19  32    4.0296   459.4    4.976      34.509
2015    4        7    19  38    4.0337   459.3    4.984      34.510
2015    4        7    19  44    4.0379   459.2    4.991      34.511
2015    4        7    19  50    4.0420   459.1    4.999      34.513
2015    4        7    19  55    4.0462   459.0    5.007      34.515
2015    4        7    20   1    4.0504   458.8    5.014      34.517
2015    4        7    20   7    4.0546   458.7    5.022      34.519
2015    4        7    20  12    4.0588   458.6    5.030      34.521
2015    4        7    20  18    4.0630   458.5    5.037      34.524
2015    4        7    20  24    4.0672   458.4    5.045      34.526
2015    4        7    20  30    4.0714   458.3    5.053      34.529
2015    4        7    20  35    4.0756   458.2    5.060      34.532
2015    4        7    20  41    4.0799   458.1    5.068      34.535
2015    4        7    20  47    4.0841   458.0    5.075      34.539
2015    4        7    20  53    4.0883   457.9    5.083      34.542
2015    4        7    20  58    4.0926   457.8    5.090      34.546
2015    4        7    21   4    4.0968   457.7    5.098      34.550
2015    4        7    21  10    4.1011   457.6    5.105      34.554
2015    4        7    21  15    4.1053   457.5    5.113      34.558
2015    4        7    21  21    4.1096   457.4    5.120      34.562
2015    4        7    21  27    4.1138   457.3    5.127      34.566
2015    4        7    21  33    4.1181   457.2    5.135      34.571
2015    4        7    21  38    4.1224   457.1    5.142      34.575
2015    4        7    21  44    4.1266   457.0    5.150      34.580
2015    4        7    21  50    4.1309   456.9    5.157      34.585
2015    4        7    21  55    4.1352   456.8    5.164      34.590
2015    4        7    22   1    4.1395   456.7    5.171      34.595
2015    4        7    22   7    4.1438   456.6    5.179      34.600
2015    4        7    22  13    4.1480   456.5    5.186      34.605
2015    4        7    22  18    4.1523   456.4    5.193      34.611
2015    4        7    22  24    4.1566   456.3    5.200      34.616
2015    4        7    22  30    4.1609   456.3    5.207      34.621
2015    4        7    22  35    4.1652   456.2    5.214      34.627
2015    4        7    22  41    4.1695   456.1    5.221      34.633
2015    4        7    22  47    4.1737   456.0    5.229      34.638
2015    4        7    22  53    4.1780   455.9    5.236      34.644
2015    4        7    22  58    4.1823   455.8    5.243      34.650
2015    4        7    23   4    4.1866   455.7    5.250      34.656
2015    4        7    23  10    4.1909   455.6    5.257      34.662
2015    4        7    23  15    4.1951   455.6    5.264      34.668
2015    4        7    23  21    4.1994   455.5    5.271      34.674
2015    4        7    23  27    4.2037   455.4    5.277      34.680
2015    4        7    23  33    4.2079   455.3    5.284      34.687
2015    4        7    23  38    4.2122   455.2    5.291      34.693
2015    4        7    23  44    4.2165   455.1    5.298      34.700
2015    4        7    23  50    4.2207   455.1    5.305      34.706
2015    4        7    23  55    4.2250   455.0    5.312      34.713
2015    4        8     0   1    4.2292   454.9    5.319      34.720
2015    4        8     0   7    4.2335   454.8    5.326      34.727
2015    4        8     0  13    4.2377   454.7    5.332      34.733
2015    4        8     0  18    4.2419   454.7    5.339      34.741
2015    4        8     0  24    4.2462   454.6    5.346      34.748
2015    4        8     0  30    4.2504   454.5    5.353      34.755
2015    4        8     0  35    4.2546   454.4    5.360      34.762
2015    4        8     0  41    4.2588   454.4    5.367      34.770
2015    4        8     0  47    4.2630   454.3    5.373      34.778
2015    4        8     0  53    4.2672   454.2    5.380      34.785
2015    4        8     0  58    4.2714   454.1    5.387      34.793
2015    4        8     1   4    4.2756   454.1    5.394      34.801
2015    4        8     1  10    4.2798   454.0    5.401      34.810
2015    4        8     1  15    4.2839   453.9    5.407      34.818
2015    4        8     1  21    4.2881   453.9    5.414      34.827
2015    4        8     1  27    4.2923   453.8    5.421      34.835
2015    4        8     1  33    4.2964   453.7    5.428      34.844
2015    4        8     1  38    4.3006   453.7    5.434      34.853
2015    4        8     1  44    4.3047   453.6    5.441      34.862
2015    4        8     1  50    4.3088   453.5    5.448      34.871
2015    4        8     1  55    4.3130   453.5    5.455      34.881
2015    4        8     2   1    4.3171   453.4    5.461      34.890
2015    4        8     2   7    4.3212   453.3    5.468      34.900
2015    4        8     2  13    4.3253   453.3    5.475      34.910
2015    4        8     2  18    4.3294   453.2    5.481      34.920
2015    4        8     2  24    4.3335   453.1    5.488      34.930
2015    4        8     2  30    4.3376   453.1    5.494      34.940
2015    4        8     2  35    4.3417   453.0    5.501      34.950
2015    4        8     2  41    4.3457   453.0    5.507      34.961
2015    4        8     2  47    4.3498   452.9    5.514      34.971
2015    4        8     2  53    4.3539   452.8    5.520      34.982
2015    4        8     2  58    4.3579   452.8    5.526      34.993
2015    4        8     3   4    4.3620   452.7    5.533      35.004
2015    4        8     3  10    4.3660   452.7    5.539      35.015
2015    4        8     3  16    4.3700   452.6    5.545      35.026
2015    4        8     3  21    4.3741   452.6    5.551      35.037
2015    4        8     3  27    4.3781   452.5    5.558      35.048
2015    4        8     3  33    4.3821   452.4    5.564      35.060
2015    4        8     3  38    4.3861   452.4    5.570      35.071
2015    4        8     3  44    4.3901   452.3    5.576      35.083
2015    4        8     3  50    4.3941   452.3    5.582      35.094
2015    4        8     3  56    4.3981   452.2    5.588      35.106
2015    4        8     4   1    4.4021   452.2    5.593      35.117
2015    4        8     4   7    4.4061   452.1    5.599      35.129
2015    4        8     4  13    4.4101   452.1    5.605      35.141
2015    4        8     4  18    4.4141   452.0    5.611      35.152
2015    4        8     4  24    4.4181   452.0    5.617      35.164
2015    4        8     4  30    4.4221   451.9    5.622      35.176
2015    4        8     4  36    4.4260   451.9    5.628      35.188
2015    4        8     4  41    4.4300   451.8    5.633      35.200
2015    4        8     4  47    4.4340   451.8    5.639      35.211
2015    4        8     4  53    4.4380   451.7    5.644      35.223
2015    4        8     4  58    4.4419   451.7    5.650      35.235
2015    4        8     5   4    4.4459   451.6    5.655      35.247
2015    4        8     5  10    4.4499   451.6    5.661      35.258
2015    4        8     5  16    4.4538   451.5    5.666      35.270
2015    4        8     5  21    4.4578   451.5    5.671      35.282
2015    4        8     5  27    4.4618   451.4    5.677      35.294
2015    4        8     5  33    4.4658   451.4    5.682      35.306
2015    4        8     5  38    4.4697   451.3    5.687      35.318
2015    4        8     5  44    4.4737   451.3    5.692      35.329
2015    4        8     5  50    4.4777   451.2    5.698      35.341
2015    4        8     5  56    4.4817   451.2    5.703      35.353
2015    4        8     6   1    4.4857   451.2    5.708      35.365
2015    4        8     6   7    4.4897   451.1    5.713      35.378
2015    4        8     6  13    4.4937   451.1    5.718      35.390
2015    4        8     6  18    4.4977   451.0    5.724      35.402
2015    4        8     6  24    4.5017   451.0    5.729      35.415
2015    4        8     6  30    4.5057   450.9    5.734      35.428
2015    4        8     6  36    4.5097   450.9    5.739      35.441
2015    4        8     6  41    4.5137   450.9    5.744      35.454
2015    4        8     6  47    4.5176   450.8    5.749      35.467
2015    4        8     6  53    4.5216   450.8    5.754      35.481
2015    4        8     6  58    4.5255   450.8    5.759      35.495
2015    4        8     7   4    4.5295   450.7    5.764      35.509
2015    4        8     7  10    4.5334   450.7    5.768      35.523
2015    4        8     7  16    4.5373   450.6    5.773      35.537
2015    4        8     7  21    4.5412   450.6    5.778      35.552
2015    4        8     7  27    4.5450   450.6    5.783      35.566
2015    4        8     7  33    4.5489   450.5    5.787      35.581
2015    4        8     7  38    4.5528   450.5    5.792      35.595
2015    4        8     7  44    4.5566   450.5    5.796      35.610
2015    4        8     7  50    4.5604   450.4    5.801      35.624
2015    4        8     7  56    4.5642   450.4    5.806      35.638
2015    4        8     8   1    4.5680   450.4    5.810      35.653
2015    4        8     8   7    4.5718   450.3    5.815      35.667
2015    4        8     8  13    4.5755   450.3    5.819      35.681
2015    4        8     8  18    4.5793   450.3    5.824      35.695
2015    4        8     8  24    4.5830   450.3    5.828      35.709
2015    4        8     8  30    4.5867   450.2    5.832      35.723
2015    4        8     8  36    4.5904   450.2    5.837      35.737
2015    4        8     8  41    4.5941   450.2    5.841      35.751
2015    4        8     8  47    4.5978   450.1    5.846      35.765
2015    4        8     8  53    4.6015   450.1    5.850      35.779
2015    4        8     8  58    4.6052   450.1    5.854      35.792
2015    4        8     9   4    4.6088   450.1    5.859      35.806
2015    4        8     9  10    4.6125   450.0    5.863      35.820
2015    4        8     9  16    4.6161   450.0    5.867      35.833
2015    4        8     9  21    4.6197   450.0    5.872      35.847
2015    4        8     9  27    4.6233   449.9    5.876      35.861
2015    4        8     9  33    4.6269   449.9    5.880      35.875
2015    4        8     9  39    4.6305   449.9    5.884      35.889
2015    4        8     9  44    4.6341   449.9    5.889      35.903
2015    4        8     9  50    4.6377   449.8    5.893      35.917
2015    4        8     9  56    4.6412   449.8    5.897      35.931
2015    4        8    10   1    4.6448   449.8    5.901      35.945
2015    4        8    10   7    4.6483   449.8    5.906      35.960
2015    4        8    10  13    4.6519   449.8    5.910      35.974
2015    4        8    10  19    4.6554   449.7    5.914      35.989
2015    4        8    10  24    4.6589   449.7    5.918      36.004
2015    4        8    10  30    4.6624   449.7    5.923      36.019
2015    4        8    10  36    4.6659   449.7    5.927      36.034
2015    4        8    10  41    4.6694   449.6    5.931      36.049
2015    4        8    10  47    4.6729   449.6    5.935      36.065
2015    4        8    10  53    4.6763   449.6    5.939      36.080
2015    4        8    10  59    4.6798   449.6    5.943      36.097
2015    4        8    11   4    4.6833   449.6    5.948      36.113
2015    4        8    11  10    4.6867   449.6    5.952      36.129
2015    4        8    11  16    4.6902   449.5    5.956      36.146
2015    4        8    11  21    4.6936   449.5    5.960      36.163
2015    4        8    11  27    4.6970   449.5    5.964      36.180
2015    4        8    11  33    4.7004   449.5    5.968      36.198
2015    4        8    11  39    4.7039   449.5    5.972      36.215
2015    4        8    11  44    4.7073   449.4    5.977      36.233
2015    4        8    11  50    4.7107   449.4    5.981      36.251
2015    4        8    11  56    4.7141   449.4    5.985      36.270
2015    4        8    12   1    4.7175   449.4    5.989      36.288
2015    4        8    12   7    4.7209   449.4    5.993      36.307
2015    4        8    12  13    4.7243   449.4    5.997      36.326
2015    4        8    12  19    4.7276   449.4    6.001      36.345
2015    4        8    12  24    4.7310   449.4    6.005      36.365
2015    4        8    12  30    4.7344   449.3    6.010      36.384
2015    4        8    12  36    4.7378   449.3    6.014      36.404
2015    4        8    12  41    4.7412   449.3    6.018      36.423
2015    4        8    12  47    4.7446   449.3    6.022      36.443
2015    4        8    12  53    4.7480   449.3    6.026      36.463
2015    4        8    12  59    4.7514   449.3    6.031      36.483
2015    4        8    13   4    4.7548   449.3    6.035      36.504
2015    4        8    13  10    4.7582   449.3    6.039      36.524
2015    4        8    13  16    4.7616   449.3    6.044      36.545
2015    4        8    13  21    4.7650   449.2    6.048      36.566
2015    4        8    13  27    4.7684   449.2    6.052      36.588
2015    4        8    13  33    4.7718   449.2    6.057      36.609
2015    4        8    13  39    4.7752   449.2    6.061      36.631
2015    4        8    13  44    4.7786   449.2    6.065      36.654
2015    4        8    13  50    4.7820   449.2    6.070      36.677
2015    4        8    13  56    4.7854   449.2    6.074      36.700
2015    4        8    14   1    4.7887   449.2    6.078      36.725
2015    4        8    14   7    4.7920   449.2    6.082      36.749
2015    4        8    14  13    4.7953   449.2    6.085      36.774
2015    4        8    14  19    4.7986   449.3    6.089      36.799
2015    4        8    14  24    4.8018   449.3    6.093      36.825
2015    4        8    14  30    4.8050   449.3    6.096      36.850
2015    4        8    14  36    4.8082   449.3    6.099      36.874
2015    4        8    14  41    4.8113   449.3    6.103      36.899
2015    4        8    14  47    4.8145   449.3    6.106      36.923
2015    4        8    14  53    4.8176   449.3    6.109      36.947
2015    4        8    14  59    4.8207   449.3    6.112      36.971
2015    4        8    15   4    4.8237   449.3    6.115      36.994
2015    4        8    15  10    4.8268   449.3    6.118      37.017
2015    4        8    15  16    4.8298   449.3    6.120      37.040
2015    4        8    15  22    4.8329   449.3    6.123      37.062
2015    4        8    15  27    4.8359   449.3    6.126      37.084
2015    4        8    15  33    4.8389   449.3    6.128      37.105
2015    4        8    15  39    4.8418   449.3    6.131      37.127
2015    4        8    15  44    4.8448   449.3    6.133      37.148
2015    4        8    15  50    4.8478   449.3    6.136      37.168
2015    4        8    15  56    4.8507   449.3    6.138      37.188
2015    4        8    16   2    4.8536   449.3    6.140      37.208
2015    4        8    16   7    4.8566   449.3    6.143      37.228
2015    4        8    16  13    4.8595   449.4    6.145      37.247
2015    4        8    16  19    4.8624   449.4    6.147      37.266
2015    4        8    16  24    4.8653   449.4    6.149      37.285
2015    4        8    16  30    4.8681   449.4    6.152      37.304
2015    4        8    16  36    4.8710   449.4    6.154      37.322
2015    4        8    16  42    4.8739   449.4    6.156      37.341
2015    4        8    16  47    4.8767   449.4    6.158      37.359
2015    4        8    16  53    4.8796   449.4    6.160      37.377
2015    4        8    16  59    4.8824   449.4    6.162      37.394
2015    4        8    17   4    4.8852   449.4    6.164      37.412
2015    4        8    17  10    4.8880   449.4    6.166      37.430
2015    4        8    17  16    4.8908   449.4    6.168      37.448
2015    4        8    17  22    4.8936   449.4    6.170      37.465
2015    4        8    17  27    4.8964   449.4    6.172      37.483
2015    4        8    17  33    4.8991   449.4    6.174      37.501
2015    4        8    17  39    4.9019   449.5    6.176      37.519
2015    4        8    17  44    4.9046   449.5    6.178      37.536
2015    4        8    17  50    4.9074   449.5    6.180      37.555
2015    4        8    17  56    4.9101   449.5    6.181      37.573
2015    4        8    18   2    4.9128   449.5    6.183      37.591
2015    4        8    18   7    4.9155   449.5    6.185      37.610
2015    4        8    18  13    4.9182   449.5    6.187      37.628
2015    4        8    18  19    4.9209   449.5    6.189      37.647
2015    4        8    18  24    4.9236   449.5    6.191      37.667
2015    4        8    18  30    4.9262   449.5    6.193      37.686
2015    4        8    18  36    4.9289   449.5    6.195      37.706
2015    4        8    18  42    4.9315   449.6    6.197      37.726
2015    4        8    18  47    4.9342   449.6    6.199      37.747
2015    4        8    18  53    4.9368   449.6    6.201      37.768
2015    4        8    18  59    4.9395   449.6    6.203      37.789
2015    4        8    19   4    4.9421   449.6    6.205      37.810
2015    4        8    19  10    4.9448   449.6    6.207      37.832
2015    4        8    19  16    4.9474   449.6    6.209      37.855
2015    4        8    19  22    4.9500   449.6    6.211      37.877
2015    4        8    19  27    4.9526   449.7    6.213      37.900
2015    4        8    19  33    4.9552   449.7    6.216      37.923
2015    4        8    19  39    4.9578   449.7    6.218      37.947
2015    4        8    19  45    4.9604   449.7    6.220      37.971
2015    4        8    19  50    4.9630   449.7    6.222      37.995
2015    4        8    19  56    4.9656   449.7    6.224      38.019
2015    4        8    20   2    4.9682   449.8    6.227      38.044
2015    4        8    20   7    4.9708   449.8    6.229      38.069
2015    4        8    20  13    4.9734   449.8    6.231      38.094
2015    4        8    20  19    4.9760   449.8    6.234      38.119
2015    4        8    20  25    4.9786   449.8    6.236      38.145
2015    4        8    20  30    4.9811   449.9    6.239      38.171
2015    4        8    20  36    4.9837   449.9    6.241      38.197
2015    4        8    20  42    4.9863   449.9    6.244      38.223
2015    4        8    20  47    4.9888   449.9    6.246      38.250
2015    4        8    20  53    4.9914   449.9    6.249      38.277
2015    4        8    20  59    4.9939   450.0    6.251      38.304
2015    4        8    21   5    4.9964   450.0    6.253      38.332
2015    4        8    21  10    4.9989   450.0    6.256      38.360
2015    4        8    21  16    5.0014   450.0    6.258      38.388
2015    4        8    21  22    5.0038   450.1    6.260      38.417
2015    4        8    21  27    5.0063   450.1    6.262      38.446
2015    4        8    21  33    5.0087   450.1    6.264      38.476
2015    4        8    21  39    5.0111   450.2    6.266      38.505
2015    4        8    21  45    5.0135   450.2    6.268      38.534
2015    4        8    21  50    5.0158   450.2    6.270      38.563
2015    4        8    21  56    5.0181   450.2    6.272      38.591
2015    4        8    22   2    5.0204   450.3    6.273      38.619
2015    4        8    22   7    5.0227   450.3    6.275      38.647
2015    4        8    22  13    5.0250   450.3    6.276      38.675
2015    4        8    22  19    5.0273   450.3    6.278      38.703
2015    4        8    22  25    5.0296   450.4    6.279      38.730
2015    4        8    22  30    5.0318   450.4    6.281      38.757
2015    4        8    22  36    5.0340   450.4    6.282      38.784
2015    4        8    22  42    5.0363   450.5    6.283      38.811
2015    4        8    22  47    5.0385   450.5    6.285      38.837
2015    4        8    22  53    5.0407   450.5    6.286      38.864
2015    4        8    22  59    5.0429   450.5    6.287      38.890
2015    4        8    23   5    5.0451   450.6    6.288      38.916
2015    4        8    23  10    5.0473   450.6    6.289      38.942
2015    4        8    23  16    5.0495   450.6    6.290      38.968
2015    4        8    23  22    5.0516   450.7    6.292      38.993
2015    4        8    23  27    5.0538   450.7    6.293      39.019
2015    4        8    23  33    5.0559   450.7    6.294      39.044
2015    4        8    23  39    5.0580   450.7    6.294      39.069
2015    4        8    23  45    5.0602   450.8    6.295      39.094
2015    4        8    23  50    5.0623   450.8    6.296      39.119
2015    4        8    23  56    5.0644   450.8    6.297      39.143
2015    4        9     0   2    5.0664   450.9    6.298      39.167
2015    4        9     0   7    5.0685   450.9    6.298      39.191
2015    4        9     0  13    5.0706   450.9    6.299      39.215
2015    4        9     0  19    5.0726   451.0    6.300      39.238
2015    4        9     0  25    5.0747   451.0    6.300      39.262
2015    4        9     0  30    5.0767   451.0    6.301      39.284
2015    4        9     0  36    5.0787   451.0    6.301      39.307
2015    4        9     0  42    5.0807   451.1    6.302      39.330
2015    4        9     0  47    5.0827   451.1    6.303      39.352
2015    4        9     0  53    5.0847   451.1    6.303      39.375
2015    4        9     0  59    5.0867   451.2    6.304      39.397
2015    4        9     1   5    5.0887   451.2    6.304      39.419
2015    4        9     1  10    5.0907   451.2    6.305      39.441
2015    4        9     1  16    5.0927   451.3    6.305      39.463
2015    4        9     1  22    5.0947   451.3    6.306      39.485
2015    4        9     1  27    5.0966   451.3    6.306      39.507
2015    4        9     1  33    5.0986   451.3    6.307      39.529
2015    4        9     1  39    5.1006   451.4    6.308      39.551
2015    4        9     1  45    5.1026   451.4    6.308      39.574
2015    4        9     1  50    5.1045   451.4    6.309      39.596
2015    4        9     1  56    5.1065   451.5    6.310      39.618
2015    4        9     2   2    5.1085   451.5    6.311      39.641
2015    4        9     2   7    5.1105   451.5    6.311      39.664
2015    4        9     2  13    5.1125   451.6    6.312      39.687
2015    4        9     2  19    5.1145   451.6    6.313      39.711
2015    4        9     2  25    5.1165   451.6    6.314      39.734
2015    4        9     2  30    5.1185   451.7    6.316      39.758
2015    4        9     2  36    5.1205   451.7    6.317      39.783
2015    4        9     2  42    5.1225   451.7    6.318      39.808
2015    4        9     2  48    5.1245   451.8    6.319      39.833
2015    4        9     2  53    5.1265   451.8    6.321      39.858
2015    4        9     2  59    5.1285   451.8    6.322      39.885
2015    4        9     3   5    5.1305   451.9    6.324      39.911
2015    4        9     3  10    5.1325   451.9    6.325      39.939
2015    4        9     3  16    5.1344   451.9    6.327      39.966
2015    4        9     3  22    5.1364   452.0    6.329      39.995
2015    4        9     3  28    5.1384   452.0    6.330      40.024
2015    4        9     3  33    5.1403   452.0    6.332      40.053
2015    4        9     3  39    5.1422   452.1    6.333      40.083
2015    4        9     3  45    5.1441   452.1    6.335      40.114
2015    4        9     3  50    5.1460   452.2    6.336      40.146
2015    4        9     3  56    5.1478   452.2    6.338      40.178
2015    4        9     4   2    5.1497   452.3    6.339      40.210
2015    4        9     4   8    5.1515   452.3    6.340      40.243
2015    4        9     4  13    5.1533   452.3    6.342      40.276
2015    4        9     4  19    5.1551   452.4    6.343      40.309
2015    4        9     4  25    5.1569   452.4    6.344      40.341
2015    4        9     4  30    5.1587   452.5    6.345      40.373
2015    4        9     4  36    5.1605   452.5    6.346      40.405
2015    4        9     4  42    5.1622   452.5    6.347      40.436
2015    4        9     4  48    5.1640   452.6    6.347      40.467
2015    4        9     4  53    5.1657   452.6    6.348      40.498
2015    4        9     4  59    5.1675   452.6    6.349      40.528
2015    4        9     5   5    5.1692   452.7    6.349      40.558
2015    4        9     5  10    5.1709   452.7    6.350      40.588
2015    4        9     5  16    5.1727   452.8    6.351      40.617
2015    4        9     5  22    5.1744   452.8    6.351      40.646
2015    4        9     5  28    5.1761   452.8    6.351      40.675
2015    4        9     5  33    5.1778   452.9    6.352      40.704
2015    4        9     5  39    5.1795   452.9    6.352      40.732
2015    4        9     5  45    5.1812   453.0    6.353      40.760
2015    4        9     5  50    5.1830   453.0    6.353      40.787
2015    4        9     5  56    5.1847   453.0    6.353      40.815
2015    4        9     6   2    5.1864   453.1    6.353      40.842
2015    4        9     6   8    5.1881   453.1    6.353      40.869
2015    4        9     6  13    5.1898   453.2    6.354      40.895
2015    4        9     6  19    5.1915   453.2    6.354      40.922
2015    4        9     6  25    5.1932   453.2    6.354      40.948
2015    4        9     6  30    5.1949   453.3    6.354      40.974
2015    4        9     6  36    5.1965   453.3    6.354      41.000
2015    4        9     6  42    5.1982   453.4    6.353      41.026
2015    4        9     6  48    5.1999   453.4    6.353      41.052
2015    4        9     6  53    5.2015   453.4    6.353      41.077
2015    4        9     6  59    5.2032   453.5    6.353      41.102
2015    4        9     7   5    5.2048   453.5    6.352      41.126
2015    4        9     7  10    5.2064   453.6    6.352      41.150
2015    4        9     7  16    5.2080   453.6    6.351      41.174
2015    4        9     7  22    5.2096   453.6    6.351      41.197
2015    4        9     7  28    5.2112   453.7    6.350      41.220
2015    4        9     7  33    5.2128   453.7    6.350      41.242
2015    4        9     7  39    5.2143   453.8    6.349      41.264
2015    4        9     7  45    5.2159   453.8    6.349      41.286
2015    4        9     7  50    5.2175   453.8    6.348      41.307
2015    4        9     7  56    5.2190   453.9    6.347      41.328
2015    4        9     8   2    5.2205   453.9    6.347      41.349
2015    4        9     8   8    5.2221   454.0    6.346      41.370
2015    4        9     8  13    5.2236   454.0    6.345      41.390
2015    4        9     8  19    5.2251   454.0    6.344      41.410
2015    4        9     8  25    5.2266   454.1    6.344      41.430
2015    4        9     8  30    5.2281   454.1    6.343      41.450
2015    4        9     8  36    5.2296   454.1    6.342      41.469
2015    4        9     8  42    5.2311   454.2    6.342      41.488
2015    4        9     8  48    5.2325   454.2    6.341      41.508
2015    4        9     8  53    5.2340   454.2    6.340      41.527
2015    4        9     8  59    5.2355   454.3    6.340      41.545
2015    4        9     9   5    5.2370   454.3    6.339      41.564
2015    4        9     9  10    5.2384   454.3    6.339      41.583
2015    4        9     9  16    5.2399   454.4    6.339      41.602
2015    4        9     9  22    5.2413   454.4    6.338      41.621
2015    4        9     9  28    5.2428   454.4    6.338      41.640
2015    4        9     9  33    5.2443   454.5    6.338      41.659
2015    4        9     9  39    5.2457   454.5    6.338      41.678
2015    4        9     9  45    5.2472   454.5    6.338      41.697
2015    4        9     9  51    5.2487   454.6    6.338      41.717
2015    4        9     9  56    5.2502   454.6    6.338      41.737
2015    4        9    10   2    5.2517   454.6    6.339      41.757
2015    4        9    10   8    5.2532   454.7    6.339      41.777
2015    4        9    10  13    5.2547   454.7    6.340      41.798
2015    4        9    10  19    5.2562   454.7    6.341      41.820
2015    4        9    10  25    5.2577   454.8    6.342      41.842
2015    4        9    10  31    5.2593   454.8    6.343      41.864
2015    4        9    10  36    5.2609   454.8    6.344      41.888
2015    4        9    10  42    5.2624   454.9    6.345      41.912
2015    4        9    10  48    5.2640   454.9    6.347      41.936
2015    4        9    10  53    5.2657   454.9    6.348      41.962
2015    4        9    10  59    5.2673   454.9    6.350      41.988
2015    4        9    11   5    5.2689   455.0    6.351      42.015
2015    4        9    11  11    5.2706   455.0    6.353      42.043
2015    4        9    11  16    5.2722   455.1    6.355      42.073
2015    4        9    11  22    5.2739   455.1    6.357      42.103
2015    4        9    11  28    5.2755   455.1    6.358      42.134
2015    4        9    11  33    5.2772   455.2    6.360      42.166
2015    4        9    11  39    5.2789   455.2    6.362      42.199
2015    4        9    11  45    5.2806   455.2    6.363      42.232
2015    4        9    11  51    5.2822   455.3    6.365      42.265
2015    4        9    11  56    5.2839   455.3    6.366      42.299
2015    4        9    12   2    5.2856   455.4    6.368      42.332
2015    4        9    12   8    5.2872   455.4    6.369      42.365
2015    4        9    12  13    5.2888   455.5    6.370      42.398
2015    4        9    12  19    5.2905   455.5    6.371      42.430
2015    4        9    12  25    5.2921   455.5    6.372      42.463
2015    4        9    12  31    5.2937   455.6    6.373      42.494
2015    4        9    12  36    5.2953   455.6    6.373      42.524
2015    4        9    12  42    5.2969   455.7    6.374      42.554
2015    4        9    12  48    5.2985   455.7    6.375      42.583
2015    4        9    12  53    5.3001   455.8    6.375      42.611
2015    4        9    12  59    5.3016   455.8    6.375      42.639
2015    4        9    13   5    5.3032   455.8    6.376      42.666
2015    4        9    13  11    5.3048   455.9    6.376      42.692
2015    4        9    13  16    5.3063   455.9    6.376      42.718
2015    4        9    13  22    5.3079   456.0    6.376      42.744
2015    4        9    13  28    5.3094   456.0    6.376      42.768
2015    4        9    13  33    5.3110   456.1    6.376      42.793
2015    4        9    13  39    5.3125   456.1    6.376      42.816
2015    4        9    13  45    5.3141   456.2    6.376      42.840
2015    4        9    13  51    5.3156   456.2    6.375      42.863
2015    4        9    13  56    5.3172   456.2    6.375      42.885
2015    4        9    14   2    5.3187   456.3    6.375      42.907
2015    4        9    14   8    5.3202   456.3    6.375      42.929
2015    4        9    14  13    5.3218   456.4    6.374      42.950
2015    4        9    14  19    5.3233   456.4    6.374      42.971
2015    4        9    14  25    5.3249   456.4    6.373      42.991
2015    4        9    14  31    5.3264   456.5    6.373      43.012
2015    4        9    14  36    5.3279   456.5    6.372      43.031
2015    4        9    14  42    5.3294   456.6    6.372      43.051
2015    4        9    14  48    5.3310   456.6    6.371      43.070
2015    4        9    14  53    5.3325   456.7    6.370      43.089
2015    4        9    14  59    5.3340   456.7    6.370      43.107
2015    4        9    15   5    5.3355   456.7    6.369      43.125
2015    4        9    15  11    5.3370   456.8    6.368      43.143
2015    4        9    15  16    5.3385   456.8    6.368      43.161
2015    4        9    15  22    5.3400   456.9    6.367      43.179
2015    4        9    15  28    5.3416   456.9    6.366      43.196
2015    4        9    15  33    5.3431   456.9    6.365      43.213
2015    4        9    15  39    5.3446   457.0    6.365      43.230
2015    4        9    15  45    5.3461   457.0    6.364      43.246
2015    4        9    15  51    5.3476   457.1    6.363      43.263
2015    4        9    15  56    5.3491   457.1    6.362      43.279
2015    4        9    16   2    5.3506   457.1    6.361      43.296
2015    4        9    16   8    5.3521   457.2    6.361      43.312
2015    4        9    16  13    5.3536   457.2    6.360      43.328
2015    4        9    16  19    5.3551   457.3    6.359      43.344
2015    4        9    16  25    5.3567   457.3    6.358      43.360
2015    4        9    16  31    5.3582   457.3    6.358      43.377
2015    4        9    16  36    5.3597   457.4    6.357      43.393
2015    4        9    16  42    5.3612   457.4    6.356      43.409
2015    4        9    16  48    5.3628   457.4    6.356      43.426
2015    4        9    16  54    5.3643   457.5    6.355      43.443
2015    4        9    16  59    5.3659   457.5    6.355      43.459
2015    4        9    17   5    5.3675   457.6    6.354      43.476
2015    4        9    17  11    5.3690   457.6    6.354      43.494
2015    4        9    17  16    5.3706   457.6    6.354      43.511
2015    4        9    17  22    5.3722   457.7    6.354      43.529
2015    4        9    17  28    5.3739   457.7    6.354      43.547
2015    4        9    17  34    5.3755   457.7    6.354      43.566
2015    4        9    17  39    5.3772   457.8    6.354      43.584
2015    4        9    17  45    5.3788   457.8    6.354      43.604
2015    4        9    17  51    5.3805   457.8    6.355      43.623
2015    4        9    17  56    5.3823   457.9    6.355      43.643
2015    4        9    18   2    5.3840   457.9    6.356      43.664
2015    4        9    18   8    5.3858   458.0    6.356      43.685
2015    4        9    18  14    5.3876   458.0    6.357      43.706
2015    4        9    18  19    5.3894   458.0    6.358      43.728
2015    4        9    18  25    5.3913   458.1    6.359      43.751
2015    4        9    18  31    5.3931   458.1    6.360      43.774
2015    4        9    18  36    5.3950   458.2    6.361      43.798
2015    4        9    18  42    5.3969   458.2    6.363      43.822
2015    4        9    18  48    5.3989   458.3    6.364      43.847
2015    4        9    18  54    5.4008   458.3    6.366      43.872
2015    4        9    18  59    5.4028   458.3    6.367      43.898
2015    4        9    19   5    5.4048   458.4    6.369      43.924
2015    4        9    19  11    5.4068   458.4    6.370      43.951
2015    4        9    19  16    5.4088   458.5    6.372      43.979
2015    4        9    19  22    5.4109   458.5    6.374      44.007
2015    4        9    19  28    5.4129   458.6    6.376      44.035
2015    4        9    19  34    5.4149   458.6    6.377      44.064
2015    4        9    19  39    5.4169   458.7    6.379      44.093
2015    4        9    19  45    5.4189   458.7    6.381      44.122
2015    4        9    19  51    5.4209   458.8    6.382      44.151
2015    4        9    19  56    5.4229   458.8    6.384      44.181
2015    4        9    20   2    5.4249   458.9    6.385      44.209
2015    4        9    20   8    5.4269   458.9    6.387      44.238
2015    4        9    20  14    5.4289   459.0    6.389      44.266
2015    4        9    20  19    5.4309   459.1    6.390      44.294
2015    4        9    20  25    5.4329   459.1    6.392      44.322
2015    4        9    20  31    5.4349   459.2    6.393      44.350
2015    4        9    20  36    5.4369   459.2    6.395      44.378
2015    4        9    20  42    5.4389   459.3    6.396      44.406
2015    4        9    20  48    5.4408   459.3    6.398      44.434
2015    4        9    20  54    5.4428   459.4    6.399      44.461
2015    4        9    20  59    5.4448   459.4    6.400      44.489
2015    4        9    21   5    5.4468   459.5    6.402      44.517
2015    4        9    21  11    5.4488   459.6    6.403      44.546
2015    4        9    21  16    5.4507   459.6    6.404      44.574
2015    4        9    21  22    5.4527   459.7    6.405      44.603
2015    4        9    21  28    5.4547   459.8    6.406      44.631
2015    4        9    21  34    5.4567   459.8    6.407      44.660
2015    4        9    21  39    5.4586   459.9    6.408      44.689
2015    4        9    21  45    5.4606   459.9    6.409      44.718
2015    4        9    21  51    5.4625   460.0    6.410      44.746
2015    4        9    21  56    5.4645   460.1    6.410      44.774
2015    4        9    22   2    5.4664   460.1    6.411      44.803
2015    4        9    22   8    5.4684   460.2    6.412      44.831
2015    4        9    22  14    5.4703   460.3    6.412      44.858
2015    4        9    22  19    5.4723   460.3    6.413      44.885
2015    4        9    22  25    5.4742   460.4    6.413      44.912
2015    4        9    22  31    5.4761   460.5    6.414      44.939
2015    4        9    22  36    5.4781   460.5    6.414      44.966
2015    4        9    22  42    5.4800   460.6    6.415      44.992
2015    4        9    22  48    5.4820   460.7    6.415      45.018
2015    4        9    22  54    5.4839   460.7    6.416      45.044
2015    4        9    22  59    5.4859   460.8    6.416      45.070
2015    4        9    23   5    5.4878   460.9    6.416      45.095
2015    4        9    23  11    5.4898   460.9    6.417      45.120
2015    4        9    23  16    5.4917   461.0    6.417      45.145
2015    4        9    23  22    5.4936   461.1    6.417      45.170
2015    4        9    23  28    5.4956   461.1    6.418      45.195
2015    4        9    23  34    5.4975   461.2    6.418      45.219
2015    4        9    23  39    5.4995   461.3    6.418      45.244
2015    4        9    23  45    5.5015   461.3    6.418      45.268
2015    4        9    23  51    5.5034   461.4    6.419      45.293
2015    4        9    23  57    5.5054   461.5    6.419      45.317
2015    4       10     0   2    5.5074   461.5    6.419      45.342
2015    4       10     0   8    5.5094   461.6    6.420      45.367
2015    4       10     0  14    5.5114   461.7    6.420      45.392
2015    4       10     0  19    5.5134   461.7    6.420      45.416
2015    4       10     0  25    5.5154   461.8    6.421      45.441
2015    4       10     0  31    5.5175   461.9    6.421      45.467
2015    4       10     0  37    5.5195   462.0    6.422      45.492
2015    4       10     0  42    5.5216   462.0    6.422      45.518
2015    4       10     0  48    5.5237   462.1    6.423      45.543
2015    4       10     0  54    5.5258   462.2    6.423      45.569
2015    4       10     0  59    5.5279   462.3    6.424      45.596
2015    4       10     1   5    5.5301   462.3    6.424      45.622
2015    4       10     1  11    5.5323   462.4    6.425      45.649
2015    4       10     1  17    5.5345   462.5    6.426      45.676
2015    4       10     1  22    5.5367   462.6    6.427      45.703
2015    4       10     1  28    5.5389   462.6    6.428      45.731
2015    4       10     1  34    5.5412   462.7    6.429      45.759
2015    4       10     1  39    5.5435   462.8    6.430      45.787
2015    4       10     1  45    5.5458   462.9    6.431      45.816
2015    4       10     1  51    5.5482   463.0    6.432      45.845
2015    4       10     1  57    5.5506   463.1    6.434      45.874
2015    4       10     2   2    5.5530   463.1    6.435      45.904
2015    4       10     2   8    5.5554   463.2    6.437      45.935
2015    4       10     2  14    5.5578   463.3    6.438      45.966
2015    4       10     2  19    5.5602   463.4    6.440      45.997
2015    4       10     2  25    5.5627   463.5    6.442      46.029
2015    4       10     2  31    5.5651   463.6    6.444      46.062
2015    4       10     2  37    5.5675   463.7    6.446      46.096
2015    4       10     2  42    5.5699   463.8    6.448      46.131
2015    4       10     2  48    5.5723   463.9    6.450      46.166
2015    4       10     2  54    5.5747   464.0    6.451      46.202
2015    4       10     2  59    5.5771   464.1    6.453      46.240
2015    4       10     3   5    5.5795   464.2    6.455      46.279
2015    4       10     3  11    5.5818   464.3    6.457      46.318
2015    4       10     3  17    5.5841   464.4    6.459      46.359
2015    4       10     3  22    5.5864   464.5    6.460      46.399
2015    4       10     3  28    5.5887   464.6    6.462      46.440
2015    4       10     3  34    5.5909   464.7    6.463      46.481
2015    4       10     3  39    5.5932   464.8    6.465      46.522
2015    4       10     3  45    5.5954   464.9    6.466      46.562
2015    4       10     3  51    5.5976   465.0    6.467      46.602
2015    4       10     3  57    5.5998   465.1    6.469      46.642
2015    4       10     4   2    5.6020   465.2    6.470      46.682
2015    4       10     4   8    5.6042   465.3    6.471      46.722
2015    4       10     4  14    5.6064   465.5    6.472      46.762
2015    4       10     4  19    5.6086   465.6    6.473      46.802
2015    4       10     4  25    5.6108   465.7    6.474      46.842
2015    4       10     4  31    5.6130   465.8    6.475      46.881
2015    4       10     4  37    5.6152   465.9    6.476      46.921
2015    4       10     4  42    5.6174   466.0    6.477      46.960
2015    4       10     4  48    5.6197   466.1    6.478      47.000
2015    4       10     4  54    5.6219   466.2    6.479      47.039
2015    4       10     4  59    5.6241   466.3    6.480      47.078
2015    4       10     5   5    5.6264   466.4    6.481      47.118
2015    4       10     5  11    5.6286   466.6    6.482      47.157
2015    4       10     5  17    5.6309   466.7    6.483      47.197
2015    4       10     5  22    5.6331   466.8    6.484      47.236
2015    4       10     5  28    5.6354   466.9    6.485      47.276
2015    4       10     5  34    5.6377   467.0    6.485      47.317
2015    4       10     5  39    5.6399   467.1    6.486      47.357
2015    4       10     5  45    5.6422   467.2    6.487      47.398
2015    4       10     5  51    5.6445   467.3    6.488      47.439
2015    4       10     5  57    5.6467   467.5    6.488      47.480
2015    4       10     6   2    5.6489   467.6    6.489      47.522
2015    4       10     6   8    5.6512   467.7    6.490      47.564
2015    4       10     6  14    5.6534   467.8    6.490      47.607
2015    4       10     6  19    5.6556   467.9    6.491      47.649
2015    4       10     6  25    5.6578   468.1    6.491      47.692
2015    4       10     6  31    5.6599   468.2    6.491      47.735
2015    4       10     6  37    5.6620   468.3    6.492      47.777
2015    4       10     6  42    5.6641   468.4    6.492      47.819
2015    4       10     6  48    5.6662   468.6    6.492      47.861
2015    4       10     6  54    5.6683   468.7    6.492      47.902
2015    4       10     7   0    5.6703   468.8    6.492      47.943
2015    4       10     7   5    5.6724   468.9    6.492      47.983
2015    4       10     7  11    5.6744   469.1    6.492      48.024
2015    4       10     7  17    5.6764   469.2    6.492      48.063
2015    4       10     7  22    5.6784   469.3    6.492      48.103
2015    4       10     7  28    5.6805   469.4    6.491      48.142
2015    4       10     7  34    5.6825   469.5    6.491      48.180
2015    4       10     7  40    5.6845   469.7    6.491      48.219
2015    4       10     7  45    5.6865   469.8    6.491      48.257
2015    4       10     7  51    5.6885   469.9    6.491      48.295
2015    4       10     7  57    5.6905   470.0    6.490      48.332
2015    4       10     8   2    5.6925   470.2    6.490      48.369
2015    4       10     8   8    5.6946   470.3    6.490      48.407
2015    4       10     8  14    5.6966   470.4    6.490      48.443
2015    4       10     8  20    5.6987   470.5    6.490      48.480
2015    4       10     8  25    5.7008   470.7    6.490      48.517
2015    4       10     8  31    5.7029   470.8    6.490      48.554
2015    4       10     8  37    5.7050   470.9    6.490      48.591
2015    4       10     8  42    5.7072   471.1    6.490      48.628
2015    4       10     8  48    5.7094   471.2    6.490      48.665
2015    4       10     8  54    5.7116   471.3    6.490      48.702
2015    4       10     9   0    5.7138   471.4    6.490      48.739
2015    4       10     9   5    5.7161   471.6    6.491      48.777
2015    4       10     9  11    5.7183   471.7    6.491      48.815
2015    4       10     9  17    5.7206   471.8    6.492      48.854
2015    4       10     9  22    5.7230   472.0    6.492      48.892
2015    4       10     9  28    5.7253   472.1    6.493      48.932
2015    4       10     9  34    5.7276   472.2    6.494      48.972
2015    4       10     9  40    5.7300   472.4    6.495      49.013
2015    4       10     9  45    5.7323   472.5    6.496      49.054
2015    4       10     9  51    5.7346   472.6    6.497      49.096
2015    4       10     9  57    5.7369   472.8    6.498      49.139
2015    4       10    10   2    5.7392   472.9    6.500      49.183
2015    4       10    10   8    5.7414   473.1    6.501      49.228
2015    4       10    10  14    5.7436   473.2    6.502      49.273
2015    4       10    10  20    5.7458   473.4    6.503      49.320
2015    4       10    10  25    5.7479   473.5    6.504      49.367
2015    4       10    10  31    5.7500   473.7    6.505      49.416
2015    4       10    10  37    5.7521   473.9    6.506      49.465
2015    4       10    10  42    5.7541   474.0    6.507      49.514
2015    4       10    10  48    5.7561   474.2    6.507      49.564
2015    4       10    10  54    5.7581   474.3    6.508      49.612
2015    4       10    11   0    5.7601   474.5    6.509      49.661
2015    4       10    11   5    5.7620   474.7    6.509      49.709
2015    4       10    11  11    5.7639   474.8    6.509      49.756
2015    4       10    11  17    5.7659   475.0    6.510      49.804
2015    4       10    11  22    5.7678   475.1    6.510      49.851
2015    4       10    11  28    5.7697   475.3    6.511      49.897
2015    4       10    11  34    5.7717   475.4    6.511      49.944
2015    4       10    11  40    5.7736   475.6    6.511      49.990
2015    4       10    11  45    5.7756   475.8    6.512      50.036
2015    4       10    11  51    5.7776   475.9    6.512      50.082
2015    4       10    11  57    5.7796   476.1    6.513      50.130
2015    4       10    12   2    5.7817   476.3    6.513      50.177
2015    4       10    12   8    5.7838   476.4    6.514      50.225
2015    4       10    12  14    5.7859   476.6    6.515      50.274
2015    4       10    12  20    5.7881   476.8    6.515      50.323
2015    4       10    12  25    5.7903   476.9    6.516      50.373
2015    4       10    12  31    5.7925   477.1    6.517      50.426
2015    4       10    12  37    5.7947   477.3    6.517      50.479
2015    4       10    12  42    5.7968   477.5    6.517      50.535
2015    4       10    12  48    5.7989   477.7    6.517      50.591
2015    4       10    12  54    5.8010   477.9    6.517      50.648
2015    4       10    13   0    5.8030   478.1    6.517      50.704
2015    4       10    13   5    5.8049   478.3    6.517      50.760
2015    4       10    13  11    5.8068   478.5    6.516      50.815
2015    4       10    13  17    5.8086   478.7    6.515      50.869
2015    4       10    13  22    5.8103   478.9    6.514      50.923
2015    4       10    13  28    5.8120   479.1    6.513      50.976
2015    4       10    13  34    5.8136   479.3    6.511      51.029
2015    4       10    13  40    5.8152   479.5    6.510      51.081
2015    4       10    13  45    5.8168   479.6    6.508      51.133
2015    4       10    13  51    5.8183   479.8    6.507      51.185
2015    4       10    13  57    5.8199   480.0    6.505      51.236
2015    4       10    14   3    5.8214   480.2    6.503      51.287
2015    4       10    14   8    5.8228   480.4    6.502      51.338
2015    4       10    14  14    5.8243   480.6    6.500      51.389
2015    4       10    14  20    5.8258   480.8    6.498      51.439
2015    4       10    14  25    5.8273   481.0    6.496      51.490
2015    4       10    14  31    5.8287   481.2    6.494      51.540
2015    4       10    14  37    5.8302   481.4    6.493      51.590
2015    4       10    14  43    5.8316   481.6    6.491      51.639
2015    4       10    14  48    5.8331   481.7    6.489      51.689
2015    4       10    14  54    5.8346   481.9    6.487      51.739
2015    4       10    15   0    5.8361   482.1    6.485      51.788
2015    4       10    15   5    5.8376   482.3    6.484      51.838
2015    4       10    15  11    5.8391   482.5    6.482      51.888
2015    4       10    15  17    5.8407   482.7    6.481      51.939
2015    4       10    15  23    5.8423   482.9    6.479      51.991
2015    4       10    15  28    5.8439   483.1    6.478      52.043
2015    4       10    15  34    5.8456   483.3    6.476      52.095
2015    4       10    15  40    5.8473   483.5    6.475      52.148
2015    4       10    15  45    5.8491   483.7    6.474      52.201
2015    4       10    15  51    5.8509   483.9    6.473      52.256
2015    4       10    15  57    5.8527   484.1    6.471      52.311
2015    4       10    16   3    5.8545   484.3    6.470      52.367
2015    4       10    16   8    5.8563   484.5    6.469      52.424
2015    4       10    16  14    5.8581   484.8    6.467      52.481
2015    4       10    16  20    5.8599   485.0    6.465      52.538
2015    4       10    16  25    5.8616   485.2    6.464      52.594
2015    4       10    16  31    5.8633   485.4    6.462      52.649
2015    4       10    16  37    5.8650   485.7    6.459      52.703
2015    4       10    16  43    5.8666   485.9    6.457      52.755
2015    4       10    16  48    5.8682   486.1    6.455      52.807
2015    4       10    16  54    5.8697   486.3    6.452      52.857
2015    4       10    17   0    5.8712   486.6    6.449      52.906
2015    4       10    17   5    5.8726   486.8    6.446      52.955
2015    4       10    17  11    5.8740   487.0    6.443      53.002
2015    4       10    17  17    5.8754   487.2    6.440      53.048
2015    4       10    17  23    5.8768   487.5    6.437      53.094
2015    4       10    17  28    5.8781   487.7    6.434      53.140
2015    4       10    17  34    5.8794   487.9    6.431      53.184
2015    4       10    17  40    5.8807   488.1    6.428      53.228
2015    4       10    17  45    5.8820   488.4    6.424      53.272
2015    4       10    17  51    5.8833   488.6    6.421      53.315
2015    4       10    17  57    5.8845   488.8    6.418      53.358
2015    4       10    18   3    5.8857   489.1    6.414      53.401
2015    4       10    18   8    5.8869   489.3    6.411      53.443
2015    4       10    18  14    5.8881   489.5    6.408      53.486
2015    4       10    18  20    5.8893   489.8    6.405      53.528
2015    4       10    18  25    5.8905   490.0    6.402      53.569
2015    4       10    18  31    5.8916   490.2    6.398      53.611
2015    4       10    18  37    5.8928   490.5    6.395      53.653
2015    4       10    18  43    5.8939   490.7    6.393      53.696
2015    4       10    18  48    5.8950   490.9    6.390      53.739
2015    4       10    18  54    5.8961   491.2    6.387      53.783
2015    4       10    19   0    5.8972   491.4    6.384      53.827
2015    4       10    19   5    5.8982   491.7    6.382      53.872
2015    4       10    19  11    5.8992   491.9    6.379      53.918
2015    4       10    19  17    5.9002   492.2    6.376      53.965
2015    4       10    19  23    5.9012   492.4    6.373      54.014
2015    4       10    19  28    5.9021   492.7    6.371      54.064
2015    4       10    19  34    5.9028   493.0    6.367      54.116
2015    4       10    19  40    5.9035   493.2    6.364      54.169
2015    4       10    19  45    5.9040   493.5    6.360      54.224
2015    4       10    19  51    5.9045   493.8    6.356      54.277
2015    4       10    19  57    5.9048   494.1    6.352      54.329
2015    4       10    20   3    5.9051   494.4    6.347      54.381
2015    4       10    20   8    5.9052   494.7    6.343      54.431
2015    4       10    20  14    5.9052   495.0    6.337      54.481
2015    4       10    20  20    5.9051   495.2    6.332      54.530
2015    4       10    20  25    5.9049   495.5    6.326      54.578
2015    4       10    20  31    5.9047   495.8    6.321      54.625
2015    4       10    20  37    5.9043   496.1    6.315      54.672
2015    4       10    20  43    5.9039   496.4    6.308      54.718
2015    4       10    20  48    5.9034   496.7    6.302      54.764
2015    4       10    20  54    5.9029   497.0    6.296      54.809
2015    4       10    21   0    5.9023   497.3    6.289      54.854
2015    4       10    21   6    5.9016   497.5    6.282      54.899
2015    4       10    21  11    5.9009   497.8    6.276      54.943
2015    4       10    21  17    5.9001   498.1    6.269      54.987
2015    4       10    21  23    5.8992   498.4    6.262      55.031
2015    4       10    21  28    5.8982   498.7    6.255      55.075
2015    4       10    21  34    5.8973   499.0    6.249      55.118
2015    4       10    21  40    5.8962   499.2    6.242      55.162
2015    4       10    21  46    5.8951   499.5    6.235      55.205
2015    4       10    21  51    5.8939   499.8    6.228      55.248
2015    4       10    21  57    5.8927   500.1    6.221      55.291
2015    4       10    22   3    5.8914   500.3    6.215      55.335
2015    4       10    22   8    5.8901   500.6    6.208      55.378
2015    4       10    22  14    5.8888   500.9    6.201      55.422
2015    4       10    22  20    5.8875   501.2    6.195      55.466
2015    4       10    22  26    5.8861   501.4    6.188      55.511
2015    4       10    22  31    5.8848   501.7    6.182      55.557
2015    4       10    22  37    5.8835   502.0    6.175      55.603
2015    4       10    22  43    5.8821   502.3    6.169      55.650
2015    4       10    22  48    5.8808   502.5    6.163      55.698
2015    4       10    22  54    5.8795   502.8    6.157      55.746
2015    4       10    23   0    5.8781   503.1    6.151      55.796
2015    4       10    23   6    5.8768   503.4    6.145      55.847
2015    4       10    23  11    5.8754   503.6    6.139      55.898
2015    4       10    23  17    5.8740   503.9    6.133      55.950
2015    4       10    23  23    5.8726   504.2    6.127      56.004
2015    4       10    23  28    5.8711   504.5    6.121      56.058
2015    4       10    23  34    5.8696   504.8    6.114      56.111
2015    4       10    23  40    5.8680   505.1    6.108      56.163
2015    4       10    23  46    5.8663   505.4    6.101      56.214
2015    4       10    23  51    5.8645   505.7    6.095      56.264
2015    4       10    23  57    5.8627   506.0    6.088      56.312
2015    4       11     0   3    5.8608   506.3    6.081      56.359
