year    month   day   hour  minute  B_enl V_enl   n_enl       T_enl
[year] [month] [day] [hour][minute] [nT]  [km/s]  [cm-3]      [kK]
2015    4        2     0   1    5.0713   654.9    3.399      70.777
2015    4        2     0   7    5.0691   655.1    3.396      70.787
2015    4        2     0  13    5.0669   655.3    3.393      70.797
2015    4        2     0  18    5.0647   655.4    3.390      70.806
2015    4        2     0  24    5.0626   655.6    3.387      70.815
2015    4        2     0  30    5.0604   655.7    3.384      70.823
2015    4        2     0  36    5.0582   655.9    3.381      70.832
2015    4        2     0  42    5.0560   656.1    3.378      70.840
2015    4        2     0  48    5.0539   656.2    3.375      70.848
2015    4        2     0  54    5.0517   656.4    3.372      70.856
2015    4        2     0  59    5.0496   656.5    3.369      70.863
2015    4        2     1   5    5.0474   656.7    3.366      70.871
2015    4        2     1  11    5.0453   656.9    3.363      70.878
2015    4        2     1  17    5.0431   657.0    3.360      70.885
2015    4        2     1  23    5.0410   657.2    3.357      70.892
2015    4        2     1  29    5.0388   657.3    3.354      70.899
2015    4        2     1  34    5.0367   657.5    3.351      70.905
2015    4        2     1  40    5.0346   657.7    3.348      70.912
2015    4        2     1  46    5.0325   657.8    3.345      70.918
2015    4        2     1  52    5.0303   658.0    3.342      70.924
2015    4        2     1  58    5.0282   658.1    3.339      70.930
2015    4        2     2   4    5.0261   658.3    3.336      70.937
2015    4        2     2   9    5.0240   658.4    3.333      70.943
2015    4        2     2  15    5.0219   658.6    3.330      70.949
2015    4        2     2  21    5.0197   658.7    3.327      70.954
2015    4        2     2  27    5.0176   658.9    3.324      70.960
2015    4        2     2  33    5.0155   659.0    3.322      70.966
2015    4        2     2  39    5.0134   659.2    3.319      70.972
2015    4        2     2  45    5.0113   659.3    3.316      70.978
2015    4        2     2  50    5.0092   659.5    3.313      70.984
2015    4        2     2  56    5.0071   659.6    3.310      70.990
2015    4        2     3   2    5.0049   659.8    3.307      70.996
2015    4        2     3   8    5.0028   659.9    3.304      71.002
2015    4        2     3  14    5.0007   660.1    3.301      71.008
2015    4        2     3  20    4.9986   660.2    3.299      71.014
2015    4        2     3  25    4.9965   660.4    3.296      71.021
2015    4        2     3  31    4.9944   660.5    3.293      71.028
2015    4        2     3  37    4.9923   660.7    3.290      71.034
2015    4        2     3  43    4.9902   660.8    3.287      71.041
2015    4        2     3  49    4.9881   661.0    3.285      71.049
2015    4        2     3  55    4.9860   661.1    3.282      71.056
2015    4        2     4   0    4.9839   661.2    3.279      71.063
2015    4        2     4   6    4.9818   661.4    3.276      71.071
2015    4        2     4  12    4.9797   661.5    3.274      71.079
2015    4        2     4  18    4.9776   661.7    3.271      71.087
2015    4        2     4  24    4.9755   661.8    3.268      71.095
2015    4        2     4  30    4.9734   662.0    3.265      71.103
2015    4        2     4  36    4.9713   662.1    3.263      71.111
2015    4        2     4  41    4.9692   662.2    3.260      71.119
2015    4        2     4  47    4.9671   662.4    3.257      71.127
2015    4        2     4  53    4.9650   662.5    3.255      71.135
2015    4        2     4  59    4.9629   662.7    3.252      71.143
2015    4        2     5   5    4.9608   662.8    3.249      71.151
2015    4        2     5  11    4.9587   662.9    3.247      71.159
2015    4        2     5  16    4.9565   663.1    3.244      71.167
2015    4        2     5  22    4.9544   663.2    3.242      71.175
2015    4        2     5  28    4.9523   663.4    3.239      71.182
2015    4        2     5  34    4.9502   663.5    3.236      71.190
2015    4        2     5  40    4.9481   663.6    3.234      71.197
2015    4        2     5  46    4.9460   663.8    3.231      71.204
2015    4        2     5  51    4.9439   663.9    3.228      71.211
2015    4        2     5  57    4.9418   664.0    3.226      71.218
2015    4        2     6   3    4.9396   664.2    3.223      71.224
2015    4        2     6   9    4.9375   664.3    3.221      71.231
2015    4        2     6  15    4.9354   664.5    3.218      71.237
2015    4        2     6  21    4.9334   664.6    3.215      71.243
2015    4        2     6  27    4.9313   664.7    3.213      71.249
2015    4        2     6  32    4.9292   664.9    3.210      71.255
2015    4        2     6  38    4.9271   665.0    3.208      71.260
2015    4        2     6  44    4.9250   665.1    3.205      71.266
2015    4        2     6  50    4.9230   665.2    3.203      71.271
2015    4        2     6  56    4.9209   665.4    3.200      71.276
2015    4        2     7   2    4.9188   665.5    3.198      71.281
2015    4        2     7   7    4.9168   665.6    3.195      71.286
2015    4        2     7  13    4.9147   665.8    3.193      71.291
2015    4        2     7  19    4.9127   665.9    3.191      71.295
2015    4        2     7  25    4.9106   666.0    3.188      71.299
2015    4        2     7  31    4.9086   666.2    3.186      71.303
2015    4        2     7  37    4.9065   666.3    3.183      71.307
2015    4        2     7  42    4.9045   666.4    3.181      71.310
2015    4        2     7  48    4.9024   666.5    3.178      71.313
2015    4        2     7  54    4.9004   666.7    3.176      71.316
2015    4        2     8   0    4.8983   666.8    3.173      71.319
2015    4        2     8   6    4.8963   666.9    3.171      71.321
2015    4        2     8  12    4.8942   667.0    3.169      71.323
2015    4        2     8  18    4.8922   667.1    3.166      71.325
2015    4        2     8  23    4.8902   667.3    3.164      71.327
2015    4        2     8  29    4.8881   667.4    3.161      71.328
2015    4        2     8  35    4.8861   667.5    3.159      71.330
2015    4        2     8  41    4.8841   667.6    3.156      71.331
2015    4        2     8  47    4.8820   667.8    3.154      71.332
2015    4        2     8  53    4.8800   667.9    3.152      71.334
2015    4        2     8  58    4.8780   668.0    3.149      71.335
2015    4        2     9   4    4.8760   668.1    3.147      71.336
2015    4        2     9  10    4.8740   668.2    3.144      71.337
2015    4        2     9  16    4.8720   668.3    3.142      71.338
2015    4        2     9  22    4.8699   668.5    3.140      71.340
2015    4        2     9  28    4.8680   668.6    3.137      71.341
2015    4        2     9  33    4.8660   668.7    3.135      71.343
2015    4        2     9  39    4.8640   668.8    3.132      71.345
2015    4        2     9  45    4.8620   668.9    3.130      71.347
2015    4        2     9  51    4.8600   669.0    3.128      71.349
2015    4        2     9  57    4.8580   669.2    3.125      71.351
2015    4        2    10   3    4.8560   669.3    3.123      71.354
2015    4        2    10   9    4.8540   669.4    3.121      71.356
2015    4        2    10  14    4.8520   669.5    3.119      71.359
2015    4        2    10  20    4.8501   669.6    3.116      71.361
2015    4        2    10  26    4.8481   669.7    3.114      71.364
2015    4        2    10  32    4.8461   669.8    3.112      71.367
2015    4        2    10  38    4.8441   669.9    3.110      71.370
2015    4        2    10  44    4.8421   670.1    3.107      71.373
2015    4        2    10  49    4.8401   670.2    3.105      71.376
2015    4        2    10  55    4.8381   670.3    3.103      71.379
2015    4        2    11   1    4.8361   670.4    3.101      71.381
2015    4        2    11   7    4.8341   670.5    3.098      71.384
2015    4        2    11  13    4.8321   670.6    3.096      71.387
2015    4        2    11  19    4.8301   670.7    3.094      71.389
2015    4        2    11  24    4.8281   670.8    3.092      71.392
2015    4        2    11  30    4.8261   670.9    3.089      71.395
2015    4        2    11  36    4.8241   671.0    3.087      71.397
2015    4        2    11  42    4.8221   671.1    3.085      71.400
2015    4        2    11  48    4.8201   671.3    3.083      71.402
2015    4        2    11  54    4.8181   671.4    3.080      71.404
2015    4        2    12   0    4.8161   671.5    3.078      71.407
2015    4        2    12   5    4.8141   671.6    3.076      71.409
2015    4        2    12  11    4.8121   671.7    3.074      71.412
2015    4        2    12  17    4.8101   671.8    3.072      71.414
2015    4        2    12  23    4.8081   671.9    3.070      71.417
2015    4        2    12  29    4.8061   672.0    3.067      71.419
2015    4        2    12  35    4.8042   672.1    3.065      71.422
2015    4        2    12  40    4.8022   672.2    3.063      71.424
2015    4        2    12  46    4.8002   672.3    3.061      71.426
2015    4        2    12  52    4.7982   672.4    3.059      71.429
2015    4        2    12  58    4.7963   672.5    3.057      71.431
2015    4        2    13   4    4.7943   672.6    3.055      71.433
2015    4        2    13  10    4.7923   672.7    3.053      71.435
2015    4        2    13  15    4.7904   672.8    3.051      71.437
2015    4        2    13  21    4.7884   672.9    3.049      71.439
2015    4        2    13  27    4.7864   673.0    3.047      71.440
2015    4        2    13  33    4.7845   673.1    3.045      71.442
2015    4        2    13  39    4.7825   673.2    3.043      71.443
2015    4        2    13  45    4.7805   673.3    3.041      71.443
2015    4        2    13  51    4.7786   673.4    3.039      71.444
2015    4        2    13  56    4.7766   673.5    3.037      71.444
2015    4        2    14   2    4.7747   673.6    3.035      71.444
2015    4        2    14   8    4.7727   673.7    3.033      71.444
2015    4        2    14  14    4.7708   673.8    3.031      71.443
2015    4        2    14  20    4.7688   673.8    3.029      71.443
2015    4        2    14  26    4.7669   673.9    3.027      71.442
2015    4        2    14  31    4.7649   674.0    3.025      71.441
2015    4        2    14  37    4.7630   674.1    3.023      71.440
2015    4        2    14  43    4.7610   674.2    3.021      71.438
2015    4        2    14  49    4.7591   674.3    3.019      71.437
2015    4        2    14  55    4.7572   674.4    3.017      71.435
2015    4        2    15   1    4.7553   674.5    3.015      71.434
2015    4        2    15   6    4.7534   674.6    3.013      71.432
2015    4        2    15  12    4.7515   674.7    3.011      71.430
2015    4        2    15  18    4.7496   674.7    3.009      71.429
2015    4        2    15  24    4.7477   674.8    3.007      71.427
2015    4        2    15  30    4.7458   674.9    3.005      71.425
2015    4        2    15  36    4.7439   675.0    3.003      71.424
2015    4        2    15  42    4.7420   675.1    3.001      71.422
2015    4        2    15  47    4.7402   675.2    2.999      71.421
2015    4        2    15  53    4.7383   675.3    2.998      71.419
2015    4        2    15  59    4.7364   675.4    2.996      71.418
2015    4        2    16   5    4.7346   675.4    2.994      71.416
2015    4        2    16  11    4.7327   675.5    2.992      71.415
2015    4        2    16  17    4.7308   675.6    2.990      71.413
2015    4        2    16  22    4.7290   675.7    2.988      71.411
2015    4        2    16  28    4.7271   675.8    2.986      71.410
2015    4        2    16  34    4.7253   675.9    2.984      71.408
2015    4        2    16  40    4.7234   675.9    2.983      71.406
2015    4        2    16  46    4.7215   676.0    2.981      71.405
2015    4        2    16  52    4.7197   676.1    2.979      71.403
2015    4        2    16  57    4.7178   676.2    2.977      71.401
2015    4        2    17   3    4.7160   676.3    2.975      71.400
2015    4        2    17   9    4.7141   676.3    2.973      71.398
2015    4        2    17  15    4.7123   676.4    2.972      71.396
2015    4        2    17  21    4.7104   676.5    2.970      71.395
2015    4        2    17  27    4.7086   676.6    2.968      71.393
2015    4        2    17  33    4.7067   676.7    2.966      71.392
2015    4        2    17  38    4.7049   676.7    2.964      71.390
2015    4        2    17  44    4.7030   676.8    2.962      71.389
2015    4        2    17  50    4.7012   676.9    2.961      71.388
2015    4        2    17  56    4.6994   677.0    2.959      71.387
2015    4        2    18   2    4.6975   677.0    2.957      71.386
2015    4        2    18   8    4.6957   677.1    2.955      71.385
2015    4        2    18  13    4.6939   677.2    2.953      71.384
2015    4        2    18  19    4.6920   677.3    2.952      71.383
2015    4        2    18  25    4.6902   677.3    2.950      71.382
2015    4        2    18  31    4.6884   677.4    2.948      71.381
2015    4        2    18  37    4.6865   677.5    2.947      71.381
2015    4        2    18  43    4.6847   677.5    2.945      71.380
2015    4        2    18  48    4.6829   677.6    2.943      71.379
2015    4        2    18  54    4.6810   677.7    2.941      71.378
2015    4        2    19   0    4.6792   677.8    2.940      71.377
2015    4        2    19   6    4.6774   677.8    2.938      71.376
2015    4        2    19  12    4.6755   677.9    2.936      71.375
2015    4        2    19  18    4.6737   678.0    2.935      71.374
2015    4        2    19  24    4.6718   678.0    2.933      71.372
2015    4        2    19  29    4.6700   678.1    2.931      71.371
2015    4        2    19  35    4.6682   678.2    2.930      71.369
2015    4        2    19  41    4.6663   678.2    2.928      71.367
2015    4        2    19  47    4.6645   678.3    2.926      71.365
2015    4        2    19  53    4.6626   678.4    2.925      71.362
2015    4        2    19  59    4.6608   678.4    2.923      71.360
2015    4        2    20   4    4.6590   678.5    2.921      71.357
2015    4        2    20  10    4.6571   678.6    2.920      71.354
2015    4        2    20  16    4.6553   678.6    2.918      71.351
2015    4        2    20  22    4.6534   678.7    2.916      71.347
2015    4        2    20  28    4.6516   678.8    2.915      71.344
2015    4        2    20  34    4.6498   678.8    2.913      71.340
2015    4        2    20  39    4.6480   678.9    2.912      71.336
2015    4        2    20  45    4.6461   678.9    2.910      71.332
2015    4        2    20  51    4.6443   679.0    2.908      71.328
2015    4        2    20  57    4.6425   679.1    2.907      71.324
2015    4        2    21   3    4.6407   679.1    2.905      71.319
2015    4        2    21   9    4.6389   679.2    2.904      71.315
2015    4        2    21  15    4.6371   679.2    2.902      71.310
2015    4        2    21  20    4.6353   679.3    2.900      71.306
2015    4        2    21  26    4.6335   679.3    2.899      71.301
2015    4        2    21  32    4.6317   679.4    2.897      71.296
2015    4        2    21  38    4.6299   679.5    2.896      71.291
2015    4        2    21  44    4.6282   679.5    2.894      71.286
2015    4        2    21  50    4.6264   679.6    2.893      71.281
2015    4        2    21  55    4.6246   679.6    2.891      71.276
2015    4        2    22   1    4.6229   679.7    2.890      71.271
2015    4        2    22   7    4.6211   679.7    2.888      71.266
2015    4        2    22  13    4.6194   679.8    2.887      71.261
2015    4        2    22  19    4.6176   679.8    2.885      71.256
2015    4        2    22  25    4.6159   679.9    2.884      71.250
2015    4        2    22  30    4.6141   679.9    2.882      71.245
2015    4        2    22  36    4.6124   680.0    2.881      71.240
2015    4        2    22  42    4.6107   680.1    2.879      71.235
2015    4        2    22  48    4.6090   680.1    2.878      71.229
2015    4        2    22  54    4.6072   680.2    2.876      71.224
2015    4        2    23   0    4.6055   680.2    2.875      71.219
2015    4        2    23   6    4.6038   680.3    2.873      71.214
2015    4        2    23  11    4.6021   680.3    2.872      71.208
2015    4        2    23  17    4.6004   680.4    2.870      71.203
2015    4        2    23  23    4.5988   680.4    2.869      71.198
2015    4        2    23  29    4.5971   680.5    2.867      71.193
2015    4        2    23  35    4.5954   680.5    2.866      71.188
2015    4        2    23  41    4.5937   680.6    2.864      71.184
2015    4        2    23  46    4.5920   680.6    2.863      71.179
2015    4        2    23  52    4.5904   680.7    2.862      71.174
2015    4        2    23  58    4.5887   680.7    2.860      71.170
2015    4        3     0   4    4.5871   680.7    2.859      71.165
2015    4        3     0  10    4.5854   680.8    2.857      71.161
2015    4        3     0  16    4.5838   680.8    2.856      71.157
2015    4        3     0  21    4.5821   680.9    2.855      71.153
2015    4        3     0  27    4.5805   680.9    2.853      71.149
2015    4        3     0  33    4.5788   681.0    2.852      71.145
2015    4        3     0  39    4.5772   681.0    2.850      71.141
2015    4        3     0  45    4.5755   681.1    2.849      71.138
2015    4        3     0  51    4.5739   681.1    2.848      71.134
2015    4        3     0  57    4.5723   681.2    2.846      71.131
2015    4        3     1   2    4.5706   681.2    2.845      71.127
2015    4        3     1   8    4.5690   681.2    2.844      71.124
2015    4        3     1  14    4.5674   681.3    2.842      71.120
2015    4        3     1  20    4.5657   681.3    2.841      71.117
2015    4        3     1  26    4.5641   681.4    2.840      71.114
2015    4        3     1  32    4.5625   681.4    2.839      71.110
2015    4        3     1  37    4.5608   681.5    2.837      71.107
2015    4        3     1  43    4.5592   681.5    2.836      71.103
2015    4        3     1  49    4.5576   681.5    2.835      71.100
2015    4        3     1  55    4.5559   681.6    2.833      71.096
2015    4        3     2   1    4.5543   681.6    2.832      71.093
2015    4        3     2   7    4.5526   681.6    2.831      71.089
2015    4        3     2  12    4.5510   681.7    2.830      71.085
2015    4        3     2  18    4.5494   681.7    2.828      71.081
2015    4        3     2  24    4.5477   681.8    2.827      71.077
2015    4        3     2  30    4.5461   681.8    2.826      71.073
2015    4        3     2  36    4.5444   681.8    2.825      71.068
2015    4        3     2  42    4.5428   681.9    2.824      71.063
2015    4        3     2  48    4.5412   681.9    2.822      71.058
2015    4        3     2  53    4.5395   681.9    2.821      71.053
2015    4        3     2  59    4.5379   682.0    2.820      71.048
2015    4        3     3   5    4.5362   682.0    2.819      71.042
2015    4        3     3  11    4.5346   682.0    2.818      71.036
2015    4        3     3  17    4.5329   682.1    2.816      71.030
2015    4        3     3  23    4.5313   682.1    2.815      71.024
2015    4        3     3  28    4.5297   682.1    2.814      71.017
2015    4        3     3  34    4.5280   682.1    2.813      71.010
2015    4        3     3  40    4.5264   682.2    2.812      71.003
2015    4        3     3  46    4.5248   682.2    2.810      70.996
2015    4        3     3  52    4.5232   682.2    2.809      70.988
2015    4        3     3  58    4.5215   682.3    2.808      70.980
2015    4        3     4   3    4.5199   682.3    2.807      70.972
2015    4        3     4   9    4.5183   682.3    2.806      70.964
2015    4        3     4  15    4.5167   682.3    2.804      70.956
2015    4        3     4  21    4.5151   682.4    2.803      70.947
2015    4        3     4  27    4.5135   682.4    2.802      70.938
2015    4        3     4  33    4.5119   682.4    2.801      70.929
2015    4        3     4  39    4.5104   682.4    2.800      70.919
2015    4        3     4  44    4.5088   682.4    2.798      70.910
2015    4        3     4  50    4.5072   682.5    2.797      70.900
2015    4        3     4  56    4.5057   682.5    2.796      70.891
2015    4        3     5   2    4.5041   682.5    2.795      70.881
2015    4        3     5   8    4.5026   682.5    2.794      70.871
2015    4        3     5  14    4.5011   682.6    2.792      70.861
2015    4        3     5  19    4.4995   682.6    2.791      70.851
2015    4        3     5  25    4.4980   682.6    2.790      70.841
2015    4        3     5  31    4.4965   682.6    2.789      70.831
2015    4        3     5  37    4.4950   682.6    2.787      70.821
2015    4        3     5  43    4.4935   682.7    2.786      70.811
2015    4        3     5  49    4.4920   682.7    2.785      70.802
2015    4        3     5  54    4.4905   682.7    2.784      70.792
2015    4        3     6   0    4.4890   682.7    2.783      70.782
2015    4        3     6   6    4.4876   682.7    2.782      70.772
2015    4        3     6  12    4.4861   682.7    2.780      70.763
2015    4        3     6  18    4.4846   682.8    2.779      70.753
2015    4        3     6  24    4.4831   682.8    2.778      70.744
2015    4        3     6  30    4.4817   682.8    2.777      70.734
2015    4        3     6  35    4.4802   682.8    2.776      70.725
2015    4        3     6  41    4.4788   682.8    2.775      70.716
2015    4        3     6  47    4.4773   682.8    2.774      70.708
2015    4        3     6  53    4.4759   682.9    2.772      70.699
2015    4        3     6  59    4.4745   682.9    2.771      70.691
2015    4        3     7   5    4.4730   682.9    2.770      70.683
2015    4        3     7  10    4.4716   682.9    2.769      70.675
2015    4        3     7  16    4.4702   682.9    2.768      70.667
2015    4        3     7  22    4.4688   682.9    2.767      70.660
2015    4        3     7  28    4.4674   682.9    2.766      70.653
2015    4        3     7  34    4.4660   683.0    2.765      70.646
2015    4        3     7  40    4.4646   683.0    2.764      70.640
2015    4        3     7  45    4.4632   683.0    2.763      70.634
2015    4        3     7  51    4.4618   683.0    2.762      70.628
2015    4        3     7  57    4.4604   683.0    2.761      70.622
2015    4        3     8   3    4.4590   683.0    2.760      70.617
2015    4        3     8   9    4.4577   683.0    2.760      70.612
2015    4        3     8  15    4.4563   683.1    2.759      70.607
2015    4        3     8  21    4.4549   683.1    2.758      70.603
2015    4        3     8  26    4.4536   683.1    2.757      70.599
2015    4        3     8  32    4.4522   683.1    2.756      70.594
2015    4        3     8  38    4.4508   683.1    2.755      70.591
2015    4        3     8  44    4.4495   683.1    2.755      70.587
2015    4        3     8  50    4.4481   683.1    2.754      70.583
2015    4        3     8  56    4.4468   683.1    2.753      70.579
2015    4        3     9   1    4.4454   683.1    2.753      70.576
2015    4        3     9   7    4.4441   683.2    2.752      70.572
2015    4        3     9  13    4.4427   683.2    2.751      70.568
2015    4        3     9  19    4.4414   683.2    2.750      70.565
2015    4        3     9  25    4.4400   683.2    2.750      70.561
2015    4        3     9  31    4.4386   683.2    2.749      70.557
2015    4        3     9  36    4.4373   683.2    2.748      70.552
2015    4        3     9  42    4.4359   683.2    2.748      70.548
2015    4        3     9  48    4.4345   683.2    2.747      70.543
2015    4        3     9  54    4.4332   683.2    2.746      70.538
2015    4        3    10   0    4.4318   683.2    2.746      70.532
2015    4        3    10   6    4.4304   683.2    2.745      70.527
2015    4        3    10  11    4.4290   683.2    2.744      70.521
2015    4        3    10  17    4.4276   683.2    2.744      70.514
2015    4        3    10  23    4.4263   683.2    2.743      70.507
2015    4        3    10  29    4.4249   683.2    2.742      70.500
2015    4        3    10  35    4.4235   683.2    2.742      70.493
2015    4        3    10  41    4.4221   683.2    2.741      70.485
2015    4        3    10  47    4.4207   683.2    2.740      70.477
2015    4        3    10  52    4.4194   683.2    2.739      70.468
2015    4        3    10  58    4.4180   683.2    2.739      70.459
2015    4        3    11   4    4.4166   683.2    2.738      70.450
2015    4        3    11  10    4.4153   683.2    2.737      70.441
2015    4        3    11  16    4.4139   683.2    2.736      70.431
2015    4        3    11  22    4.4125   683.2    2.736      70.421
2015    4        3    11  27    4.4112   683.2    2.735      70.411
2015    4        3    11  33    4.4098   683.2    2.734      70.400
2015    4        3    11  39    4.4085   683.2    2.733      70.389
2015    4        3    11  45    4.4072   683.2    2.732      70.378
2015    4        3    11  51    4.4058   683.2    2.731      70.366
2015    4        3    11  57    4.4045   683.2    2.731      70.355
2015    4        3    12   2    4.4032   683.2    2.730      70.343
2015    4        3    12   8    4.4019   683.2    2.729      70.330
2015    4        3    12  14    4.4005   683.2    2.728      70.318
2015    4        3    12  20    4.3992   683.2    2.727      70.305
2015    4        3    12  26    4.3979   683.2    2.726      70.292
2015    4        3    12  32    4.3966   683.2    2.725      70.279
2015    4        3    12  38    4.3953   683.2    2.724      70.266
2015    4        3    12  43    4.3940   683.2    2.724      70.252
2015    4        3    12  49    4.3927   683.2    2.723      70.239
2015    4        3    12  55    4.3914   683.1    2.722      70.225
2015    4        3    13   1    4.3901   683.1    2.721      70.211
2015    4        3    13   7    4.3888   683.1    2.720      70.197
2015    4        3    13  13    4.3876   683.1    2.719      70.183
2015    4        3    13  18    4.3863   683.1    2.718      70.169
2015    4        3    13  24    4.3850   683.1    2.717      70.155
2015    4        3    13  30    4.3837   683.1    2.716      70.141
2015    4        3    13  36    4.3825   683.1    2.715      70.127
2015    4        3    13  42    4.3812   683.1    2.714      70.113
2015    4        3    13  48    4.3799   683.0    2.714      70.100
2015    4        3    13  53    4.3787   683.0    2.713      70.087
2015    4        3    13  59    4.3775   683.0    2.712      70.074
2015    4        3    14   5    4.3762   683.0    2.711      70.062
2015    4        3    14  11    4.3750   683.0    2.710      70.050
2015    4        3    14  17    4.3738   683.0    2.710      70.039
2015    4        3    14  23    4.3726   683.0    2.709      70.028
2015    4        3    14  29    4.3714   682.9    2.708      70.018
2015    4        3    14  34    4.3702   682.9    2.707      70.008
2015    4        3    14  40    4.3690   682.9    2.707      69.999
2015    4        3    14  46    4.3678   682.9    2.706      69.991
2015    4        3    14  52    4.3667   682.9    2.706      69.983
2015    4        3    14  58    4.3655   682.9    2.705      69.976
2015    4        3    15   4    4.3644   682.8    2.705      69.970
2015    4        3    15   9    4.3633   682.8    2.704      69.964
2015    4        3    15  15    4.3621   682.8    2.704      69.959
2015    4        3    15  21    4.3610   682.8    2.703      69.954
2015    4        3    15  27    4.3599   682.8    2.703      69.950
2015    4        3    15  33    4.3588   682.8    2.703      69.947
2015    4        3    15  39    4.3577   682.8    2.702      69.943
2015    4        3    15  44    4.3566   682.8    2.702      69.941
2015    4        3    15  50    4.3555   682.7    2.702      69.938
2015    4        3    15  56    4.3544   682.7    2.702      69.935
2015    4        3    16   2    4.3533   682.7    2.701      69.933
2015    4        3    16   8    4.3522   682.7    2.701      69.931
2015    4        3    16  14    4.3511   682.7    2.701      69.929
2015    4        3    16  20    4.3500   682.7    2.701      69.926
2015    4        3    16  25    4.3489   682.7    2.701      69.924
2015    4        3    16  31    4.3477   682.7    2.700      69.921
2015    4        3    16  37    4.3466   682.6    2.700      69.919
2015    4        3    16  43    4.3455   682.6    2.700      69.915
2015    4        3    16  49    4.3443   682.6    2.700      69.912
2015    4        3    16  55    4.3432   682.6    2.699      69.908
2015    4        3    17   0    4.3420   682.6    2.699      69.904
2015    4        3    17   6    4.3408   682.6    2.699      69.900
2015    4        3    17  12    4.3397   682.6    2.698      69.895
2015    4        3    17  18    4.3385   682.6    2.698      69.889
2015    4        3    17  24    4.3373   682.5    2.698      69.883
2015    4        3    17  30    4.3361   682.5    2.698      69.877
2015    4        3    17  35    4.3349   682.5    2.697      69.870
2015    4        3    17  41    4.3336   682.5    2.697      69.862
2015    4        3    17  47    4.3324   682.5    2.696      69.854
2015    4        3    17  53    4.3312   682.5    2.696      69.846
2015    4        3    17  59    4.3299   682.5    2.696      69.836
2015    4        3    18   5    4.3287   682.4    2.695      69.827
2015    4        3    18  11    4.3274   682.4    2.695      69.817
2015    4        3    18  16    4.3262   682.4    2.694      69.806
2015    4        3    18  22    4.3249   682.4    2.694      69.795
2015    4        3    18  28    4.3237   682.4    2.693      69.783
2015    4        3    18  34    4.3224   682.4    2.693      69.771
2015    4        3    18  40    4.3211   682.3    2.692      69.758
2015    4        3    18  46    4.3199   682.3    2.691      69.744
2015    4        3    18  51    4.3186   682.3    2.691      69.731
2015    4        3    18  57    4.3173   682.3    2.690      69.716
2015    4        3    19   3    4.3160   682.2    2.690      69.701
2015    4        3    19   9    4.3148   682.2    2.689      69.686
2015    4        3    19  15    4.3135   682.2    2.688      69.671
2015    4        3    19  21    4.3122   682.2    2.688      69.655
2015    4        3    19  26    4.3110   682.1    2.687      69.639
2015    4        3    19  32    4.3097   682.1    2.686      69.623
2015    4        3    19  38    4.3084   682.1    2.686      69.607
2015    4        3    19  44    4.3072   682.1    2.685      69.590
2015    4        3    19  50    4.3059   682.0    2.684      69.574
2015    4        3    19  56    4.3047   682.0    2.684      69.557
2015    4        3    20   1    4.3034   682.0    2.683      69.540
2015    4        3    20   7    4.3022   681.9    2.682      69.524
2015    4        3    20  13    4.3010   681.9    2.682      69.508
2015    4        3    20  19    4.2998   681.9    2.681      69.491
2015    4        3    20  25    4.2986   681.8    2.681      69.475
2015    4        3    20  31    4.2974   681.8    2.680      69.460
2015    4        3    20  37    4.2962   681.8    2.680      69.444
2015    4        3    20  42    4.2951   681.7    2.679      69.429
2015    4        3    20  48    4.2939   681.7    2.679      69.415
2015    4        3    20  54    4.2928   681.6    2.678      69.400
2015    4        3    21   0    4.2916   681.6    2.678      69.386
2015    4        3    21   6    4.2905   681.6    2.677      69.373
2015    4        3    21  12    4.2894   681.5    2.677      69.360
2015    4        3    21  17    4.2883   681.5    2.676      69.347
2015    4        3    21  23    4.2872   681.5    2.676      69.335
2015    4        3    21  29    4.2861   681.4    2.676      69.323
2015    4        3    21  35    4.2850   681.4    2.675      69.311
2015    4        3    21  41    4.2839   681.4    2.675      69.300
2015    4        3    21  47    4.2828   681.3    2.675      69.290
2015    4        3    21  52    4.2817   681.3    2.674      69.280
2015    4        3    21  58    4.2807   681.2    2.674      69.270
2015    4        3    22   4    4.2796   681.2    2.674      69.261
2015    4        3    22  10    4.2785   681.2    2.674      69.252
2015    4        3    22  16    4.2775   681.1    2.673      69.244
2015    4        3    22  22    4.2764   681.1    2.673      69.236
2015    4        3    22  28    4.2753   681.1    2.673      69.228
2015    4        3    22  33    4.2743   681.0    2.673      69.221
2015    4        3    22  39    4.2732   681.0    2.672      69.213
2015    4        3    22  45    4.2722   681.0    2.672      69.206
2015    4        3    22  51    4.2711   681.0    2.672      69.199
2015    4        3    22  57    4.2700   680.9    2.672      69.192
2015    4        3    23   3    4.2690   680.9    2.671      69.185
2015    4        3    23   8    4.2679   680.9    2.671      69.178
2015    4        3    23  14    4.2668   680.8    2.671      69.171
2015    4        3    23  20    4.2657   680.8    2.671      69.164
2015    4        3    23  26    4.2646   680.8    2.670      69.156
2015    4        3    23  32    4.2635   680.8    2.670      69.149
2015    4        3    23  38    4.2624   680.7    2.670      69.141
2015    4        3    23  43    4.2613   680.7    2.670      69.133
2015    4        3    23  49    4.2602   680.7    2.669      69.125
2015    4        3    23  55    4.2590   680.6    2.669      69.116
2015    4        4     0   1    4.2578   680.6    2.669      69.108
2015    4        4     0   7    4.2567   680.6    2.668      69.098
2015    4        4     0  13    4.2555   680.6    2.668      69.089
2015    4        4     0  19    4.2542   680.5    2.667      69.079
2015    4        4     0  24    4.2530   680.5    2.667      69.068
2015    4        4     0  30    4.2518   680.5    2.667      69.057
2015    4        4     0  36    4.2505   680.5    2.666      69.045
2015    4        4     0  42    4.2493   680.4    2.666      69.033
2015    4        4     0  48    4.2480   680.4    2.665      69.020
2015    4        4     0  54    4.2467   680.4    2.665      69.007
2015    4        4     0  59    4.2454   680.4    2.664      68.993
2015    4        4     1   5    4.2441   680.3    2.664      68.979
2015    4        4     1  11    4.2428   680.3    2.663      68.964
2015    4        4     1  17    4.2415   680.3    2.663      68.949
2015    4        4     1  23    4.2402   680.2    2.662      68.933
2015    4        4     1  29    4.2388   680.2    2.662      68.917
2015    4        4     1  34    4.2375   680.1    2.661      68.900
2015    4        4     1  40    4.2362   680.1    2.661      68.882
2015    4        4     1  46    4.2349   680.1    2.660      68.865
2015    4        4     1  52    4.2335   680.0    2.660      68.847
2015    4        4     1  58    4.2322   680.0    2.659      68.829
2015    4        4     2   4    4.2309   679.9    2.659      68.811
2015    4        4     2  10    4.2296   679.9    2.658      68.793
2015    4        4     2  15    4.2283   679.8    2.658      68.774
2015    4        4     2  21    4.2270   679.8    2.657      68.756
2015    4        4     2  27    4.2257   679.7    2.657      68.737
2015    4        4     2  33    4.2244   679.7    2.657      68.719
2015    4        4     2  39    4.2231   679.6    2.656      68.701
2015    4        4     2  45    4.2218   679.6    2.656      68.683
2015    4        4     2  50    4.2206   679.5    2.656      68.665
2015    4        4     2  56    4.2193   679.5    2.656      68.648
2015    4        4     3   2    4.2181   679.4    2.656      68.631
2015    4        4     3   8    4.2169   679.4    2.655      68.615
2015    4        4     3  14    4.2157   679.3    2.655      68.599
2015    4        4     3  20    4.2145   679.3    2.655      68.583
2015    4        4     3  25    4.2134   679.2    2.655      68.568
2015    4        4     3  31    4.2122   679.1    2.655      68.554
2015    4        4     3  37    4.2111   679.1    2.655      68.540
2015    4        4     3  43    4.2099   679.0    2.655      68.527
2015    4        4     3  49    4.2088   679.0    2.655      68.515
2015    4        4     3  55    4.2077   678.9    2.655      68.503
2015    4        4     4   0    4.2066   678.9    2.655      68.492
2015    4        4     4   6    4.2055   678.8    2.655      68.481
2015    4        4     4  12    4.2043   678.8    2.655      68.470
2015    4        4     4  18    4.2032   678.7    2.655      68.459
2015    4        4     4  24    4.2021   678.7    2.655      68.448
2015    4        4     4  30    4.2010   678.6    2.655      68.436
2015    4        4     4  36    4.1999   678.6    2.655      68.424
2015    4        4     4  41    4.1987   678.5    2.655      68.412
2015    4        4     4  47    4.1976   678.4    2.654      68.400
2015    4        4     4  53    4.1965   678.4    2.654      68.387
2015    4        4     4  59    4.1953   678.3    2.654      68.374
2015    4        4     5   5    4.1942   678.3    2.654      68.361
2015    4        4     5  11    4.1930   678.2    2.654      68.347
2015    4        4     5  16    4.1919   678.2    2.653      68.333
2015    4        4     5  22    4.1907   678.1    2.653      68.318
2015    4        4     5  28    4.1895   678.1    2.653      68.303
2015    4        4     5  34    4.1883   678.0    2.652      68.288
2015    4        4     5  40    4.1871   678.0    2.652      68.272
2015    4        4     5  46    4.1859   677.9    2.652      68.256
2015    4        4     5  51    4.1847   677.9    2.651      68.239
2015    4        4     5  57    4.1835   677.8    2.651      68.222
2015    4        4     6   3    4.1823   677.8    2.650      68.205
2015    4        4     6   9    4.1810   677.7    2.650      68.186
2015    4        4     6  15    4.1798   677.7    2.649      68.168
2015    4        4     6  21    4.1785   677.6    2.648      68.148
2015    4        4     6  27    4.1772   677.6    2.648      68.129
2015    4        4     6  32    4.1759   677.5    2.647      68.108
2015    4        4     6  38    4.1746   677.4    2.647      68.087
2015    4        4     6  44    4.1733   677.4    2.646      68.066
2015    4        4     6  50    4.1720   677.3    2.645      68.044
2015    4        4     6  56    4.1707   677.3    2.644      68.021
2015    4        4     7   2    4.1693   677.2    2.644      67.998
2015    4        4     7   7    4.1680   677.1    2.643      67.975
2015    4        4     7  13    4.1666   677.1    2.642      67.951
2015    4        4     7  19    4.1653   677.0    2.641      67.927
2015    4        4     7  25    4.1639   677.0    2.641      67.902
2015    4        4     7  31    4.1625   676.9    2.640      67.878
2015    4        4     7  37    4.1611   676.8    2.639      67.853
2015    4        4     7  42    4.1598   676.8    2.638      67.828
2015    4        4     7  48    4.1584   676.7    2.638      67.803
2015    4        4     7  54    4.1570   676.6    2.637      67.778
2015    4        4     8   0    4.1556   676.6    2.636      67.754
2015    4        4     8   6    4.1543   676.5    2.636      67.729
2015    4        4     8  12    4.1529   676.4    2.635      67.705
2015    4        4     8  18    4.1515   676.3    2.635      67.681
2015    4        4     8  23    4.1502   676.3    2.634      67.657
2015    4        4     8  29    4.1488   676.2    2.634      67.633
2015    4        4     8  35    4.1475   676.1    2.633      67.610
2015    4        4     8  41    4.1462   676.1    2.633      67.588
2015    4        4     8  47    4.1448   676.0    2.633      67.566
2015    4        4     8  53    4.1435   675.9    2.633      67.544
2015    4        4     8  58    4.1422   675.8    2.632      67.523
2015    4        4     9   4    4.1409   675.8    2.632      67.502
2015    4        4     9  10    4.1396   675.7    2.632      67.482
2015    4        4     9  16    4.1383   675.6    2.632      67.462
2015    4        4     9  22    4.1369   675.5    2.632      67.443
2015    4        4     9  28    4.1356   675.5    2.632      67.424
2015    4        4     9  33    4.1343   675.4    2.632      67.406
2015    4        4     9  39    4.1330   675.3    2.632      67.387
2015    4        4     9  45    4.1316   675.2    2.632      67.370
2015    4        4     9  51    4.1303   675.2    2.632      67.353
2015    4        4     9  57    4.1290   675.1    2.632      67.336
2015    4        4    10   3    4.1277   675.0    2.632      67.320
2015    4        4    10   9    4.1263   674.9    2.633      67.304
2015    4        4    10  14    4.1250   674.8    2.633      67.288
2015    4        4    10  20    4.1237   674.8    2.633      67.272
2015    4        4    10  26    4.1224   674.7    2.633      67.256
2015    4        4    10  32    4.1211   674.6    2.633      67.240
2015    4        4    10  38    4.1198   674.5    2.633      67.224
2015    4        4    10  44    4.1185   674.4    2.633      67.208
2015    4        4    10  49    4.1172   674.4    2.633      67.192
2015    4        4    10  55    4.1158   674.3    2.633      67.175
2015    4        4    11   1    4.1145   674.2    2.633      67.158
2015    4        4    11   7    4.1132   674.1    2.633      67.141
2015    4        4    11  13    4.1119   674.1    2.633      67.125
2015    4        4    11  19    4.1105   674.0    2.633      67.107
2015    4        4    11  24    4.1092   673.9    2.632      67.090
2015    4        4    11  30    4.1078   673.8    2.632      67.071
2015    4        4    11  36    4.1064   673.8    2.632      67.051
2015    4        4    11  42    4.1050   673.7    2.632      67.031
2015    4        4    11  48    4.1037   673.6    2.631      67.009
2015    4        4    11  54    4.1023   673.5    2.631      66.987
2015    4        4    12   0    4.1008   673.5    2.630      66.964
2015    4        4    12   5    4.0994   673.4    2.630      66.940
2015    4        4    12  11    4.0980   673.3    2.630      66.915
2015    4        4    12  17    4.0966   673.2    2.629      66.890
2015    4        4    12  23    4.0951   673.1    2.629      66.864
2015    4        4    12  29    4.0937   673.0    2.628      66.838
2015    4        4    12  35    4.0922   673.0    2.627      66.811
2015    4        4    12  40    4.0907   672.9    2.627      66.783
2015    4        4    12  46    4.0892   672.8    2.626      66.755
2015    4        4    12  52    4.0878   672.7    2.626      66.727
2015    4        4    12  58    4.0863   672.6    2.625      66.698
2015    4        4    13   4    4.0848   672.5    2.625      66.669
2015    4        4    13  10    4.0832   672.4    2.624      66.639
2015    4        4    13  15    4.0817   672.3    2.624      66.610
2015    4        4    13  21    4.0802   672.2    2.623      66.580
2015    4        4    13  27    4.0787   672.1    2.623      66.551
2015    4        4    13  33    4.0772   672.0    2.622      66.521
2015    4        4    13  39    4.0756   671.9    2.621      66.491
2015    4        4    13  45    4.0741   671.8    2.621      66.462
2015    4        4    13  50    4.0726   671.7    2.621      66.433
2015    4        4    13  56    4.0711   671.6    2.620      66.404
2015    4        4    14   2    4.0696   671.5    2.620      66.375
2015    4        4    14   8    4.0681   671.4    2.619      66.346
2015    4        4    14  14    4.0666   671.3    2.619      66.319
2015    4        4    14  20    4.0652   671.2    2.619      66.291
2015    4        4    14  26    4.0637   671.1    2.619      66.264
2015    4        4    14  31    4.0623   671.0    2.618      66.238
2015    4        4    14  37    4.0609   670.9    2.618      66.212
2015    4        4    14  43    4.0595   670.8    2.618      66.187
2015    4        4    14  49    4.0581   670.6    2.618      66.163
2015    4        4    14  55    4.0568   670.5    2.618      66.139
2015    4        4    15   1    4.0554   670.4    2.618      66.116
2015    4        4    15   6    4.0540   670.3    2.618      66.093
2015    4        4    15  12    4.0527   670.2    2.618      66.070
2015    4        4    15  18    4.0513   670.1    2.618      66.046
2015    4        4    15  24    4.0499   670.0    2.618      66.023
2015    4        4    15  30    4.0486   669.9    2.618      65.999
2015    4        4    15  36    4.0472   669.8    2.618      65.974
2015    4        4    15  41    4.0459   669.7    2.618      65.950
2015    4        4    15  47    4.0445   669.6    2.618      65.925
2015    4        4    15  53    4.0432   669.5    2.618      65.901
2015    4        4    15  59    4.0418   669.3    2.618      65.876
2015    4        4    16   5    4.0405   669.2    2.618      65.852
2015    4        4    16  11    4.0391   669.1    2.618      65.827
2015    4        4    16  17    4.0377   669.0    2.618      65.802
2015    4        4    16  22    4.0364   668.9    2.618      65.777
2015    4        4    16  28    4.0350   668.8    2.618      65.753
2015    4        4    16  34    4.0335   668.7    2.618      65.728
2015    4        4    16  40    4.0321   668.6    2.618      65.702
2015    4        4    16  46    4.0307   668.5    2.618      65.677
2015    4        4    16  52    4.0292   668.4    2.618      65.652
2015    4        4    16  57    4.0278   668.3    2.618      65.626
2015    4        4    17   3    4.0263   668.2    2.618      65.600
2015    4        4    17   9    4.0248   668.1    2.618      65.574
2015    4        4    17  15    4.0233   668.0    2.617      65.547
2015    4        4    17  21    4.0217   667.9    2.617      65.520
2015    4        4    17  27    4.0202   667.8    2.617      65.493
2015    4        4    17  32    4.0187   667.7    2.617      65.465
2015    4        4    17  38    4.0171   667.6    2.616      65.436
2015    4        4    17  44    4.0156   667.5    2.616      65.407
2015    4        4    17  50    4.0140   667.4    2.616      65.377
2015    4        4    17  56    4.0124   667.2    2.615      65.347
2015    4        4    18   2    4.0109   667.1    2.615      65.316
2015    4        4    18   7    4.0093   667.0    2.615      65.284
2015    4        4    18  13    4.0077   666.9    2.614      65.252
2015    4        4    18  19    4.0061   666.8    2.614      65.220
2015    4        4    18  25    4.0045   666.7    2.613      65.188
2015    4        4    18  31    4.0029   666.6    2.613      65.155
2015    4        4    18  37    4.0013   666.4    2.612      65.121
2015    4        4    18  43    3.9997   666.3    2.612      65.087
2015    4        4    18  48    3.9981   666.2    2.612      65.053
2015    4        4    18  54    3.9965   666.1    2.611      65.019
2015    4        4    19   0    3.9949   666.0    2.611      64.984
2015    4        4    19   6    3.9934   665.8    2.610      64.949
2015    4        4    19  12    3.9918   665.7    2.610      64.914
2015    4        4    19  18    3.9902   665.6    2.609      64.878
2015    4        4    19  23    3.9886   665.5    2.609      64.842
2015    4        4    19  29    3.9869   665.3    2.608      64.805
2015    4        4    19  35    3.9853   665.2    2.608      64.769
2015    4        4    19  41    3.9837   665.1    2.607      64.731
2015    4        4    19  47    3.9821   664.9    2.607      64.694
2015    4        4    19  53    3.9805   664.8    2.606      64.656
2015    4        4    19  58    3.9789   664.7    2.606      64.618
2015    4        4    20   4    3.9773   664.5    2.605      64.580
2015    4        4    20  10    3.9757   664.4    2.604      64.541
2015    4        4    20  16    3.9740   664.3    2.604      64.502
2015    4        4    20  22    3.9724   664.1    2.603      64.464
2015    4        4    20  28    3.9708   664.0    2.603      64.425
2015    4        4    20  34    3.9692   663.9    2.602      64.386
2015    4        4    20  39    3.9676   663.7    2.602      64.348
2015    4        4    20  45    3.9659   663.6    2.602      64.310
2015    4        4    20  51    3.9643   663.4    2.601      64.272
2015    4        4    20  57    3.9627   663.3    2.601      64.235
2015    4        4    21   3    3.9611   663.2    2.601      64.198
2015    4        4    21   9    3.9595   663.0    2.600      64.162
2015    4        4    21  14    3.9580   662.9    2.600      64.127
2015    4        4    21  20    3.9564   662.7    2.600      64.093
2015    4        4    21  26    3.9548   662.6    2.600      64.060
2015    4        4    21  32    3.9533   662.4    2.600      64.027
2015    4        4    21  38    3.9518   662.3    2.600      63.996
2015    4        4    21  44    3.9502   662.1    2.600      63.966
2015    4        4    21  49    3.9487   662.0    2.601      63.937
2015    4        4    21  55    3.9472   661.8    2.601      63.909
2015    4        4    22   1    3.9458   661.7    2.601      63.883
2015    4        4    22   7    3.9443   661.5    2.602      63.857
2015    4        4    22  13    3.9428   661.4    2.602      63.833
2015    4        4    22  19    3.9414   661.2    2.603      63.809
2015    4        4    22  25    3.9399   661.1    2.603      63.786
2015    4        4    22  30    3.9385   660.9    2.604      63.763
2015    4        4    22  36    3.9370   660.8    2.605      63.741
2015    4        4    22  42    3.9355   660.6    2.605      63.718
2015    4        4    22  48    3.9341   660.5    2.606      63.695
2015    4        4    22  54    3.9326   660.3    2.606      63.673
2015    4        4    23   0    3.9311   660.2    2.607      63.650
2015    4        4    23   5    3.9297   660.0    2.608      63.627
2015    4        4    23  11    3.9282   659.9    2.608      63.604
2015    4        4    23  17    3.9267   659.8    2.609      63.581
2015    4        4    23  23    3.9253   659.6    2.609      63.559
2015    4        4    23  29    3.9238   659.5    2.610      63.535
2015    4        4    23  35    3.9223   659.3    2.610      63.512
2015    4        4    23  40    3.9207   659.2    2.611      63.487
2015    4        4    23  46    3.9192   659.1    2.611      63.461
2015    4        4    23  52    3.9177   658.9    2.611      63.434
2015    4        4    23  58    3.9161   658.8    2.612      63.406
2015    4        5     0   4    3.9145   658.6    2.612      63.377
2015    4        5     0  10    3.9129   658.5    2.612      63.347
2015    4        5     0  15    3.9113   658.4    2.612      63.316
2015    4        5     0  21    3.9097   658.2    2.612      63.284
2015    4        5     0  27    3.9081   658.1    2.612      63.250
2015    4        5     0  33    3.9065   657.9    2.612      63.216
2015    4        5     0  39    3.9049   657.8    2.612      63.182
2015    4        5     0  45    3.9032   657.7    2.612      63.146
2015    4        5     0  51    3.9016   657.5    2.612      63.110
2015    4        5     0  56    3.9000   657.4    2.611      63.073
2015    4        5     1   2    3.8983   657.2    2.611      63.035
2015    4        5     1   8    3.8967   657.1    2.611      62.997
2015    4        5     1  14    3.8950   657.0    2.611      62.958
2015    4        5     1  20    3.8933   656.8    2.611      62.919
2015    4        5     1  26    3.8917   656.7    2.610      62.879
2015    4        5     1  31    3.8900   656.5    2.610      62.839
2015    4        5     1  37    3.8884   656.4    2.610      62.799
2015    4        5     1  43    3.8867   656.2    2.610      62.758
2015    4        5     1  49    3.8851   656.1    2.609      62.718
2015    4        5     1  55    3.8834   655.9    2.609      62.677
2015    4        5     2   1    3.8818   655.7    2.609      62.636
2015    4        5     2   6    3.8801   655.6    2.609      62.595
2015    4        5     2  12    3.8785   655.4    2.609      62.554
2015    4        5     2  18    3.8768   655.3    2.608      62.513
2015    4        5     2  24    3.8752   655.1    2.608      62.472
2015    4        5     2  30    3.8736   654.9    2.608      62.431
2015    4        5     2  36    3.8720   654.8    2.608      62.391
2015    4        5     2  41    3.8704   654.6    2.608      62.351
2015    4        5     2  47    3.8688   654.5    2.608      62.311
2015    4        5     2  53    3.8672   654.3    2.608      62.271
2015    4        5     2  59    3.8656   654.1    2.607      62.231
2015    4        5     3   5    3.8640   654.0    2.607      62.192
2015    4        5     3  11    3.8624   653.8    2.607      62.152
2015    4        5     3  17    3.8608   653.6    2.607      62.112
2015    4        5     3  22    3.8593   653.5    2.607      62.072
2015    4        5     3  28    3.8577   653.3    2.607      62.032
2015    4        5     3  34    3.8561   653.1    2.607      61.991
2015    4        5     3  40    3.8545   652.9    2.606      61.949
2015    4        5     3  46    3.8529   652.8    2.606      61.907
2015    4        5     3  52    3.8513   652.6    2.606      61.864
2015    4        5     3  57    3.8497   652.4    2.605      61.820
2015    4        5     4   3    3.8481   652.3    2.605      61.776
2015    4        5     4   9    3.8465   652.1    2.605      61.731
2015    4        5     4  15    3.8449   651.9    2.604      61.686
2015    4        5     4  21    3.8432   651.7    2.604      61.641
2015    4        5     4  27    3.8416   651.6    2.603      61.595
2015    4        5     4  32    3.8400   651.4    2.603      61.549
2015    4        5     4  38    3.8383   651.2    2.603      61.502
2015    4        5     4  44    3.8367   651.0    2.602      61.456
2015    4        5     4  50    3.8351   650.8    2.602      61.409
2015    4        5     4  56    3.8334   650.7    2.601      61.362
2015    4        5     5   2    3.8318   650.5    2.601      61.316
2015    4        5     5   8    3.8301   650.3    2.601      61.269
2015    4        5     5  13    3.8285   650.1    2.601      61.223
2015    4        5     5  19    3.8268   649.9    2.600      61.177
2015    4        5     5  25    3.8252   649.7    2.600      61.132
2015    4        5     5  31    3.8235   649.6    2.600      61.087
2015    4        5     5  37    3.8219   649.4    2.600      61.042
2015    4        5     5  43    3.8202   649.2    2.600      60.998
2015    4        5     5  48    3.8186   649.0    2.600      60.955
2015    4        5     5  54    3.8170   648.8    2.600      60.913
2015    4        5     6   0    3.8154   648.6    2.600      60.872
2015    4        5     6   6    3.8138   648.4    2.601      60.832
2015    4        5     6  12    3.8122   648.2    2.601      60.793
2015    4        5     6  18    3.8106   648.0    2.601      60.756
2015    4        5     6  23    3.8090   647.8    2.602      60.719
2015    4        5     6  29    3.8075   647.6    2.603      60.684
2015    4        5     6  35    3.8059   647.5    2.603      60.651
2015    4        5     6  41    3.8044   647.3    2.604      60.618
2015    4        5     6  47    3.8028   647.1    2.605      60.587
2015    4        5     6  53    3.8013   646.9    2.605      60.556
2015    4        5     6  58    3.7997   646.7    2.606      60.526
2015    4        5     7   4    3.7982   646.5    2.607      60.496
2015    4        5     7  10    3.7967   646.3    2.608      60.465
2015    4        5     7  16    3.7951   646.1    2.609      60.435
2015    4        5     7  22    3.7936   645.9    2.610      60.405
2015    4        5     7  28    3.7920   645.7    2.611      60.375
2015    4        5     7  34    3.7905   645.6    2.611      60.345
2015    4        5     7  39    3.7889   645.4    2.612      60.315
2015    4        5     7  45    3.7874   645.2    2.613      60.285
2015    4        5     7  51    3.7858   645.0    2.614      60.255
2015    4        5     7  57    3.7843   644.8    2.615      60.225
2015    4        5     8   3    3.7827   644.6    2.616      60.195
2015    4        5     8   9    3.7812   644.4    2.617      60.165
2015    4        5     8  14    3.7796   644.2    2.617      60.135
2015    4        5     8  20    3.7781   644.0    2.618      60.104
2015    4        5     8  26    3.7765   643.9    2.619      60.073
2015    4        5     8  32    3.7750   643.7    2.619      60.040
2015    4        5     8  38    3.7734   643.5    2.620      60.007
2015    4        5     8  44    3.7718   643.3    2.620      59.972
2015    4        5     8  49    3.7702   643.1    2.621      59.937
2015    4        5     8  55    3.7686   642.9    2.621      59.901
2015    4        5     9   1    3.7670   642.8    2.622      59.864
2015    4        5     9   7    3.7654   642.6    2.622      59.827
2015    4        5     9  13    3.7638   642.4    2.622      59.789
2015    4        5     9  19    3.7622   642.2    2.623      59.750
2015    4        5     9  25    3.7606   642.0    2.623      59.711
2015    4        5     9  30    3.7590   641.8    2.623      59.671
2015    4        5     9  36    3.7574   641.6    2.623      59.631
2015    4        5     9  42    3.7557   641.5    2.624      59.591
2015    4        5     9  48    3.7541   641.3    2.624      59.550
2015    4        5     9  54    3.7525   641.1    2.624      59.509
2015    4        5    10   0    3.7509   640.9    2.624      59.469
2015    4        5    10   5    3.7493   640.7    2.625      59.428
2015    4        5    10  11    3.7477   640.5    2.625      59.387
2015    4        5    10  17    3.7462   640.3    2.625      59.346
2015    4        5    10  23    3.7446   640.1    2.625      59.305
2015    4        5    10  29    3.7430   639.9    2.626      59.264
2015    4        5    10  35    3.7414   639.7    2.626      59.222
2015    4        5    10  40    3.7398   639.6    2.626      59.181
2015    4        5    10  46    3.7382   639.4    2.626      59.138
2015    4        5    10  52    3.7366   639.2    2.626      59.096
2015    4        5    10  58    3.7350   639.0    2.627      59.053
2015    4        5    11   4    3.7335   638.8    2.627      59.009
2015    4        5    11  10    3.7319   638.6    2.627      58.965
2015    4        5    11  16    3.7303   638.4    2.627      58.921
2015    4        5    11  21    3.7287   638.2    2.627      58.876
2015    4        5    11  27    3.7271   638.0    2.628      58.831
2015    4        5    11  33    3.7255   637.8    2.628      58.786
2015    4        5    11  39    3.7240   637.6    2.628      58.741
2015    4        5    11  45    3.7224   637.4    2.628      58.696
2015    4        5    11  51    3.7208   637.2    2.628      58.650
2015    4        5    11  56    3.7193   637.0    2.629      58.605
2015    4        5    12   2    3.7177   636.8    2.629      58.560
2015    4        5    12   8    3.7161   636.6    2.629      58.515
2015    4        5    12  14    3.7146   636.3    2.629      58.470
2015    4        5    12  20    3.7130   636.1    2.629      58.424
2015    4        5    12  26    3.7114   635.9    2.629      58.379
2015    4        5    12  31    3.7099   635.7    2.629      58.332
2015    4        5    12  37    3.7083   635.5    2.629      58.285
2015    4        5    12  43    3.7067   635.3    2.629      58.237
2015    4        5    12  49    3.7050   635.1    2.629      58.188
2015    4        5    12  55    3.7034   634.9    2.629      58.138
2015    4        5    13   1    3.7018   634.7    2.629      58.088
2015    4        5    13   6    3.7002   634.5    2.628      58.037
2015    4        5    13  12    3.6986   634.3    2.628      57.986
2015    4        5    13  18    3.6969   634.1    2.628      57.935
2015    4        5    13  24    3.6953   633.9    2.628      57.883
2015    4        5    13  30    3.6937   633.7    2.628      57.832
2015    4        5    13  36    3.6920   633.5    2.627      57.780
2015    4        5    13  42    3.6904   633.2    2.627      57.729
2015    4        5    13  47    3.6888   633.0    2.627      57.678
2015    4        5    13  53    3.6871   632.8    2.627      57.628
2015    4        5    13  59    3.6855   632.6    2.627      57.578
2015    4        5    14   5    3.6839   632.4    2.627      57.528
2015    4        5    14  11    3.6823   632.2    2.627      57.480
2015    4        5    14  17    3.6807   631.9    2.627      57.431
2015    4        5    14  22    3.6791   631.7    2.627      57.384
2015    4        5    14  28    3.6775   631.5    2.628      57.337
2015    4        5    14  34    3.6759   631.3    2.628      57.290
2015    4        5    14  40    3.6743   631.1    2.628      57.245
2015    4        5    14  46    3.6728   630.8    2.629      57.199
2015    4        5    14  52    3.6712   630.6    2.629      57.155
2015    4        5    14  57    3.6696   630.4    2.630      57.111
2015    4        5    15   3    3.6680   630.2    2.630      57.067
2015    4        5    15   9    3.6665   629.9    2.631      57.024
2015    4        5    15  15    3.6649   629.7    2.631      56.981
2015    4        5    15  21    3.6634   629.5    2.632      56.940
2015    4        5    15  27    3.6619   629.2    2.633      56.899
2015    4        5    15  33    3.6603   629.0    2.634      56.859
2015    4        5    15  38    3.6588   628.8    2.634      56.819
2015    4        5    15  44    3.6574   628.5    2.635      56.780
2015    4        5    15  50    3.6559   628.3    2.636      56.741
2015    4        5    15  56    3.6544   628.1    2.637      56.703
2015    4        5    16   2    3.6529   627.8    2.638      56.665
2015    4        5    16   8    3.6515   627.6    2.639      56.627
2015    4        5    16  13    3.6501   627.4    2.640      56.591
2015    4        5    16  19    3.6486   627.1    2.641      56.555
2015    4        5    16  25    3.6472   626.9    2.642      56.519
2015    4        5    16  31    3.6458   626.7    2.643      56.485
2015    4        5    16  37    3.6444   626.4    2.645      56.450
2015    4        5    16  43    3.6430   626.2    2.646      56.416
2015    4        5    16  48    3.6416   626.0    2.647      56.382
2015    4        5    16  54    3.6402   625.8    2.648      56.349
2015    4        5    17   0    3.6388   625.5    2.649      56.315
2015    4        5    17   6    3.6374   625.3    2.650      56.282
2015    4        5    17  12    3.6359   625.1    2.651      56.248
2015    4        5    17  18    3.6345   624.9    2.652      56.212
2015    4        5    17  23    3.6330   624.6    2.653      56.176
2015    4        5    17  29    3.6315   624.4    2.654      56.139
2015    4        5    17  35    3.6300   624.2    2.655      56.101
2015    4        5    17  41    3.6285   624.0    2.656      56.063
2015    4        5    17  47    3.6270   623.8    2.656      56.023
2015    4        5    17  53    3.6255   623.5    2.657      55.983
2015    4        5    17  59    3.6240   623.3    2.658      55.943
2015    4        5    18   4    3.6225   623.1    2.658      55.902
2015    4        5    18  10    3.6209   622.9    2.659      55.860
2015    4        5    18  16    3.6194   622.6    2.659      55.818
2015    4        5    18  22    3.6179   622.4    2.660      55.776
2015    4        5    18  28    3.6163   622.2    2.661      55.734
2015    4        5    18  34    3.6148   622.0    2.661      55.692
2015    4        5    18  39    3.6133   621.8    2.662      55.650
2015    4        5    18  45    3.6118   621.5    2.663      55.608
2015    4        5    18  51    3.6103   621.3    2.663      55.566
2015    4        5    18  57    3.6087   621.1    2.664      55.524
2015    4        5    19   3    3.6072   620.9    2.665      55.483
2015    4        5    19   9    3.6057   620.6    2.665      55.441
2015    4        5    19  14    3.6042   620.4    2.666      55.400
2015    4        5    19  20    3.6027   620.2    2.667      55.359
2015    4        5    19  26    3.6012   620.0    2.667      55.318
2015    4        5    19  32    3.5997   619.8    2.668      55.277
2015    4        5    19  38    3.5982   619.5    2.669      55.236
2015    4        5    19  44    3.5966   619.3    2.669      55.194
2015    4        5    19  49    3.5951   619.1    2.670      55.152
2015    4        5    19  55    3.5935   618.9    2.670      55.109
2015    4        5    20   1    3.5920   618.7    2.670      55.064
2015    4        5    20   7    3.5904   618.4    2.671      55.019
2015    4        5    20  13    3.5888   618.2    2.671      54.974
2015    4        5    20  19    3.5872   618.0    2.671      54.928
2015    4        5    20  25    3.5856   617.8    2.672      54.881
2015    4        5    20  30    3.5840   617.5    2.672      54.834
2015    4        5    20  36    3.5824   617.3    2.672      54.786
2015    4        5    20  42    3.5808   617.1    2.673      54.738
2015    4        5    20  48    3.5792   616.9    2.673      54.690
2015    4        5    20  54    3.5776   616.6    2.673      54.642
2015    4        5    21   0    3.5760   616.4    2.673      54.594
2015    4        5    21   5    3.5745   616.2    2.674      54.545
2015    4        5    21  11    3.5729   615.9    2.674      54.497
2015    4        5    21  17    3.5713   615.7    2.674      54.448
2015    4        5    21  23    3.5697   615.5    2.674      54.400
2015    4        5    21  29    3.5681   615.2    2.675      54.352
2015    4        5    21  35    3.5666   615.0    2.675      54.303
2015    4        5    21  40    3.5650   614.8    2.675      54.254
2015    4        5    21  46    3.5634   614.5    2.675      54.206
2015    4        5    21  52    3.5619   614.3    2.676      54.157
2015    4        5    21  58    3.5603   614.0    2.676      54.108
2015    4        5    22   4    3.5587   613.8    2.676      54.059
2015    4        5    22  10    3.5572   613.6    2.676      54.009
2015    4        5    22  16    3.5556   613.3    2.677      53.959
2015    4        5    22  21    3.5541   613.1    2.677      53.909
2015    4        5    22  27    3.5525   612.8    2.677      53.859
2015    4        5    22  33    3.5509   612.6    2.677      53.808
2015    4        5    22  39    3.5494   612.3    2.677      53.758
2015    4        5    22  45    3.5478   612.0    2.678      53.708
2015    4        5    22  51    3.5463   611.8    2.678      53.658
2015    4        5    22  56    3.5448   611.5    2.678      53.608
2015    4        5    23   2    3.5433   611.3    2.679      53.560
2015    4        5    23   8    3.5418   611.0    2.679      53.512
2015    4        5    23  14    3.5404   610.8    2.680      53.465
2015    4        5    23  20    3.5389   610.5    2.681      53.418
2015    4        5    23  26    3.5375   610.3    2.681      53.373
2015    4        5    23  31    3.5361   610.0    2.682      53.329
2015    4        5    23  37    3.5347   609.8    2.683      53.286
2015    4        5    23  43    3.5333   609.5    2.684      53.244
2015    4        5    23  49    3.5319   609.3    2.685      53.203
2015    4        5    23  55    3.5305   609.0    2.686      53.162
2015    4        6     0   1    3.5291   608.8    2.687      53.122
2015    4        6     0   6    3.5277   608.5    2.688      53.083
2015    4        6     0  12    3.5263   608.3    2.689      53.044
2015    4        6     0  18    3.5249   608.0    2.690      53.005
2015    4        6     0  24    3.5235   607.7    2.691      52.967
2015    4        6     0  30    3.5220   607.5    2.692      52.928
2015    4        6     0  36    3.5206   607.2    2.693      52.888
2015    4        6     0  42    3.5191   607.0    2.694      52.847
2015    4        6     0  47    3.5177   606.7    2.695      52.807
2015    4        6     0  53    3.5162   606.5    2.696      52.766
2015    4        6     0  59    3.5148   606.2    2.697      52.725
2015    4        6     1   5    3.5133   606.0    2.698      52.684
2015    4        6     1  11    3.5119   605.7    2.699      52.643
2015    4        6     1  17    3.5104   605.5    2.700      52.603
2015    4        6     1  22    3.5090   605.2    2.701      52.563
2015    4        6     1  28    3.5075   604.9    2.702      52.523
2015    4        6     1  34    3.5061   604.7    2.703      52.483
2015    4        6     1  40    3.5047   604.4    2.704      52.444
2015    4        6     1  46    3.5033   604.2    2.706      52.404
2015    4        6     1  52    3.5019   603.9    2.707      52.366
2015    4        6     1  57    3.5004   603.7    2.708      52.327
2015    4        6     2   3    3.4990   603.4    2.709      52.288
2015    4        6     2   9    3.4976   603.2    2.710      52.250
2015    4        6     2  15    3.4962   602.9    2.711      52.211
2015    4        6     2  21    3.4947   602.7    2.712      52.173
2015    4        6     2  27    3.4933   602.4    2.713      52.134
2015    4        6     2  33    3.4918   602.2    2.715      52.096
2015    4        6     2  38    3.4904   601.9    2.716      52.057
2015    4        6     2  44    3.4889   601.7    2.717      52.018
2015    4        6     2  50    3.4875   601.4    2.718      51.979
2015    4        6     2  56    3.4860   601.2    2.718      51.939
2015    4        6     3   2    3.4845   600.9    2.719      51.898
2015    4        6     3   8    3.4831   600.7    2.720      51.857
2015    4        6     3  13    3.4816   600.4    2.721      51.816
2015    4        6     3  19    3.4801   600.2    2.722      51.774
2015    4        6     3  25    3.4786   599.9    2.723      51.732
2015    4        6     3  31    3.4772   599.7    2.724      51.690
2015    4        6     3  37    3.4757   599.4    2.725      51.647
2015    4        6     3  43    3.4742   599.1    2.725      51.604
2015    4        6     3  48    3.4727   598.9    2.726      51.561
2015    4        6     3  54    3.4713   598.6    2.727      51.518
2015    4        6     4   0    3.4698   598.4    2.728      51.475
2015    4        6     4   6    3.4683   598.1    2.729      51.432
2015    4        6     4  12    3.4668   597.9    2.730      51.389
2015    4        6     4  18    3.4654   597.6    2.730      51.346
2015    4        6     4  23    3.4639   597.4    2.731      51.303
2015    4        6     4  29    3.4625   597.1    2.732      51.261
2015    4        6     4  35    3.4610   596.9    2.733      51.218
2015    4        6     4  41    3.4596   596.6    2.734      51.175
2015    4        6     4  47    3.4581   596.4    2.735      51.133
2015    4        6     4  53    3.4567   596.1    2.735      51.091
2015    4        6     4  59    3.4552   595.8    2.736      51.048
2015    4        6     5   4    3.4538   595.6    2.737      51.006
2015    4        6     5  10    3.4523   595.3    2.738      50.963
2015    4        6     5  16    3.4509   595.1    2.739      50.920
2015    4        6     5  22    3.4494   594.8    2.739      50.878
2015    4        6     5  28    3.4480   594.6    2.740      50.834
2015    4        6     5  34    3.4465   594.3    2.741      50.791
2015    4        6     5  39    3.4451   594.0    2.742      50.748
2015    4        6     5  45    3.4436   593.8    2.742      50.704
2015    4        6     5  51    3.4421   593.5    2.743      50.659
2015    4        6     5  57    3.4407   593.2    2.744      50.615
2015    4        6     6   3    3.4392   593.0    2.744      50.570
2015    4        6     6   9    3.4378   592.7    2.745      50.525
2015    4        6     6  14    3.4363   592.4    2.746      50.481
2015    4        6     6  20    3.4349   592.2    2.746      50.436
2015    4        6     6  26    3.4334   591.9    2.747      50.391
2015    4        6     6  32    3.4320   591.6    2.748      50.346
2015    4        6     6  38    3.4305   591.4    2.748      50.300
2015    4        6     6  44    3.4290   591.1    2.749      50.255
2015    4        6     6  49    3.4276   590.8    2.749      50.210
2015    4        6     6  55    3.4261   590.6    2.750      50.164
2015    4        6     7   1    3.4247   590.3    2.751      50.119
2015    4        6     7   7    3.4232   590.0    2.751      50.073
2015    4        6     7  13    3.4217   589.8    2.752      50.027
2015    4        6     7  19    3.4202   589.5    2.752      49.980
2015    4        6     7  25    3.4188   589.2    2.753      49.934
2015    4        6     7  30    3.4173   588.9    2.754      49.887
2015    4        6     7  36    3.4158   588.7    2.754      49.840
2015    4        6     7  42    3.4143   588.4    2.755      49.792
2015    4        6     7  48    3.4128   588.1    2.755      49.745
2015    4        6     7  54    3.4113   587.8    2.756      49.697
2015    4        6     8   0    3.4098   587.5    2.756      49.650
2015    4        6     8   5    3.4083   587.3    2.757      49.603
2015    4        6     8  11    3.4068   587.0    2.758      49.556
2015    4        6     8  17    3.4053   586.7    2.758      49.509
2015    4        6     8  23    3.4039   586.4    2.759      49.463
2015    4        6     8  29    3.4024   586.1    2.760      49.417
2015    4        6     8  35    3.4009   585.9    2.761      49.372
2015    4        6     8  40    3.3995   585.6    2.762      49.327
2015    4        6     8  46    3.3981   585.3    2.763      49.282
2015    4        6     8  52    3.3966   585.0    2.764      49.238
2015    4        6     8  58    3.3952   584.7    2.765      49.195
2015    4        6     9   4    3.3938   584.4    2.766      49.152
2015    4        6     9  10    3.3924   584.2    2.767      49.109
2015    4        6     9  16    3.3909   583.9    2.768      49.067
2015    4        6     9  21    3.3895   583.6    2.769      49.025
2015    4        6     9  27    3.3881   583.3    2.771      48.983
2015    4        6     9  33    3.3867   583.0    2.772      48.942
2015    4        6     9  39    3.3853   582.7    2.773      48.902
2015    4        6     9  45    3.3839   582.5    2.775      48.862
2015    4        6     9  51    3.3826   582.2    2.776      48.822
2015    4        6     9  56    3.3812   581.9    2.778      48.783
2015    4        6    10   2    3.3798   581.6    2.779      48.744
2015    4        6    10   8    3.3785   581.3    2.781      48.706
2015    4        6    10  14    3.3772   581.0    2.782      48.668
2015    4        6    10  20    3.3758   580.7    2.784      48.631
2015    4        6    10  26    3.3745   580.5    2.785      48.593
2015    4        6    10  31    3.3732   580.2    2.787      48.556
2015    4        6    10  37    3.3720   579.9    2.789      48.519
2015    4        6    10  43    3.3707   579.6    2.791      48.483
2015    4        6    10  49    3.3694   579.3    2.792      48.446
2015    4        6    10  55    3.3681   579.1    2.794      48.410
2015    4        6    11   1    3.3669   578.8    2.796      48.374
2015    4        6    11   6    3.3656   578.5    2.798      48.337
2015    4        6    11  12    3.3643   578.2    2.799      48.301
2015    4        6    11  18    3.3630   578.0    2.801      48.265
2015    4        6    11  24    3.3617   577.7    2.803      48.229
2015    4        6    11  30    3.3604   577.4    2.804      48.193
2015    4        6    11  36    3.3591   577.1    2.806      48.157
2015    4        6    11  42    3.3578   576.8    2.807      48.120
2015    4        6    11  47    3.3564   576.6    2.809      48.084
2015    4        6    11  53    3.3551   576.3    2.810      48.047
2015    4        6    11  59    3.3538   576.0    2.812      48.010
2015    4        6    12   5    3.3525   575.7    2.813      47.972
2015    4        6    12  11    3.3511   575.4    2.814      47.934
2015    4        6    12  17    3.3498   575.2    2.815      47.895
2015    4        6    12  22    3.3485   574.9    2.817      47.856
2015    4        6    12  28    3.3471   574.6    2.818      47.816
2015    4        6    12  34    3.3458   574.3    2.819      47.776
2015    4        6    12  40    3.3444   574.0    2.820      47.736
2015    4        6    12  46    3.3431   573.8    2.821      47.695
2015    4        6    12  52    3.3418   573.5    2.822      47.654
2015    4        6    12  57    3.3404   573.2    2.823      47.613
2015    4        6    13   3    3.3391   572.9    2.825      47.572
2015    4        6    13   9    3.3377   572.6    2.826      47.531
2015    4        6    13  15    3.3364   572.4    2.827      47.489
2015    4        6    13  21    3.3350   572.1    2.828      47.448
2015    4        6    13  27    3.3337   571.8    2.829      47.407
2015    4        6    13  32    3.3323   571.5    2.830      47.365
2015    4        6    13  38    3.3310   571.2    2.831      47.324
2015    4        6    13  44    3.3296   571.0    2.832      47.282
2015    4        6    13  50    3.3283   570.7    2.833      47.241
2015    4        6    13  56    3.3269   570.4    2.834      47.200
2015    4        6    14   2    3.3256   570.1    2.835      47.158
2015    4        6    14   8    3.3242   569.8    2.836      47.116
2015    4        6    14  13    3.3229   569.6    2.837      47.074
2015    4        6    14  19    3.3215   569.3    2.837      47.032
2015    4        6    14  25    3.3201   569.0    2.838      46.990
2015    4        6    14  31    3.3187   568.7    2.839      46.948
2015    4        6    14  37    3.3173   568.4    2.840      46.905
2015    4        6    14  43    3.3159   568.1    2.841      46.862
2015    4        6    14  48    3.3145   567.9    2.841      46.818
2015    4        6    14  54    3.3131   567.6    2.842      46.774
2015    4        6    15   0    3.3117   567.3    2.843      46.730
2015    4        6    15   6    3.3103   567.0    2.844      46.684
2015    4        6    15  12    3.3089   566.7    2.844      46.639
2015    4        6    15  18    3.3074   566.4    2.845      46.593
2015    4        6    15  23    3.3060   566.1    2.845      46.546
2015    4        6    15  29    3.3046   565.8    2.846      46.499
2015    4        6    15  35    3.3032   565.5    2.847      46.452
2015    4        6    15  41    3.3017   565.2    2.847      46.404
2015    4        6    15  47    3.3003   564.9    2.848      46.356
2015    4        6    15  53    3.2989   564.6    2.848      46.308
2015    4        6    15  59    3.2974   564.3    2.849      46.259
2015    4        6    16   4    3.2960   564.0    2.850      46.211
2015    4        6    16  10    3.2946   563.7    2.850      46.162
2015    4        6    16  16    3.2931   563.4    2.851      46.113
2015    4        6    16  22    3.2917   563.1    2.852      46.063
2015    4        6    16  28    3.2903   562.8    2.853      46.014
2015    4        6    16  34    3.2889   562.5    2.853      45.965
2015    4        6    16  39    3.2875   562.2    2.854      45.916
2015    4        6    16  45    3.2861   561.9    2.855      45.867
2015    4        6    16  51    3.2848   561.6    2.856      45.818
2015    4        6    16  57    3.2834   561.3    2.857      45.770
2015    4        6    17   3    3.2821   560.9    2.858      45.723
2015    4        6    17   9    3.2808   560.6    2.860      45.676
2015    4        6    17  14    3.2795   560.3    2.861      45.629
2015    4        6    17  20    3.2782   560.0    2.862      45.583
2015    4        6    17  26    3.2770   559.7    2.864      45.538
2015    4        6    17  32    3.2757   559.4    2.865      45.494
2015    4        6    17  38    3.2745   559.1    2.867      45.450
2015    4        6    17  44    3.2734   558.7    2.869      45.407
2015    4        6    17  49    3.2722   558.4    2.871      45.365
2015    4        6    17  55    3.2710   558.1    2.873      45.324
2015    4        6    18   1    3.2699   557.8    2.875      45.283
2015    4        6    18   7    3.2688   557.5    2.877      45.243
2015    4        6    18  13    3.2677   557.2    2.879      45.203
2015    4        6    18  19    3.2666   556.9    2.881      45.164
2015    4        6    18  25    3.2654   556.6    2.883      45.125
2015    4        6    18  30    3.2643   556.3    2.885      45.087
2015    4        6    18  36    3.2632   555.9    2.888      45.048
2015    4        6    18  42    3.2621   555.6    2.890      45.011
2015    4        6    18  48    3.2610   555.3    2.892      44.973
2015    4        6    18  54    3.2599   555.0    2.894      44.936
2015    4        6    19   0    3.2588   554.7    2.897      44.899
2015    4        6    19   5    3.2577   554.4    2.899      44.863
2015    4        6    19  11    3.2567   554.1    2.901      44.827
2015    4        6    19  17    3.2556   553.8    2.904      44.791
2015    4        6    19  23    3.2545   553.4    2.906      44.756
2015    4        6    19  29    3.2535   553.1    2.908      44.721
2015    4        6    19  35    3.2524   552.8    2.911      44.686
2015    4        6    19  40    3.2514   552.5    2.913      44.651
2015    4        6    19  46    3.2504   552.2    2.915      44.617
2015    4        6    19  52    3.2494   551.9    2.918      44.583
2015    4        6    19  58    3.2483   551.6    2.920      44.549
2015    4        6    20   4    3.2473   551.3    2.922      44.515
2015    4        6    20  10    3.2463   551.0    2.925      44.481
2015    4        6    20  15    3.2453   550.7    2.927      44.447
2015    4        6    20  21    3.2443   550.4    2.929      44.413
2015    4        6    20  27    3.2433   550.1    2.932      44.380
2015    4        6    20  33    3.2422   549.8    2.934      44.346
2015    4        6    20  39    3.2412   549.5    2.936      44.312
2015    4        6    20  45    3.2401   549.2    2.939      44.278
2015    4        6    20  51    3.2391   548.9    2.941      44.244
2015    4        6    20  56    3.2380   548.6    2.943      44.209
2015    4        6    21   2    3.2369   548.3    2.945      44.175
2015    4        6    21   8    3.2358   548.0    2.947      44.140
2015    4        6    21  14    3.2348   547.7    2.949      44.105
2015    4        6    21  20    3.2337   547.4    2.951      44.070
2015    4        6    21  26    3.2326   547.1    2.953      44.034
2015    4        6    21  31    3.2315   546.8    2.955      43.998
2015    4        6    21  37    3.2304   546.5    2.957      43.962
2015    4        6    21  43    3.2293   546.2    2.959      43.926
2015    4        6    21  49    3.2282   545.9    2.961      43.889
2015    4        6    21  55    3.2271   545.6    2.963      43.852
2015    4        6    22   1    3.2260   545.3    2.965      43.814
2015    4        6    22   6    3.2250   545.0    2.966      43.776
2015    4        6    22  12    3.2239   544.7    2.968      43.738
2015    4        6    22  18    3.2228   544.4    2.970      43.700
2015    4        6    22  24    3.2217   544.1    2.972      43.661
2015    4        6    22  30    3.2206   543.8    2.973      43.622
2015    4        6    22  36    3.2195   543.5    2.975      43.582
2015    4        6    22  42    3.2185   543.2    2.977      43.542
2015    4        6    22  47    3.2174   542.9    2.979      43.502
2015    4        6    22  53    3.2163   542.6    2.980      43.462
2015    4        6    22  59    3.2153   542.3    2.982      43.421
2015    4        6    23   5    3.2142   542.0    2.984      43.380
2015    4        6    23  11    3.2132   541.7    2.986      43.339
2015    4        6    23  17    3.2121   541.4    2.987      43.297
2015    4        6    23  22    3.2111   541.1    2.989      43.255
2015    4        6    23  28    3.2100   540.8    2.991      43.213
2015    4        6    23  34    3.2090   540.5    2.993      43.171
2015    4        6    23  40    3.2080   540.2    2.995      43.128
2015    4        6    23  46    3.2069   539.9    2.996      43.086
2015    4        6    23  52    3.2059   539.5    2.998      43.043
2015    4        6    23  57    3.2049   539.2    3.000      42.999
2015    4        7     0   3    3.2039   538.9    3.002      42.956
2015    4        7     0   9    3.2029   538.6    3.004      42.913
2015    4        7     0  15    3.2019   538.3    3.006      42.869
2015    4        7     0  21    3.2009   538.0    3.008      42.825
2015    4        7     0  27    3.1999   537.7    3.010      42.781
2015    4        7     0  32    3.1990   537.4    3.012      42.737
2015    4        7     0  38    3.1980   537.1    3.014      42.692
2015    4        7     0  44    3.1970   536.8    3.016      42.648
2015    4        7     0  50    3.1961   536.4    3.018      42.603
2015    4        7     0  56    3.1951   536.1    3.020      42.559
2015    4        7     1   2    3.1942   535.8    3.023      42.514
2015    4        7     1   8    3.1933   535.5    3.025      42.469
2015    4        7     1  13    3.1924   535.2    3.027      42.424
2015    4        7     1  19    3.1915   534.9    3.029      42.380
2015    4        7     1  25    3.1906   534.5    3.031      42.335
2015    4        7     1  31    3.1897   534.2    3.034      42.290
2015    4        7     1  37    3.1888   533.9    3.036      42.246
2015    4        7     1  43    3.1880   533.6    3.038      42.201
2015    4        7     1  48    3.1871   533.3    3.040      42.157
2015    4        7     1  54    3.1863   532.9    3.043      42.113
2015    4        7     2   0    3.1855   532.6    3.045      42.069
2015    4        7     2   6    3.1847   532.3    3.048      42.025
2015    4        7     2  12    3.1839   532.0    3.050      41.982
2015    4        7     2  18    3.1831   531.7    3.052      41.938
2015    4        7     2  23    3.1823   531.3    3.055      41.895
2015    4        7     2  29    3.1816   531.0    3.057      41.852
2015    4        7     2  35    3.1809   530.7    3.060      41.810
2015    4        7     2  41    3.1801   530.4    3.063      41.768
2015    4        7     2  47    3.1794   530.0    3.065      41.726
2015    4        7     2  53    3.1788   529.7    3.068      41.684
2015    4        7     2  58    3.1781   529.4    3.071      41.642
2015    4        7     3   4    3.1774   529.1    3.073      41.601
2015    4        7     3  10    3.1768   528.8    3.076      41.560
2015    4        7     3  16    3.1761   528.4    3.079      41.519
2015    4        7     3  22    3.1755   528.1    3.082      41.479
2015    4        7     3  28    3.1749   527.8    3.085      41.438
2015    4        7     3  34    3.1743   527.5    3.088      41.398
2015    4        7     3  39    3.1737   527.1    3.090      41.358
2015    4        7     3  45    3.1732   526.8    3.093      41.318
2015    4        7     3  51    3.1726   526.5    3.096      41.278
2015    4        7     3  57    3.1720   526.2    3.099      41.239
2015    4        7     4   3    3.1715   525.9    3.103      41.199
2015    4        7     4   9    3.1709   525.5    3.106      41.159
2015    4        7     4  14    3.1704   525.2    3.109      41.120
2015    4        7     4  20    3.1698   524.9    3.112      41.080
2015    4        7     4  26    3.1693   524.6    3.115      41.040
2015    4        7     4  32    3.1688   524.3    3.118      41.000
2015    4        7     4  38    3.1682   523.9    3.121      40.961
2015    4        7     4  44    3.1677   523.6    3.124      40.921
2015    4        7     4  49    3.1672   523.3    3.127      40.881
2015    4        7     4  55    3.1667   523.0    3.131      40.841
2015    4        7     5   1    3.1662   522.6    3.134      40.801
2015    4        7     5   7    3.1657   522.3    3.137      40.762
2015    4        7     5  13    3.1652   522.0    3.140      40.722
2015    4        7     5  19    3.1647   521.7    3.143      40.682
2015    4        7     5  25    3.1643   521.3    3.147      40.642
2015    4        7     5  30    3.1638   521.0    3.150      40.602
2015    4        7     5  36    3.1634   520.7    3.153      40.563
2015    4        7     5  42    3.1629   520.4    3.156      40.523
2015    4        7     5  48    3.1625   520.1    3.160      40.484
2015    4        7     5  54    3.1621   519.7    3.163      40.444
2015    4        7     6   0    3.1617   519.4    3.166      40.405
2015    4        7     6   5    3.1613   519.1    3.169      40.366
2015    4        7     6  11    3.1609   518.8    3.173      40.327
2015    4        7     6  17    3.1606   518.5    3.176      40.288
2015    4        7     6  23    3.1602   518.1    3.180      40.249
2015    4        7     6  29    3.1599   517.8    3.183      40.210
2015    4        7     6  35    3.1595   517.5    3.186      40.172
2015    4        7     6  40    3.1592   517.2    3.190      40.133
2015    4        7     6  46    3.1589   516.9    3.193      40.095
2015    4        7     6  52    3.1586   516.6    3.197      40.057
2015    4        7     6  58    3.1584   516.2    3.200      40.019
2015    4        7     7   4    3.1581   515.9    3.204      39.981
2015    4        7     7  10    3.1578   515.6    3.207      39.943
2015    4        7     7  15    3.1576   515.3    3.210      39.905
2015    4        7     7  21    3.1573   515.0    3.214      39.867
2015    4        7     7  27    3.1571   514.7    3.217      39.830
2015    4        7     7  33    3.1568   514.4    3.221      39.792
2015    4        7     7  39    3.1566   514.1    3.225      39.755
2015    4        7     7  45    3.1564   513.7    3.228      39.717
2015    4        7     7  51    3.1561   513.4    3.232      39.680
2015    4        7     7  56    3.1559   513.1    3.235      39.642
2015    4        7     8   2    3.1557   512.8    3.239      39.605
2015    4        7     8   8    3.1555   512.5    3.242      39.568
2015    4        7     8  14    3.1553   512.2    3.246      39.531
2015    4        7     8  20    3.1552   511.9    3.249      39.494
2015    4        7     8  26    3.1550   511.6    3.253      39.456
2015    4        7     8  31    3.1548   511.3    3.256      39.419
2015    4        7     8  37    3.1547   511.0    3.260      39.382
2015    4        7     8  43    3.1545   510.7    3.264      39.345
2015    4        7     8  49    3.1544   510.3    3.267      39.308
2015    4        7     8  55    3.1542   510.0    3.271      39.270
2015    4        7     9   1    3.1541   509.7    3.274      39.233
2015    4        7     9   6    3.1540   509.4    3.278      39.196
2015    4        7     9  12    3.1539   509.1    3.282      39.158
2015    4        7     9  18    3.1538   508.8    3.285      39.121
2015    4        7     9  24    3.1537   508.5    3.289      39.083
2015    4        7     9  30    3.1536   508.2    3.293      39.045
2015    4        7     9  36    3.1535   507.9    3.296      39.007
2015    4        7     9  41    3.1534   507.6    3.300      38.970
2015    4        7     9  47    3.1534   507.3    3.304      38.932
2015    4        7     9  53    3.1533   507.0    3.308      38.894
2015    4        7     9  59    3.1533   506.6    3.311      38.856
2015    4        7    10   5    3.1533   506.3    3.315      38.818
2015    4        7    10  11    3.1532   506.0    3.319      38.779
2015    4        7    10  17    3.1532   505.7    3.323      38.741
2015    4        7    10  22    3.1532   505.4    3.327      38.703
2015    4        7    10  28    3.1533   505.1    3.330      38.665
2015    4        7    10  34    3.1533   504.8    3.334      38.627
2015    4        7    10  40    3.1533   504.5    3.338      38.588
2015    4        7    10  46    3.1534   504.2    3.342      38.550
2015    4        7    10  52    3.1534   503.9    3.346      38.512
2015    4        7    10  57    3.1535   503.6    3.350      38.474
2015    4        7    11   3    3.1536   503.3    3.354      38.435
2015    4        7    11   9    3.1537   502.9    3.358      38.397
2015    4        7    11  15    3.1538   502.6    3.362      38.359
2015    4        7    11  21    3.1539   502.3    3.366      38.321
2015    4        7    11  27    3.1540   502.0    3.370      38.283
2015    4        7    11  32    3.1542   501.7    3.374      38.245
2015    4        7    11  38    3.1543   501.4    3.378      38.208
2015    4        7    11  44    3.1545   501.1    3.383      38.170
2015    4        7    11  50    3.1547   500.8    3.387      38.132
2015    4        7    11  56    3.1549   500.5    3.391      38.095
2015    4        7    12   2    3.1551   500.2    3.395      38.057
2015    4        7    12   8    3.1553   499.9    3.399      38.020
2015    4        7    12  13    3.1555   499.6    3.403      37.982
2015    4        7    12  19    3.1557   499.3    3.408      37.945
2015    4        7    12  25    3.1560   499.0    3.412      37.908
2015    4        7    12  31    3.1562   498.7    3.416      37.871
2015    4        7    12  37    3.1565   498.4    3.420      37.833
2015    4        7    12  43    3.1567   498.0    3.425      37.796
2015    4        7    12  48    3.1570   497.7    3.429      37.759
2015    4        7    12  54    3.1573   497.4    3.433      37.723
2015    4        7    13   0    3.1576   497.1    3.438      37.686
2015    4        7    13   6    3.1579   496.8    3.442      37.649
2015    4        7    13  12    3.1582   496.5    3.446      37.612
2015    4        7    13  18    3.1586   496.2    3.451      37.576
2015    4        7    13  23    3.1589   495.9    3.455      37.539
2015    4        7    13  29    3.1593   495.6    3.459      37.502
2015    4        7    13  35    3.1596   495.3    3.464      37.466
2015    4        7    13  41    3.1600   495.0    3.468      37.429
2015    4        7    13  47    3.1604   494.7    3.473      37.393
2015    4        7    13  53    3.1608   494.4    3.477      37.357
2015    4        7    13  58    3.1612   494.1    3.481      37.320
2015    4        7    14   4    3.1616   493.8    3.486      37.284
2015    4        7    14  10    3.1620   493.5    3.490      37.248
2015    4        7    14  16    3.1624   493.2    3.495      37.212
2015    4        7    14  22    3.1629   492.9    3.499      37.176
2015    4        7    14  28    3.1634   492.6    3.504      37.140
2015    4        7    14  34    3.1638   492.3    3.509      37.104
2015    4        7    14  39    3.1643   492.0    3.513      37.068
2015    4        7    14  45    3.1648   491.7    3.518      37.032
2015    4        7    14  51    3.1653   491.4    3.522      36.997
2015    4        7    14  57    3.1658   491.1    3.527      36.961
2015    4        7    15   3    3.1664   490.8    3.532      36.925
2015    4        7    15   9    3.1669   490.5    3.536      36.890
2015    4        7    15  14    3.1675   490.2    3.541      36.854
2015    4        7    15  20    3.1681   489.9    3.546      36.818
2015    4        7    15  26    3.1686   489.6    3.550      36.783
2015    4        7    15  32    3.1692   489.3    3.555      36.748
2015    4        7    15  38    3.1698   489.0    3.560      36.712
2015    4        7    15  44    3.1705   488.7    3.565      36.677
2015    4        7    15  49    3.1711   488.4    3.570      36.642
2015    4        7    15  55    3.1717   488.2    3.574      36.607
2015    4        7    16   1    3.1724   487.9    3.579      36.572
2015    4        7    16   7    3.1731   487.6    3.584      36.536
2015    4        7    16  13    3.1737   487.3    3.589      36.501
2015    4        7    16  19    3.1744   487.0    3.594      36.466
2015    4        7    16  24    3.1751   486.7    3.599      36.432
2015    4        7    16  30    3.1759   486.4    3.604      36.397
2015    4        7    16  36    3.1766   486.1    3.609      36.362
2015    4        7    16  42    3.1773   485.8    3.614      36.327
2015    4        7    16  48    3.1781   485.5    3.619      36.293
2015    4        7    16  54    3.1788   485.3    3.624      36.258
2015    4        7    17   0    3.1796   485.0    3.629      36.224
2015    4        7    17   5    3.1804   484.7    3.634      36.189
2015    4        7    17  11    3.1812   484.4    3.639      36.155
2015    4        7    17  17    3.1820   484.1    3.644      36.120
2015    4        7    17  23    3.1828   483.8    3.649      36.086
2015    4        7    17  29    3.1836   483.5    3.654      36.052
2015    4        7    17  35    3.1845   483.2    3.659      36.018
2015    4        7    17  40    3.1853   483.0    3.664      35.984
2015    4        7    17  46    3.1862   482.7    3.669      35.950
2015    4        7    17  52    3.1870   482.4    3.674      35.917
2015    4        7    17  58    3.1879   482.1    3.680      35.883
2015    4        7    18   4    3.1888   481.8    3.685      35.849
2015    4        7    18  10    3.1897   481.5    3.690      35.816
2015    4        7    18  15    3.1907   481.3    3.695      35.783
2015    4        7    18  21    3.1916   481.0    3.700      35.749
2015    4        7    18  27    3.1926   480.7    3.705      35.716
2015    4        7    18  33    3.1935   480.4    3.711      35.683
2015    4        7    18  39    3.1945   480.1    3.716      35.650
2015    4        7    18  45    3.1955   479.8    3.721      35.618
2015    4        7    18  50    3.1965   479.6    3.727      35.585
2015    4        7    18  56    3.1975   479.3    3.732      35.552
2015    4        7    19   2    3.1985   479.0    3.737      35.520
2015    4        7    19   8    3.1996   478.7    3.743      35.488
2015    4        7    19  14    3.2007   478.4    3.748      35.456
2015    4        7    19  20    3.2017   478.2    3.753      35.424
2015    4        7    19  26    3.2028   477.9    3.759      35.392
2015    4        7    19  31    3.2039   477.6    3.764      35.360
2015    4        7    19  37    3.2050   477.3    3.770      35.329
2015    4        7    19  43    3.2061   477.1    3.775      35.297
2015    4        7    19  49    3.2073   476.8    3.780      35.266
2015    4        7    19  55    3.2084   476.5    3.786      35.235
2015    4        7    20   1    3.2096   476.2    3.792      35.204
2015    4        7    20   6    3.2108   476.0    3.797      35.173
2015    4        7    20  12    3.2120   475.7    3.803      35.143
2015    4        7    20  18    3.2132   475.4    3.808      35.112
2015    4        7    20  24    3.2144   475.1    3.814      35.082
2015    4        7    20  30    3.2156   474.9    3.820      35.052
2015    4        7    20  36    3.2169   474.6    3.825      35.022
2015    4        7    20  41    3.2181   474.3    3.831      34.992
2015    4        7    20  47    3.2194   474.0    3.837      34.962
2015    4        7    20  53    3.2207   473.8    3.843      34.932
2015    4        7    20  59    3.2220   473.5    3.848      34.903
2015    4        7    21   5    3.2233   473.2    3.854      34.874
2015    4        7    21  11    3.2246   473.0    3.860      34.844
2015    4        7    21  17    3.2259   472.7    3.866      34.815
2015    4        7    21  22    3.2273   472.4    3.872      34.787
2015    4        7    21  28    3.2287   472.1    3.878      34.758
2015    4        7    21  34    3.2300   471.9    3.884      34.729
2015    4        7    21  40    3.2314   471.6    3.890      34.701
2015    4        7    21  46    3.2329   471.3    3.896      34.673
2015    4        7    21  52    3.2343   471.1    3.902      34.645
2015    4        7    21  57    3.2357   470.8    3.908      34.617
2015    4        7    22   3    3.2372   470.5    3.914      34.590
2015    4        7    22   9    3.2387   470.3    3.920      34.562
2015    4        7    22  15    3.2402   470.0    3.927      34.535
2015    4        7    22  21    3.2417   469.8    3.933      34.508
2015    4        7    22  27    3.2432   469.5    3.939      34.481
2015    4        7    22  32    3.2447   469.2    3.945      34.454
2015    4        7    22  38    3.2463   469.0    3.952      34.428
2015    4        7    22  44    3.2479   468.7    3.958      34.402
2015    4        7    22  50    3.2495   468.4    3.965      34.376
2015    4        7    22  56    3.2511   468.2    3.971      34.350
2015    4        7    23   2    3.2528   467.9    3.978      34.325
2015    4        7    23   7    3.2545   467.7    3.984      34.299
2015    4        7    23  13    3.2561   467.4    3.991      34.274
2015    4        7    23  19    3.2579   467.1    3.997      34.249
2015    4        7    23  25    3.2596   466.9    4.004      34.225
2015    4        7    23  31    3.2614   466.6    4.011      34.200
2015    4        7    23  37    3.2631   466.4    4.018      34.176
2015    4        7    23  43    3.2649   466.1    4.024      34.152
2015    4        7    23  48    3.2668   465.9    4.031      34.129
2015    4        7    23  54    3.2686   465.6    4.038      34.105
2015    4        8     0   0    3.2705   465.4    4.045      34.082
2015    4        8     0   6    3.2724   465.1    4.052      34.059
2015    4        8     0  12    3.2743   464.9    4.059      34.037
2015    4        8     0  18    3.2762   464.6    4.065      34.014
2015    4        8     0  23    3.2782   464.4    4.072      33.992
2015    4        8     0  29    3.2802   464.1    4.079      33.970
2015    4        8     0  35    3.2822   463.9    4.086      33.948
2015    4        8     0  41    3.2842   463.6    4.093      33.926
2015    4        8     0  47    3.2862   463.4    4.100      33.904
2015    4        8     0  53    3.2883   463.1    4.107      33.883
2015    4        8     0  58    3.2904   462.9    4.114      33.862
2015    4        8     1   4    3.2925   462.6    4.121      33.841
2015    4        8     1  10    3.2946   462.4    4.128      33.820
2015    4        8     1  16    3.2968   462.2    4.135      33.799
2015    4        8     1  22    3.2989   461.9    4.142      33.778
2015    4        8     1  28    3.3011   461.7    4.149      33.757
2015    4        8     1  33    3.3033   461.5    4.156      33.737
2015    4        8     1  39    3.3055   461.2    4.163      33.716
2015    4        8     1  45    3.3077   461.0    4.170      33.696
2015    4        8     1  51    3.3100   460.7    4.177      33.676
2015    4        8     1  57    3.3122   460.5    4.184      33.655
2015    4        8     2   3    3.3145   460.3    4.191      33.635
2015    4        8     2   9    3.3168   460.0    4.198      33.615
2015    4        8     2  14    3.3191   459.8    4.205      33.595
2015    4        8     2  20    3.3214   459.6    4.212      33.575
2015    4        8     2  26    3.3238   459.4    4.219      33.555
2015    4        8     2  32    3.3261   459.1    4.226      33.535
2015    4        8     2  38    3.3285   458.9    4.232      33.516
2015    4        8     2  44    3.3308   458.7    4.239      33.496
2015    4        8     2  49    3.3332   458.4    4.246      33.476
2015    4        8     2  55    3.3356   458.2    4.253      33.457
2015    4        8     3   1    3.3381   458.0    4.260      33.438
2015    4        8     3   7    3.3405   457.8    4.267      33.419
2015    4        8     3  13    3.3429   457.6    4.273      33.399
2015    4        8     3  19    3.3454   457.3    4.280      33.381
2015    4        8     3  24    3.3479   457.1    4.287      33.362
2015    4        8     3  30    3.3503   456.9    4.294      33.343
2015    4        8     3  36    3.3529   456.7    4.301      33.325
2015    4        8     3  42    3.3554   456.5    4.308      33.307
2015    4        8     3  48    3.3579   456.2    4.315      33.289
2015    4        8     3  54    3.3604   456.0    4.322      33.271
2015    4        8     3  59    3.3630   455.8    4.329      33.254
2015    4        8     4   5    3.3656   455.6    4.336      33.236
2015    4        8     4  11    3.3682   455.4    4.343      33.219
2015    4        8     4  17    3.3707   455.2    4.350      33.203
2015    4        8     4  23    3.3734   454.9    4.357      33.186
2015    4        8     4  29    3.3760   454.7    4.364      33.170
2015    4        8     4  35    3.3786   454.5    4.372      33.154
2015    4        8     4  40    3.3813   454.3    4.379      33.139
2015    4        8     4  46    3.3839   454.1    4.386      33.123
2015    4        8     4  52    3.3866   453.9    4.394      33.108
2015    4        8     4  58    3.3893   453.7    4.401      33.093
2015    4        8     5   4    3.3920   453.5    4.408      33.079
2015    4        8     5  10    3.3947   453.3    4.416      33.065
2015    4        8     5  15    3.3974   453.1    4.423      33.051
2015    4        8     5  21    3.4002   452.9    4.431      33.038
2015    4        8     5  27    3.4029   452.7    4.439      33.024
2015    4        8     5  33    3.4057   452.5    4.446      33.011
2015    4        8     5  39    3.4085   452.3    4.454      32.999
2015    4        8     5  45    3.4113   452.1    4.462      32.986
2015    4        8     5  50    3.4141   451.9    4.470      32.974
2015    4        8     5  56    3.4169   451.7    4.478      32.962
2015    4        8     6   2    3.4197   451.5    4.485      32.951
2015    4        8     6   8    3.4226   451.3    4.493      32.939
2015    4        8     6  14    3.4254   451.1    4.501      32.928
2015    4        8     6  20    3.4283   450.9    4.509      32.917
2015    4        8     6  26    3.4312   450.7    4.518      32.907
2015    4        8     6  31    3.4341   450.5    4.526      32.896
2015    4        8     6  37    3.4370   450.4    4.534      32.886
2015    4        8     6  43    3.4399   450.2    4.542      32.876
2015    4        8     6  49    3.4428   450.0    4.550      32.866
2015    4        8     6  55    3.4458   449.8    4.558      32.857
2015    4        8     7   1    3.4488   449.6    4.567      32.848
2015    4        8     7   6    3.4518   449.4    4.575      32.839
2015    4        8     7  12    3.4548   449.2    4.583      32.830
2015    4        8     7  18    3.4578   449.0    4.592      32.821
2015    4        8     7  24    3.4608   448.9    4.600      32.813
2015    4        8     7  30    3.4638   448.7    4.608      32.804
2015    4        8     7  36    3.4669   448.5    4.617      32.796
2015    4        8     7  41    3.4700   448.3    4.625      32.788
2015    4        8     7  47    3.4731   448.1    4.634      32.781
2015    4        8     7  53    3.4762   448.0    4.642      32.773
2015    4        8     7  59    3.4793   447.8    4.651      32.766
2015    4        8     8   5    3.4824   447.6    4.659      32.759
2015    4        8     8  11    3.4856   447.4    4.668      32.752
2015    4        8     8  16    3.4887   447.3    4.676      32.745
2015    4        8     8  22    3.4919   447.1    4.685      32.738
2015    4        8     8  28    3.4951   446.9    4.693      32.732
2015    4        8     8  34    3.4983   446.7    4.702      32.726
2015    4        8     8  40    3.5015   446.6    4.710      32.719
2015    4        8     8  46    3.5047   446.4    4.719      32.713
2015    4        8     8  52    3.5079   446.2    4.727      32.707
2015    4        8     8  57    3.5112   446.1    4.736      32.702
2015    4        8     9   3    3.5144   445.9    4.744      32.696
2015    4        8     9   9    3.5177   445.7    4.752      32.690
2015    4        8     9  15    3.5210   445.6    4.761      32.685
2015    4        8     9  21    3.5242   445.4    4.769      32.680
2015    4        8     9  27    3.5275   445.2    4.778      32.674
2015    4        8     9  32    3.5308   445.1    4.786      32.669
2015    4        8     9  38    3.5341   444.9    4.794      32.664
2015    4        8     9  44    3.5374   444.7    4.803      32.660
2015    4        8     9  50    3.5408   444.6    4.811      32.655
2015    4        8     9  56    3.5441   444.4    4.819      32.650
2015    4        8    10   2    3.5474   444.3    4.827      32.646
2015    4        8    10   7    3.5508   444.1    4.836      32.642
2015    4        8    10  13    3.5541   443.9    4.844      32.637
2015    4        8    10  19    3.5575   443.8    4.852      32.633
2015    4        8    10  25    3.5608   443.6    4.860      32.629
2015    4        8    10  31    3.5642   443.5    4.868      32.626
2015    4        8    10  37    3.5676   443.3    4.876      32.622
2015    4        8    10  42    3.5710   443.2    4.885      32.619
2015    4        8    10  48    3.5744   443.0    4.893      32.616
2015    4        8    10  54    3.5778   442.8    4.901      32.613
2015    4        8    11   0    3.5812   442.7    4.909      32.610
2015    4        8    11   6    3.5846   442.5    4.917      32.607
2015    4        8    11  12    3.5880   442.4    4.925      32.605
2015    4        8    11  18    3.5914   442.2    4.933      32.603
2015    4        8    11  23    3.5949   442.1    4.941      32.601
2015    4        8    11  29    3.5983   441.9    4.950      32.600
2015    4        8    11  35    3.6017   441.8    4.958      32.599
2015    4        8    11  41    3.6052   441.6    4.966      32.598
2015    4        8    11  47    3.6087   441.5    4.974      32.597
2015    4        8    11  53    3.6121   441.3    4.982      32.597
2015    4        8    11  58    3.6156   441.2    4.991      32.597
2015    4        8    12   4    3.6191   441.1    4.999      32.597
2015    4        8    12  10    3.6226   440.9    5.007      32.597
2015    4        8    12  16    3.6261   440.8    5.015      32.598
2015    4        8    12  22    3.6296   440.6    5.024      32.599
2015    4        8    12  28    3.6331   440.5    5.032      32.601
2015    4        8    12  33    3.6366   440.4    5.040      32.603
2015    4        8    12  39    3.6401   440.2    5.049      32.605
2015    4        8    12  45    3.6436   440.1    5.057      32.607
2015    4        8    12  51    3.6471   440.0    5.065      32.609
2015    4        8    12  57    3.6507   439.8    5.074      32.612
2015    4        8    13   3    3.6542   439.7    5.082      32.615
2015    4        8    13   8    3.6577   439.6    5.090      32.619
2015    4        8    13  14    3.6613   439.4    5.099      32.622
2015    4        8    13  20    3.6648   439.3    5.107      32.626
2015    4        8    13  26    3.6683   439.2    5.115      32.629
2015    4        8    13  32    3.6719   439.0    5.124      32.633
2015    4        8    13  38    3.6754   438.9    5.132      32.637
2015    4        8    13  44    3.6789   438.8    5.140      32.642
2015    4        8    13  49    3.6825   438.7    5.149      32.646
2015    4        8    13  55    3.6860   438.5    5.157      32.650
2015    4        8    14   1    3.6895   438.4    5.165      32.655
2015    4        8    14   7    3.6930   438.3    5.173      32.660
2015    4        8    14  13    3.6966   438.2    5.181      32.664
2015    4        8    14  19    3.7001   438.1    5.190      32.669
2015    4        8    14  24    3.7036   437.9    5.198      32.673
2015    4        8    14  30    3.7071   437.8    5.206      32.678
2015    4        8    14  36    3.7106   437.7    5.214      32.682
2015    4        8    14  42    3.7141   437.6    5.222      32.687
2015    4        8    14  48    3.7176   437.5    5.230      32.691
2015    4        8    14  54    3.7211   437.4    5.237      32.696
2015    4        8    14  59    3.7246   437.2    5.245      32.700
2015    4        8    15   5    3.7281   437.1    5.253      32.704
2015    4        8    15  11    3.7316   437.0    5.261      32.708
2015    4        8    15  17    3.7350   436.9    5.269      32.712
2015    4        8    15  23    3.7385   436.8    5.276      32.716
2015    4        8    15  29    3.7420   436.7    5.284      32.720
2015    4        8    15  34    3.7455   436.6    5.291      32.723
2015    4        8    15  40    3.7489   436.4    5.299      32.727
2015    4        8    15  46    3.7524   436.3    5.306      32.730
2015    4        8    15  52    3.7559   436.2    5.314      32.734
2015    4        8    15  58    3.7594   436.1    5.321      32.737
2015    4        8    16   4    3.7628   436.0    5.329      32.741
2015    4        8    16  10    3.7663   435.9    5.336      32.744
2015    4        8    16  15    3.7698   435.8    5.344      32.748
2015    4        8    16  21    3.7733   435.7    5.351      32.751
2015    4        8    16  27    3.7768   435.6    5.359      32.755
2015    4        8    16  33    3.7803   435.5    5.366      32.758
2015    4        8    16  39    3.7838   435.4    5.373      32.761
2015    4        8    16  45    3.7873   435.2    5.381      32.765
2015    4        8    16  50    3.7908   435.1    5.388      32.769
2015    4        8    16  56    3.7943   435.0    5.395      32.772
2015    4        8    17   2    3.7978   434.9    5.403      32.776
2015    4        8    17   8    3.8014   434.8    5.410      32.780
2015    4        8    17  14    3.8049   434.7    5.418      32.784
2015    4        8    17  20    3.8085   434.6    5.425      32.788
2015    4        8    17  25    3.8121   434.5    5.432      32.793
2015    4        8    17  31    3.8156   434.4    5.440      32.797
2015    4        8    17  37    3.8192   434.3    5.447      32.802
2015    4        8    17  43    3.8228   434.2    5.455      32.807
2015    4        8    17  49    3.8264   434.1    5.462      32.812
2015    4        8    17  55    3.8301   434.0    5.470      32.817
2015    4        8    18   1    3.8337   433.9    5.477      32.822
2015    4        8    18   6    3.8373   433.8    5.485      32.828
2015    4        8    18  12    3.8410   433.7    5.492      32.833
2015    4        8    18  18    3.8447   433.6    5.500      32.839
2015    4        8    18  24    3.8483   433.5    5.507      32.845
2015    4        8    18  30    3.8520   433.4    5.515      32.852
2015    4        8    18  36    3.8557   433.3    5.523      32.858
2015    4        8    18  41    3.8594   433.3    5.530      32.865
2015    4        8    18  47    3.8631   433.2    5.538      32.871
2015    4        8    18  53    3.8668   433.1    5.545      32.878
2015    4        8    18  59    3.8706   433.0    5.553      32.885
2015    4        8    19   5    3.8743   432.9    5.561      32.892
2015    4        8    19  11    3.8780   432.8    5.568      32.900
2015    4        8    19  16    3.8817   432.7    5.576      32.907
2015    4        8    19  22    3.8855   432.6    5.583      32.915
2015    4        8    19  28    3.8892   432.5    5.591      32.922
2015    4        8    19  34    3.8929   432.5    5.598      32.930
2015    4        8    19  40    3.8966   432.4    5.606      32.938
2015    4        8    19  46    3.9003   432.3    5.613      32.946
2015    4        8    19  51    3.9040   432.2    5.620      32.955
2015    4        8    19  57    3.9077   432.1    5.628      32.963
2015    4        8    20   3    3.9114   432.0    5.635      32.972
2015    4        8    20   9    3.9150   432.0    5.642      32.981
2015    4        8    20  15    3.9187   431.9    5.649      32.990
2015    4        8    20  21    3.9223   431.8    5.656      32.999
2015    4        8    20  27    3.9260   431.7    5.663      33.008
2015    4        8    20  32    3.9296   431.6    5.670      33.018
2015    4        8    20  38    3.9332   431.6    5.677      33.027
2015    4        8    20  44    3.9368   431.5    5.684      33.037
2015    4        8    20  50    3.9404   431.4    5.690      33.047
2015    4        8    20  56    3.9440   431.3    5.697      33.057
2015    4        8    21   2    3.9475   431.2    5.704      33.066
2015    4        8    21   7    3.9511   431.2    5.710      33.076
2015    4        8    21  13    3.9547   431.1    5.716      33.086
2015    4        8    21  19    3.9582   431.0    5.723      33.095
2015    4        8    21  25    3.9617   430.9    5.729      33.105
2015    4        8    21  31    3.9653   430.9    5.735      33.115
2015    4        8    21  37    3.9688   430.8    5.742      33.124
2015    4        8    21  42    3.9723   430.7    5.748      33.134
2015    4        8    21  48    3.9758   430.6    5.754      33.143
2015    4        8    21  54    3.9793   430.6    5.760      33.152
2015    4        8    22   0    3.9828   430.5    5.766      33.161
2015    4        8    22   6    3.9862   430.4    5.772      33.170
2015    4        8    22  12    3.9897   430.4    5.778      33.180
2015    4        8    22  17    3.9931   430.3    5.784      33.189
2015    4        8    22  23    3.9966   430.2    5.789      33.197
2015    4        8    22  29    4.0000   430.1    5.795      33.206
2015    4        8    22  35    4.0035   430.1    5.801      33.215
2015    4        8    22  41    4.0069   430.0    5.807      33.224
2015    4        8    22  47    4.0103   429.9    5.812      33.232
2015    4        8    22  53    4.0137   429.9    5.818      33.241
2015    4        8    22  58    4.0171   429.8    5.823      33.250
2015    4        8    23   4    4.0205   429.7    5.829      33.258
2015    4        8    23  10    4.0239   429.7    5.835      33.267
2015    4        8    23  16    4.0272   429.6    5.840      33.275
2015    4        8    23  22    4.0306   429.5    5.846      33.284
2015    4        8    23  28    4.0340   429.5    5.851      33.292
2015    4        8    23  33    4.0374   429.4    5.857      33.301
2015    4        8    23  39    4.0407   429.4    5.862      33.309
2015    4        8    23  45    4.0441   429.3    5.868      33.318
2015    4        8    23  51    4.0474   429.2    5.873      33.327
2015    4        8    23  57    4.0508   429.2    5.879      33.335
2015    4        9     0   3    4.0541   429.1    5.884      33.344
2015    4        9     0   8    4.0575   429.0    5.890      33.352
2015    4        9     0  14    4.0608   429.0    5.895      33.361
2015    4        9     0  20    4.0641   428.9    5.901      33.370
2015    4        9     0  26    4.0675   428.9    5.907      33.378
2015    4        9     0  32    4.0708   428.8    5.912      33.387
2015    4        9     0  38    4.0742   428.7    5.918      33.396
2015    4        9     0  43    4.0775   428.7    5.923      33.405
2015    4        9     0  49    4.0808   428.6    5.929      33.414
2015    4        9     0  55    4.0842   428.6    5.935      33.423
2015    4        9     1   1    4.0875   428.5    5.941      33.431
2015    4        9     1   7    4.0909   428.5    5.947      33.440
2015    4        9     1  13    4.0943   428.4    5.952      33.449
2015    4        9     1  19    4.0976   428.4    5.958      33.459
2015    4        9     1  24    4.1010   428.3    5.964      33.468
2015    4        9     1  30    4.1044   428.2    5.970      33.477
2015    4        9     1  36    4.1077   428.2    5.976      33.486
2015    4        9     1  42    4.1111   428.1    5.982      33.495
2015    4        9     1  48    4.1145   428.1    5.989      33.505
2015    4        9     1  54    4.1179   428.0    5.995      33.514
2015    4        9     1  59    4.1213   428.0    6.001      33.523
2015    4        9     2   5    4.1248   427.9    6.007      33.533
2015    4        9     2  11    4.1282   427.9    6.014      33.543
2015    4        9     2  17    4.1316   427.8    6.020      33.553
2015    4        9     2  23    4.1351   427.8    6.026      33.563
2015    4        9     2  29    4.1385   427.8    6.033      33.573
2015    4        9     2  34    4.1420   427.7    6.039      33.583
2015    4        9     2  40    4.1455   427.7    6.046      33.594
2015    4        9     2  46    4.1489   427.6    6.052      33.605
2015    4        9     2  52    4.1524   427.6    6.059      33.616
2015    4        9     2  58    4.1558   427.5    6.065      33.628
2015    4        9     3   4    4.1593   427.5    6.071      33.640
2015    4        9     3   9    4.1627   427.5    6.077      33.653
2015    4        9     3  15    4.1661   427.4    6.083      33.667
2015    4        9     3  21    4.1695   427.4    6.089      33.681
2015    4        9     3  27    4.1728   427.4    6.095      33.696
2015    4        9     3  33    4.1762   427.3    6.101      33.711
2015    4        9     3  39    4.1795   427.3    6.107      33.726
2015    4        9     3  45    4.1828   427.3    6.112      33.742
2015    4        9     3  50    4.1860   427.2    6.117      33.758
2015    4        9     3  56    4.1893   427.2    6.123      33.774
2015    4        9     4   2    4.1925   427.2    6.128      33.790
2015    4        9     4   8    4.1958   427.1    6.133      33.806
2015    4        9     4  14    4.1990   427.1    6.138      33.823
2015    4        9     4  20    4.2021   427.1    6.143      33.839
2015    4        9     4  25    4.2053   427.0    6.148      33.855
2015    4        9     4  31    4.2084   427.0    6.152      33.870
2015    4        9     4  37    4.2116   427.0    6.157      33.886
2015    4        9     4  43    4.2147   426.9    6.162      33.902
2015    4        9     4  49    4.2178   426.9    6.166      33.917
2015    4        9     4  55    4.2208   426.9    6.171      33.932
2015    4        9     5   0    4.2239   426.8    6.175      33.947
2015    4        9     5   6    4.2269   426.8    6.179      33.962
2015    4        9     5  12    4.2299   426.8    6.183      33.977
2015    4        9     5  18    4.2329   426.7    6.188      33.991
2015    4        9     5  24    4.2359   426.7    6.192      34.005
2015    4        9     5  30    4.2389   426.7    6.196      34.020
2015    4        9     5  36    4.2419   426.6    6.200      34.034
2015    4        9     5  41    4.2448   426.6    6.203      34.047
2015    4        9     5  47    4.2478   426.6    6.207      34.061
2015    4        9     5  53    4.2507   426.5    6.211      34.074
2015    4        9     5  59    4.2536   426.5    6.215      34.087
2015    4        9     6   5    4.2565   426.5    6.219      34.100
2015    4        9     6  11    4.2594   426.5    6.222      34.113
2015    4        9     6  16    4.2622   426.4    6.226      34.126
2015    4        9     6  22    4.2651   426.4    6.229      34.138
2015    4        9     6  28    4.2679   426.4    6.233      34.151
2015    4        9     6  34    4.2708   426.3    6.236      34.163
2015    4        9     6  40    4.2736   426.3    6.240      34.175
2015    4        9     6  46    4.2764   426.3    6.243      34.187
2015    4        9     6  51    4.2792   426.2    6.247      34.199
2015    4        9     6  57    4.2821   426.2    6.250      34.210
2015    4        9     7   3    4.2848   426.2    6.254      34.221
2015    4        9     7   9    4.2876   426.2    6.257      34.233
2015    4        9     7  15    4.2904   426.1    6.261      34.244
2015    4        9     7  21    4.2932   426.1    6.264      34.255
2015    4        9     7  26    4.2960   426.1    6.267      34.265
2015    4        9     7  32    4.2987   426.1    6.271      34.276
2015    4        9     7  38    4.3015   426.0    6.274      34.287
2015    4        9     7  44    4.3042   426.0    6.277      34.297
2015    4        9     7  50    4.3070   426.0    6.281      34.307
2015    4        9     7  56    4.3097   425.9    6.284      34.317
2015    4        9     8   2    4.3124   425.9    6.288      34.327
2015    4        9     8   7    4.3152   425.9    6.291      34.337
2015    4        9     8  13    4.3179   425.9    6.295      34.347
2015    4        9     8  19    4.3206   425.8    6.298      34.357
2015    4        9     8  25    4.3234   425.8    6.302      34.366
2015    4        9     8  31    4.3261   425.8    6.305      34.376
2015    4        9     8  37    4.3288   425.8    6.309      34.386
2015    4        9     8  42    4.3315   425.7    6.312      34.395
2015    4        9     8  48    4.3343   425.7    6.316      34.405
2015    4        9     8  54    4.3370   425.7    6.320      34.414
2015    4        9     9   0    4.3398   425.7    6.324      34.424
2015    4        9     9   6    4.3425   425.7    6.328      34.433
2015    4        9     9  12    4.3453   425.6    6.332      34.443
2015    4        9     9  17    4.3480   425.6    6.336      34.452
2015    4        9     9  23    4.3508   425.6    6.340      34.462
2015    4        9     9  29    4.3536   425.6    6.344      34.472
2015    4        9     9  35    4.3564   425.5    6.349      34.483
2015    4        9     9  41    4.3592   425.5    6.353      34.493
2015    4        9     9  47    4.3621   425.5    6.358      34.504
2015    4        9     9  52    4.3649   425.5    6.362      34.515
2015    4        9     9  58    4.3678   425.5    6.367      34.526
2015    4        9    10   4    4.3706   425.5    6.372      34.538
2015    4        9    10  10    4.3735   425.4    6.376      34.550
2015    4        9    10  16    4.3764   425.4    6.381      34.563
2015    4        9    10  22    4.3792   425.4    6.386      34.577
2015    4        9    10  28    4.3821   425.4    6.390      34.591
2015    4        9    10  33    4.3849   425.4    6.395      34.607
2015    4        9    10  39    4.3878   425.4    6.400      34.622
2015    4        9    10  45    4.3906   425.4    6.404      34.639
2015    4        9    10  51    4.3934   425.4    6.409      34.656
2015    4        9    10  57    4.3962   425.4    6.413      34.673
2015    4        9    11   3    4.3990   425.4    6.418      34.691
2015    4        9    11   8    4.4017   425.4    6.422      34.710
2015    4        9    11  14    4.4045   425.4    6.426      34.729
2015    4        9    11  20    4.4072   425.3    6.431      34.749
2015    4        9    11  26    4.4098   425.3    6.435      34.769
2015    4        9    11  32    4.4125   425.3    6.439      34.789
2015    4        9    11  38    4.4151   425.3    6.443      34.810
2015    4        9    11  43    4.4176   425.3    6.446      34.831
2015    4        9    11  49    4.4202   425.3    6.450      34.852
2015    4        9    11  55    4.4227   425.3    6.453      34.874
2015    4        9    12   1    4.4252   425.3    6.457      34.895
2015    4        9    12   7    4.4276   425.3    6.460      34.917
2015    4        9    12  13    4.4300   425.3    6.463      34.938
2015    4        9    12  18    4.4324   425.3    6.466      34.959
2015    4        9    12  24    4.4348   425.3    6.469      34.980
2015    4        9    12  30    4.4371   425.3    6.471      35.000
2015    4        9    12  36    4.4395   425.3    6.474      35.020
2015    4        9    12  42    4.4418   425.3    6.477      35.040
2015    4        9    12  48    4.4441   425.3    6.479      35.059
2015    4        9    12  54    4.4463   425.3    6.482      35.077
2015    4        9    12  59    4.4486   425.3    6.484      35.095
2015    4        9    13   5    4.4508   425.3    6.486      35.113
2015    4        9    13  11    4.4530   425.3    6.488      35.130
2015    4        9    13  17    4.4552   425.3    6.491      35.147
2015    4        9    13  23    4.4574   425.3    6.493      35.164
2015    4        9    13  29    4.4596   425.3    6.495      35.180
2015    4        9    13  34    4.4617   425.3    6.497      35.196
2015    4        9    13  40    4.4639   425.3    6.499      35.212
2015    4        9    13  46    4.4660   425.3    6.500      35.227
2015    4        9    13  52    4.4681   425.3    6.502      35.242
2015    4        9    13  58    4.4703   425.3    6.504      35.257
2015    4        9    14   4    4.4724   425.3    6.506      35.271
2015    4        9    14   9    4.4745   425.3    6.507      35.285
2015    4        9    14  15    4.4765   425.2    6.509      35.299
2015    4        9    14  21    4.4786   425.2    6.511      35.312
2015    4        9    14  27    4.4807   425.2    6.512      35.325
2015    4        9    14  33    4.4828   425.2    6.514      35.338
2015    4        9    14  39    4.4848   425.2    6.515      35.351
2015    4        9    14  44    4.4869   425.2    6.517      35.363
2015    4        9    14  50    4.4889   425.2    6.518      35.375
2015    4        9    14  56    4.4909   425.2    6.520      35.387
2015    4        9    15   2    4.4930   425.2    6.521      35.399
2015    4        9    15   8    4.4950   425.2    6.522      35.410
2015    4        9    15  14    4.4970   425.2    6.524      35.421
2015    4        9    15  20    4.4990   425.2    6.525      35.432
2015    4        9    15  25    4.5010   425.2    6.526      35.443
2015    4        9    15  31    4.5030   425.2    6.528      35.454
2015    4        9    15  37    4.5050   425.2    6.529      35.464
2015    4        9    15  43    4.5070   425.2    6.530      35.475
2015    4        9    15  49    4.5090   425.2    6.532      35.485
2015    4        9    15  55    4.5110   425.2    6.533      35.495
2015    4        9    16   0    4.5130   425.2    6.535      35.506
2015    4        9    16   6    4.5150   425.2    6.536      35.516
2015    4        9    16  12    4.5170   425.2    6.537      35.526
2015    4        9    16  18    4.5189   425.1    6.539      35.536
2015    4        9    16  24    4.5209   425.1    6.541      35.546
2015    4        9    16  30    4.5229   425.1    6.542      35.557
2015    4        9    16  35    4.5249   425.1    6.544      35.567
2015    4        9    16  41    4.5269   425.1    6.545      35.577
2015    4        9    16  47    4.5289   425.1    6.547      35.588
2015    4        9    16  53    4.5309   425.1    6.549      35.599
2015    4        9    16  59    4.5329   425.1    6.551      35.610
2015    4        9    17   5    4.5349   425.1    6.553      35.621
2015    4        9    17  10    4.5369   425.1    6.555      35.632
2015    4        9    17  16    4.5390   425.1    6.557      35.643
2015    4        9    17  22    4.5410   425.1    6.559      35.655
2015    4        9    17  28    4.5430   425.1    6.562      35.667
2015    4        9    17  34    4.5451   425.1    6.564      35.679
2015    4        9    17  40    4.5471   425.1    6.566      35.691
2015    4        9    17  46    4.5492   425.1    6.569      35.704
2015    4        9    17  51    4.5513   425.1    6.572      35.717
2015    4        9    17  57    4.5533   425.1    6.574      35.731
2015    4        9    18   3    4.5554   425.1    6.577      35.745
2015    4        9    18   9    4.5575   425.1    6.580      35.759
2015    4        9    18  15    4.5596   425.1    6.583      35.774
2015    4        9    18  21    4.5616   425.1    6.586      35.790
2015    4        9    18  26    4.5637   425.1    6.588      35.806
2015    4        9    18  32    4.5657   425.1    6.591      35.822
2015    4        9    18  38    4.5677   425.1    6.594      35.839
2015    4        9    18  44    4.5697   425.1    6.597      35.857
2015    4        9    18  50    4.5717   425.1    6.600      35.876
2015    4        9    18  56    4.5736   425.1    6.602      35.895
2015    4        9    19   1    4.5755   425.1    6.605      35.915
2015    4        9    19   7    4.5774   425.2    6.608      35.935
2015    4        9    19  13    4.5793   425.2    6.610      35.956
2015    4        9    19  19    4.5811   425.2    6.613      35.976
2015    4        9    19  25    4.5829   425.2    6.615      35.997
2015    4        9    19  31    4.5847   425.2    6.617      36.018
2015    4        9    19  36    4.5865   425.2    6.619      36.039
2015    4        9    19  42    4.5882   425.2    6.622      36.059
2015    4        9    19  48    4.5899   425.2    6.624      36.080
2015    4        9    19  54    4.5916   425.2    6.626      36.100
2015    4        9    20   0    4.5933   425.2    6.627      36.121
2015    4        9    20   6    4.5950   425.2    6.629      36.141
2015    4        9    20  12    4.5966   425.3    6.631      36.161
2015    4        9    20  17    4.5982   425.3    6.633      36.182
2015    4        9    20  23    4.5998   425.3    6.634      36.202
2015    4        9    20  29    4.6014   425.3    6.636      36.222
2015    4        9    20  35    4.6030   425.3    6.637      36.241
2015    4        9    20  41    4.6046   425.3    6.638      36.261
2015    4        9    20  47    4.6062   425.3    6.640      36.280
2015    4        9    20  52    4.6077   425.3    6.641      36.299
2015    4        9    20  58    4.6092   425.3    6.642      36.318
2015    4        9    21   4    4.6108   425.3    6.643      36.336
2015    4        9    21  10    4.6123   425.4    6.644      36.354
2015    4        9    21  16    4.6138   425.4    6.645      36.371
2015    4        9    21  22    4.6153   425.4    6.646      36.389
2015    4        9    21  27    4.6168   425.4    6.647      36.406
2015    4        9    21  33    4.6183   425.4    6.648      36.423
2015    4        9    21  39    4.6197   425.4    6.649      36.439
2015    4        9    21  45    4.6212   425.4    6.650      36.455
2015    4        9    21  51    4.6227   425.4    6.651      36.471
2015    4        9    21  57    4.6242   425.4    6.651      36.487
2015    4        9    22   3    4.6256   425.4    6.652      36.502
2015    4        9    22   8    4.6271   425.4    6.653      36.518
2015    4        9    22  14    4.6285   425.5    6.653      36.532
2015    4        9    22  20    4.6300   425.5    6.654      36.547
2015    4        9    22  26    4.6314   425.5    6.655      36.562
2015    4        9    22  32    4.6329   425.5    6.655      36.576
2015    4        9    22  38    4.6343   425.5    6.656      36.590
2015    4        9    22  43    4.6358   425.5    6.656      36.604
2015    4        9    22  49    4.6372   425.5    6.657      36.618
2015    4        9    22  55    4.6386   425.5    6.657      36.632
2015    4        9    23   1    4.6401   425.5    6.658      36.646
2015    4        9    23   7    4.6415   425.5    6.659      36.659
2015    4        9    23  13    4.6430   425.5    6.659      36.673
2015    4        9    23  18    4.6444   425.6    6.660      36.686
2015    4        9    23  24    4.6459   425.6    6.660      36.700
2015    4        9    23  30    4.6473   425.6    6.661      36.713
2015    4        9    23  36    4.6488   425.6    6.661      36.727
2015    4        9    23  42    4.6502   425.6    6.662      36.740
2015    4        9    23  48    4.6517   425.6    6.663      36.754
2015    4        9    23  53    4.6531   425.6    6.663      36.767
2015    4        9    23  59    4.6546   425.6    6.664      36.781
2015    4       10     0   5    4.6560   425.6    6.665      36.795
2015    4       10     0  11    4.6575   425.6    6.665      36.809
2015    4       10     0  17    4.6589   425.6    6.666      36.823
2015    4       10     0  23    4.6604   425.7    6.667      36.837
2015    4       10     0  29    4.6618   425.7    6.668      36.851
2015    4       10     0  34    4.6633   425.7    6.669      36.865
2015    4       10     0  40    4.6647   425.7    6.670      36.880
2015    4       10     0  46    4.6661   425.7    6.671      36.894
2015    4       10     0  52    4.6676   425.7    6.672      36.909
2015    4       10     0  58    4.6690   425.7    6.673      36.924
2015    4       10     1   4    4.6704   425.7    6.674      36.939
2015    4       10     1   9    4.6718   425.8    6.675      36.954
2015    4       10     1  15    4.6732   425.8    6.676      36.969
2015    4       10     1  21    4.6746   425.8    6.677      36.985
2015    4       10     1  27    4.6760   425.8    6.678      37.000
2015    4       10     1  33    4.6773   425.8    6.679      37.015
2015    4       10     1  39    4.6787   425.8    6.680      37.031
2015    4       10     1  44    4.6801   425.8    6.682      37.046
2015    4       10     1  50    4.6814   425.9    6.683      37.062
2015    4       10     1  56    4.6827   425.9    6.684      37.078
2015    4       10     2   2    4.6841   425.9    6.685      37.093
2015    4       10     2   8    4.6854   425.9    6.686      37.109
2015    4       10     2  14    4.6866   425.9    6.687      37.125
2015    4       10     2  19    4.6879   425.9    6.689      37.141
2015    4       10     2  25    4.6892   425.9    6.690      37.157
2015    4       10     2  31    4.6904   426.0    6.691      37.173
2015    4       10     2  37    4.6917   426.0    6.692      37.189
2015    4       10     2  43    4.6929   426.0    6.693      37.205
2015    4       10     2  49    4.6941   426.0    6.694      37.221
2015    4       10     2  55    4.6953   426.0    6.695      37.237
2015    4       10     3   0    4.6964   426.0    6.696      37.254
2015    4       10     3   6    4.6976   426.1    6.697      37.270
2015    4       10     3  12    4.6987   426.1    6.697      37.287
2015    4       10     3  18    4.6998   426.1    6.698      37.304
2015    4       10     3  24    4.7010   426.1    6.699      37.321
2015    4       10     3  30    4.7020   426.1    6.699      37.338
2015    4       10     3  35    4.7031   426.1    6.700      37.355
2015    4       10     3  41    4.7042   426.2    6.700      37.371
2015    4       10     3  47    4.7053   426.2    6.701      37.388
2015    4       10     3  53    4.7063   426.2    6.701      37.405
2015    4       10     3  59    4.7074   426.2    6.701      37.421
2015    4       10     4   5    4.7084   426.2    6.702      37.437
2015    4       10     4  10    4.7094   426.2    6.702      37.453
2015    4       10     4  16    4.7105   426.3    6.702      37.469
2015    4       10     4  22    4.7115   426.3    6.703      37.485
2015    4       10     4  28    4.7125   426.3    6.703      37.500
2015    4       10     4  34    4.7135   426.3    6.703      37.516
2015    4       10     4  40    4.7145   426.3    6.703      37.531
2015    4       10     4  45    4.7155   426.3    6.703      37.546
2015    4       10     4  51    4.7165   426.4    6.704      37.561
2015    4       10     4  57    4.7175   426.4    6.704      37.576
2015    4       10     5   3    4.7185   426.4    6.704      37.591
2015    4       10     5   9    4.7195   426.4    6.704      37.606
2015    4       10     5  15    4.7204   426.4    6.704      37.621
2015    4       10     5  21    4.7214   426.4    6.704      37.636
2015    4       10     5  26    4.7224   426.5    6.705      37.651
2015    4       10     5  32    4.7234   426.5    6.705      37.666
2015    4       10     5  38    4.7244   426.5    6.705      37.681
2015    4       10     5  44    4.7254   426.5    6.705      37.695
2015    4       10     5  50    4.7264   426.5    6.705      37.710
2015    4       10     5  56    4.7274   426.5    6.706      37.725
2015    4       10     6   1    4.7284   426.6    6.706      37.740
2015    4       10     6   7    4.7295   426.6    6.706      37.755
2015    4       10     6  13    4.7305   426.6    6.706      37.770
2015    4       10     6  19    4.7315   426.6    6.706      37.785
2015    4       10     6  25    4.7325   426.6    6.707      37.800
2015    4       10     6  31    4.7335   426.7    6.707      37.815
2015    4       10     6  36    4.7345   426.7    6.707      37.830
2015    4       10     6  42    4.7355   426.7    6.708      37.845
2015    4       10     6  48    4.7365   426.7    6.708      37.860
2015    4       10     6  54    4.7376   426.7    6.708      37.875
2015    4       10     7   0    4.7386   426.8    6.709      37.890
2015    4       10     7   6    4.7395   426.8    6.709      37.905
2015    4       10     7  11    4.7405   426.8    6.709      37.920
2015    4       10     7  17    4.7415   426.8    6.710      37.935
2015    4       10     7  23    4.7425   426.8    6.710      37.950
2015    4       10     7  29    4.7434   426.9    6.710      37.965
2015    4       10     7  35    4.7444   426.9    6.711      37.980
2015    4       10     7  41    4.7453   426.9    6.711      37.995
2015    4       10     7  47    4.7463   426.9    6.712      38.010
2015    4       10     7  52    4.7472   427.0    6.712      38.025
2015    4       10     7  58    4.7481   427.0    6.712      38.040
2015    4       10     8   4    4.7490   427.0    6.713      38.054
2015    4       10     8  10    4.7499   427.0    6.713      38.069
2015    4       10     8  16    4.7508   427.1    6.713      38.084
2015    4       10     8  22    4.7517   427.1    6.714      38.098
2015    4       10     8  27    4.7526   427.1    6.714      38.112
2015    4       10     8  33    4.7535   427.1    6.714      38.127
2015    4       10     8  39    4.7544   427.2    6.714      38.141
2015    4       10     8  45    4.7552   427.2    6.715      38.155
2015    4       10     8  51    4.7561   427.2    6.715      38.168
2015    4       10     8  57    4.7569   427.2    6.715      38.182
2015    4       10     9   2    4.7578   427.2    6.715      38.196
2015    4       10     9   8    4.7586   427.3    6.715      38.209
2015    4       10     9  14    4.7594   427.3    6.716      38.223
2015    4       10     9  20    4.7603   427.3    6.716      38.236
2015    4       10     9  26    4.7611   427.3    6.716      38.249
2015    4       10     9  32    4.7619   427.4    6.716      38.262
2015    4       10     9  37    4.7627   427.4    6.716      38.275
2015    4       10     9  43    4.7634   427.4    6.716      38.288
2015    4       10     9  49    4.7642   427.4    6.716      38.301
2015    4       10     9  55    4.7650   427.5    6.716      38.314
2015    4       10    10   1    4.7657   427.5    6.716      38.327
2015    4       10    10   7    4.7664   427.5    6.716      38.339
2015    4       10    10  13    4.7672   427.5    6.716      38.352
2015    4       10    10  18    4.7679   427.6    6.716      38.364
2015    4       10    10  24    4.7686   427.6    6.715      38.377
2015    4       10    10  30    4.7693   427.6    6.715      38.389
2015    4       10    10  36    4.7699   427.6    6.715      38.401
2015    4       10    10  42    4.7706   427.7    6.715      38.414
2015    4       10    10  48    4.7713   427.7    6.715      38.426
2015    4       10    10  53    4.7719   427.7    6.715      38.438
2015    4       10    10  59    4.7725   427.7    6.714      38.450
2015    4       10    11   5    4.7732   427.8    6.714      38.462
2015    4       10    11  11    4.7738   427.8    6.714      38.474
2015    4       10    11  17    4.7744   427.8    6.713      38.486
2015    4       10    11  23    4.7750   427.8    6.713      38.498
2015    4       10    11  28    4.7756   427.9    6.712      38.510
2015    4       10    11  34    4.7761   427.9    6.712      38.522
2015    4       10    11  40    4.7767   427.9    6.712      38.534
2015    4       10    11  46    4.7773   427.9    6.711      38.545
2015    4       10    11  52    4.7778   427.9    6.711      38.557
2015    4       10    11  58    4.7784   428.0    6.710      38.569
2015    4       10    12   3    4.7789   428.0    6.710      38.580
2015    4       10    12   9    4.7795   428.0    6.709      38.592
2015    4       10    12  15    4.7800   428.0    6.709      38.604
2015    4       10    12  21    4.7806   428.1    6.708      38.615
2015    4       10    12  27    4.7811   428.1    6.708      38.627
2015    4       10    12  33    4.7816   428.1    6.707      38.638
2015    4       10    12  39    4.7822   428.1    6.706      38.650
2015    4       10    12  44    4.7827   428.2    6.706      38.661
2015    4       10    12  50    4.7832   428.2    6.705      38.673
2015    4       10    12  56    4.7838   428.2    6.705      38.685
2015    4       10    13   2    4.7843   428.2    6.704      38.696
2015    4       10    13   8    4.7849   428.2    6.704      38.708
2015    4       10    13  14    4.7854   428.3    6.703      38.719
2015    4       10    13  19    4.7859   428.3    6.703      38.731
2015    4       10    13  25    4.7865   428.3    6.702      38.743
2015    4       10    13  31    4.7870   428.3    6.702      38.755
2015    4       10    13  37    4.7876   428.4    6.701      38.767
2015    4       10    13  43    4.7881   428.4    6.701      38.778
2015    4       10    13  49    4.7887   428.4    6.701      38.790
2015    4       10    13  54    4.7892   428.4    6.700      38.802
2015    4       10    14   0    4.7898   428.5    6.700      38.814
2015    4       10    14   6    4.7904   428.5    6.700      38.827
2015    4       10    14  12    4.7909   428.5    6.699      38.839
2015    4       10    14  18    4.7915   428.5    6.699      38.851
2015    4       10    14  24    4.7920   428.6    6.699      38.863
2015    4       10    14  29    4.7926   428.6    6.699      38.875
2015    4       10    14  35    4.7932   428.6    6.699      38.888
2015    4       10    14  41    4.7937   428.7    6.699      38.900
2015    4       10    14  47    4.7943   428.7    6.699      38.913
2015    4       10    14  53    4.7949   428.7    6.699      38.925
2015    4       10    14  59    4.7954   428.7    6.699      38.937
2015    4       10    15   5    4.7960   428.8    6.699      38.950
2015    4       10    15  10    4.7966   428.8    6.699      38.962
2015    4       10    15  16    4.7971   428.8    6.699      38.975
2015    4       10    15  22    4.7977   428.9    6.699      38.987
2015    4       10    15  28    4.7983   428.9    6.699      39.000
2015    4       10    15  34    4.7988   428.9    6.700      39.012
2015    4       10    15  40    4.7994   429.0    6.700      39.025
2015    4       10    15  45    4.8000   429.0    6.700      39.037
2015    4       10    15  51    4.8005   429.0    6.701      39.050
2015    4       10    15  57    4.8011   429.0    6.701      39.062
2015    4       10    16   3    4.8016   429.1    6.701      39.074
2015    4       10    16   9    4.8021   429.1    6.702      39.087
2015    4       10    16  15    4.8027   429.1    6.702      39.099
2015    4       10    16  20    4.8032   429.2    6.703      39.111
2015    4       10    16  26    4.8037   429.2    6.703      39.124
2015    4       10    16  32    4.8041   429.2    6.704      39.136
2015    4       10    16  38    4.8046   429.3    6.704      39.148
2015    4       10    16  44    4.8051   429.3    6.704      39.160
2015    4       10    16  50    4.8055   429.4    6.705      39.172
2015    4       10    16  55    4.8060   429.4    6.705      39.184
2015    4       10    17   1    4.8064   429.4    6.706      39.196
2015    4       10    17   7    4.8068   429.5    6.706      39.209
2015    4       10    17  13    4.8072   429.5    6.706      39.221
2015    4       10    17  19    4.8076   429.5    6.707      39.233
2015    4       10    17  25    4.8080   429.6    6.707      39.245
2015    4       10    17  31    4.8084   429.6    6.707      39.257
2015    4       10    17  36    4.8087   429.7    6.707      39.269
2015    4       10    17  42    4.8091   429.7    6.707      39.281
2015    4       10    17  48    4.8094   429.7    6.707      39.292
2015    4       10    17  54    4.8097   429.8    6.707      39.303
2015    4       10    18   0    4.8101   429.8    6.707      39.314
2015    4       10    18   6    4.8104   429.8    6.706      39.325
2015    4       10    18  11    4.8107   429.9    6.706      39.336
2015    4       10    18  17    4.8110   429.9    6.706      39.346
2015    4       10    18  23    4.8112   430.0    6.705      39.357
2015    4       10    18  29    4.8115   430.0    6.705      39.367
2015    4       10    18  35    4.8118   430.0    6.705      39.377
2015    4       10    18  41    4.8121   430.1    6.704      39.387
2015    4       10    18  46    4.8123   430.1    6.704      39.397
2015    4       10    18  52    4.8126   430.1    6.703      39.406
2015    4       10    18  58    4.8128   430.2    6.702      39.416
2015    4       10    19   4    4.8131   430.2    6.702      39.425
2015    4       10    19  10    4.8133   430.2    6.701      39.434
2015    4       10    19  16    4.8135   430.3    6.700      39.443
2015    4       10    19  21    4.8137   430.3    6.700      39.452
2015    4       10    19  27    4.8140   430.3    6.699      39.461
2015    4       10    19  33    4.8142   430.4    6.698      39.470
2015    4       10    19  39    4.8144   430.4    6.697      39.479
2015    4       10    19  45    4.8146   430.4    6.696      39.488
2015    4       10    19  51    4.8148   430.5    6.695      39.496
2015    4       10    19  57    4.8150   430.5    6.694      39.505
2015    4       10    20   2    4.8152   430.5    6.693      39.514
2015    4       10    20   8    4.8154   430.6    6.693      39.522
2015    4       10    20  14    4.8156   430.6    6.692      39.531
2015    4       10    20  20    4.8158   430.7    6.691      39.540
2015    4       10    20  26    4.8159   430.7    6.690      39.548
2015    4       10    20  32    4.8161   430.7    6.689      39.557
2015    4       10    20  37    4.8163   430.8    6.688      39.566
2015    4       10    20  43    4.8165   430.8    6.687      39.575
2015    4       10    20  49    4.8167   430.8    6.686      39.583
2015    4       10    20  55    4.8169   430.9    6.685      39.592
2015    4       10    21   1    4.8171   430.9    6.684      39.601
2015    4       10    21   7    4.8173   430.9    6.683      39.610
2015    4       10    21  12    4.8174   431.0    6.682      39.620
2015    4       10    21  18    4.8176   431.0    6.681      39.629
2015    4       10    21  24    4.8178   431.0    6.680      39.638
2015    4       10    21  30    4.8180   431.1    6.680      39.647
2015    4       10    21  36    4.8182   431.1    6.679      39.657
2015    4       10    21  42    4.8184   431.1    6.678      39.666
2015    4       10    21  47    4.8186   431.2    6.677      39.676
2015    4       10    21  53    4.8188   431.2    6.677      39.685
2015    4       10    21  59    4.8190   431.3    6.676      39.695
2015    4       10    22   5    4.8192   431.3    6.675      39.705
2015    4       10    22  11    4.8194   431.3    6.675      39.714
2015    4       10    22  17    4.8196   431.4    6.674      39.724
2015    4       10    22  23    4.8198   431.4    6.674      39.734
2015    4       10    22  28    4.8200   431.4    6.674      39.743
2015    4       10    22  34    4.8202   431.5    6.673      39.753
2015    4       10    22  40    4.8204   431.5    6.673      39.763
2015    4       10    22  46    4.8206   431.6    6.673      39.772
2015    4       10    22  52    4.8208   431.6    6.672      39.782
2015    4       10    22  58    4.8209   431.6    6.672      39.791
2015    4       10    23   3    4.8211   431.7    6.672      39.800
2015    4       10    23   9    4.8212   431.7    6.672      39.809
2015    4       10    23  15    4.8214   431.8    6.672      39.819
2015    4       10    23  21    4.8215   431.8    6.672      39.828
2015    4       10    23  27    4.8216   431.9    6.672      39.837
2015    4       10    23  33    4.8217   431.9    6.672      39.845
2015    4       10    23  38    4.8218   431.9    6.672      39.854
2015    4       10    23  44    4.8219   432.0    6.672      39.863
2015    4       10    23  50    4.8220   432.0    6.672      39.871
2015    4       10    23  56    4.8221   432.1    6.672      39.879
2015    4       11     0   2    4.8222   432.1    6.672      39.888
2015    4       11     0   8    4.8223   432.1    6.672      39.896
2015    4       11     0  13    4.8224   432.2    6.672      39.904
2015    4       11     0  19    4.8225   432.2    6.672      39.913
2015    4       11     0  25    4.8226   432.3    6.672      39.921
2015    4       11     0  31    4.8226   432.3    6.672      39.929
2015    4       11     0  37    4.8227   432.4    6.672      39.937
2015    4       11     0  43    4.8228   432.4    6.672      39.945
2015    4       11     0  49    4.8229   432.4    6.672      39.953
2015    4       11     0  54    4.8230   432.5    6.672      39.960
2015    4       11     1   0    4.8232   432.5    6.672      39.968
2015    4       11     1   6    4.8233   432.6    6.672      39.976
2015    4       11     1  12    4.8234   432.6    6.672      39.983
2015    4       11     1  18    4.8235   432.7    6.673      39.991
2015    4       11     1  24    4.8237   432.7    6.673      39.998
2015    4       11     1  29    4.8238   432.7    6.673      40.005
2015    4       11     1  35    4.8240   432.8    6.673      40.013
2015    4       11     1  41    4.8242   432.8    6.673      40.020
2015    4       11     1  47    4.8243   432.9    6.674      40.028
2015    4       11     1  53    4.8245   432.9    6.674      40.036
2015    4       11     1  59    4.8247   433.0    6.674      40.044
2015    4       11     2   4    4.8248   433.0    6.674      40.052
2015    4       11     2  10    4.8250   433.0    6.675      40.060
2015    4       11     2  16    4.8251   433.1    6.675      40.068
2015    4       11     2  22    4.8253   433.1    6.675      40.077
2015    4       11     2  28    4.8254   433.2    6.675      40.086
2015    4       11     2  34    4.8255   433.2    6.676      40.096
2015    4       11     2  39    4.8255   433.3    6.676      40.105
2015    4       11     2  45    4.8256   433.3    6.676      40.116
2015    4       11     2  51    4.8256   433.4    6.676      40.127
2015    4       11     2  57    4.8257   433.4    6.675      40.138
2015    4       11     3   3    4.8257   433.5    6.675      40.149
2015    4       11     3   9    4.8257   433.5    6.675      40.160
2015    4       11     3  15    4.8257   433.6    6.675      40.171
2015    4       11     3  20    4.8256   433.6    6.674      40.183
2015    4       11     3  26    4.8256   433.7    6.674      40.193
2015    4       11     3  32    4.8255   433.7    6.673      40.204
2015    4       11     3  38    4.8255   433.7    6.672      40.215
2015    4       11     3  44    4.8254   433.8    6.672      40.225
2015    4       11     3  50    4.8253   433.8    6.671      40.235
2015    4       11     3  55    4.8252   433.9    6.670      40.245
2015    4       11     4   1    4.8251   433.9    6.669      40.255
2015    4       11     4   7    4.8250   434.0    6.669      40.264
2015    4       11     4  13    4.8248   434.0    6.668      40.274
2015    4       11     4  19    4.8247   434.1    6.667      40.283
2015    4       11     4  25    4.8246   434.1    6.666      40.292
2015    4       11     4  30    4.8244   434.1    6.665      40.301
2015    4       11     4  36    4.8242   434.2    6.664      40.310
2015    4       11     4  42    4.8241   434.2    6.663      40.319
2015    4       11     4  48    4.8239   434.3    6.662      40.328
2015    4       11     4  54    4.8237   434.3    6.661      40.336
2015    4       11     5   0    4.8235   434.4    6.660      40.344
2015    4       11     5   5    4.8234   434.4    6.659      40.352
2015    4       11     5  11    4.8232   434.5    6.658      40.360
2015    4       11     5  17    4.8230   434.5    6.656      40.368
2015    4       11     5  23    4.8227   434.5    6.655      40.375
2015    4       11     5  29    4.8225   434.6    6.654      40.382
2015    4       11     5  35    4.8223   434.6    6.653      40.389
2015    4       11     5  41    4.8221   434.7    6.652      40.396
2015    4       11     5  46    4.8219   434.7    6.651      40.403
2015    4       11     5  52    4.8216   434.8    6.649      40.409
2015    4       11     5  58    4.8214   434.8    6.648      40.416
2015    4       11     6   4    4.8211   434.8    6.647      40.422
2015    4       11     6  10    4.8209   434.9    6.646      40.428
2015    4       11     6  16    4.8206   434.9    6.645      40.433
2015    4       11     6  21    4.8204   435.0    6.643      40.439
2015    4       11     6  27    4.8201   435.0    6.642      40.444
2015    4       11     6  33    4.8199   435.1    6.641      40.449
2015    4       11     6  39    4.8196   435.1    6.640      40.454
2015    4       11     6  45    4.8193   435.1    6.639      40.459
2015    4       11     6  51    4.8191   435.2    6.638      40.463
2015    4       11     6  56    4.8188   435.2    6.637      40.468
2015    4       11     7   2    4.8186   435.3    6.636      40.472
2015    4       11     7   8    4.8183   435.3    6.634      40.476
2015    4       11     7  14    4.8181   435.3    6.633      40.480
2015    4       11     7  20    4.8178   435.4    6.632      40.484
2015    4       11     7  26    4.8176   435.4    6.631      40.487
2015    4       11     7  31    4.8174   435.5    6.631      40.491
2015    4       11     7  37    4.8172   435.5    6.630      40.494
2015    4       11     7  43    4.8170   435.6    6.629      40.498
2015    4       11     7  49    4.8168   435.6    6.628      40.501
2015    4       11     7  55    4.8166   435.6    6.627      40.505
2015    4       11     8   1    4.8164   435.7    6.627      40.508
2015    4       11     8   7    4.8162   435.7    6.626      40.511
2015    4       11     8  12    4.8161   435.8    6.625      40.515
2015    4       11     8  18    4.8159   435.8    6.625      40.518
2015    4       11     8  24    4.8158   435.8    6.624      40.521
2015    4       11     8  30    4.8157   435.9    6.624      40.525
2015    4       11     8  36    4.8156   435.9    6.623      40.528
2015    4       11     8  42    4.8154   436.0    6.623      40.531
2015    4       11     8  47    4.8154   436.0    6.623      40.535
2015    4       11     8  53    4.8153   436.0    6.622      40.538
2015    4       11     8  59    4.8152   436.1    6.622      40.542
2015    4       11     9   5    4.8151   436.1    6.622      40.545
2015    4       11     9  11    4.8150   436.2    6.622      40.549
2015    4       11     9  17    4.8148   436.2    6.622      40.553
2015    4       11     9  22    4.8147   436.3    6.622      40.557
2015    4       11     9  28    4.8146   436.3    6.622      40.561
2015    4       11     9  34    4.8144   436.3    6.622      40.565
2015    4       11     9  40    4.8142   436.4    6.622      40.570
2015    4       11     9  46    4.8140   436.4    6.621      40.575
2015    4       11     9  52    4.8138   436.5    6.621      40.580
2015    4       11     9  57    4.8135   436.5    6.621      40.586
2015    4       11    10   3    4.8132   436.6    6.621      40.592
2015    4       11    10   9    4.8130   436.6    6.620      40.598
2015    4       11    10  15    4.8126   436.7    6.620      40.605
2015    4       11    10  21    4.8123   436.7    6.619      40.611
2015    4       11    10  27    4.8120   436.7    6.619      40.618
2015    4       11    10  33    4.8116   436.8    6.618      40.624
2015    4       11    10  38    4.8113   436.8    6.617      40.630
2015    4       11    10  44    4.8109   436.9    6.617      40.636
2015    4       11    10  50    4.8105   436.9    6.616      40.642
2015    4       11    10  56    4.8101   437.0    6.615      40.647
2015    4       11    11   2    4.8096   437.0    6.614      40.653
2015    4       11    11   8    4.8092   437.0    6.613      40.658
2015    4       11    11  13    4.8088   437.1    6.612      40.663
2015    4       11    11  19    4.8084   437.1    6.611      40.668
2015    4       11    11  25    4.8079   437.2    6.610      40.672
2015    4       11    11  31    4.8075   437.2    6.609      40.677
2015    4       11    11  37    4.8070   437.2    6.608      40.682
2015    4       11    11  43    4.8066   437.3    6.606      40.686
2015    4       11    11  48    4.8061   437.3    6.605      40.690
2015    4       11    11  54    4.8057   437.4    6.604      40.695
2015    4       11    12   0    4.8052   437.4    6.603      40.699
2015    4       11    12   6    4.8048   437.4    6.602      40.703
2015    4       11    12  12    4.8043   437.5    6.600      40.707
2015    4       11    12  18    4.8039   437.5    6.599      40.711
2015    4       11    12  23    4.8034   437.6    6.598      40.715
2015    4       11    12  29    4.8029   437.6    6.597      40.719
2015    4       11    12  35    4.8025   437.6    6.595      40.723
2015    4       11    12  41    4.8020   437.7    6.594      40.726
2015    4       11    12  47    4.8016   437.7    6.593      40.730
2015    4       11    12  53    4.8011   437.8    6.592      40.734
2015    4       11    12  59    4.8007   437.8    6.590      40.737
2015    4       11    13   4    4.8002   437.8    6.589      40.741
2015    4       11    13  10    4.7998   437.9    6.588      40.744
2015    4       11    13  16    4.7994   437.9    6.586      40.748
2015    4       11    13  22    4.7989   437.9    6.585      40.751
2015    4       11    13  28    4.7985   438.0    6.584      40.754
2015    4       11    13  34    4.7980   438.0    6.582      40.757
2015    4       11    13  39    4.7976   438.1    6.581      40.760
2015    4       11    13  45    4.7971   438.1    6.580      40.764
2015    4       11    13  51    4.7967   438.1    6.578      40.766
2015    4       11    13  57    4.7962   438.2    6.577      40.769
2015    4       11    14   3    4.7958   438.2    6.576      40.772
2015    4       11    14   9    4.7954   438.2    6.574      40.775
2015    4       11    14  14    4.7949   438.3    6.573      40.777
2015    4       11    14  20    4.7945   438.3    6.572      40.780
2015    4       11    14  26    4.7940   438.4    6.570      40.782
2015    4       11    14  32    4.7936   438.4    6.569      40.785
2015    4       11    14  38    4.7932   438.4    6.567      40.787
2015    4       11    14  44    4.7927   438.5    6.566      40.789
2015    4       11    14  49    4.7923   438.5    6.565      40.791
2015    4       11    14  55    4.7919   438.5    6.563      40.793
2015    4       11    15   1    4.7914   438.6    6.562      40.794
2015    4       11    15   7    4.7910   438.6    6.561      40.796
2015    4       11    15  13    4.7906   438.6    6.559      40.798
2015    4       11    15  19    4.7901   438.7    6.558      40.799
2015    4       11    15  25    4.7897   438.7    6.556      40.800
2015    4       11    15  30    4.7893   438.7    6.555      40.801
2015    4       11    15  36    4.7889   438.8    6.554      40.802
2015    4       11    15  42    4.7884   438.8    6.552      40.803
2015    4       11    15  48    4.7880   438.8    6.551      40.804
2015    4       11    15  54    4.7876   438.9    6.549      40.804
2015    4       11    16   0    4.7872   438.9    6.548      40.804
2015    4       11    16   5    4.7867   438.9    6.547      40.804
2015    4       11    16  11    4.7863   439.0    6.545      40.805
2015    4       11    16  17    4.7859   439.0    6.544      40.804
2015    4       11    16  23    4.7855   439.0    6.542      40.804
2015    4       11    16  29    4.7850   439.1    6.541      40.804
2015    4       11    16  35    4.7846   439.1    6.539      40.803
2015    4       11    16  40    4.7842   439.1    6.538      40.802
2015    4       11    16  46    4.7838   439.2    6.536      40.801
2015    4       11    16  52    4.7833   439.2    6.535      40.800
2015    4       11    16  58    4.7829   439.2    6.533      40.799
2015    4       11    17   4    4.7825   439.3    6.532      40.798
2015    4       11    17  10    4.7820   439.3    6.530      40.796
2015    4       11    17  15    4.7816   439.3    6.529      40.795
2015    4       11    17  21    4.7812   439.4    6.527      40.793
2015    4       11    17  27    4.7807   439.4    6.526      40.792
2015    4       11    17  33    4.7803   439.4    6.525      40.790
2015    4       11    17  39    4.7799   439.4    6.523      40.788
2015    4       11    17  45    4.7795   439.5    6.522      40.786
2015    4       11    17  51    4.7791   439.5    6.520      40.784
2015    4       11    17  56    4.7786   439.5    6.519      40.783
2015    4       11    18   2    4.7782   439.5    6.517      40.781
2015    4       11    18   8    4.7779   439.6    6.516      40.779
2015    4       11    18  14    4.7775   439.6    6.515      40.777
2015    4       11    18  20    4.7771   439.6    6.513      40.775
2015    4       11    18  26    4.7767   439.7    6.512      40.774
2015    4       11    18  31    4.7764   439.7    6.511      40.772
2015    4       11    18  37    4.7760   439.7    6.509      40.770
2015    4       11    18  43    4.7756   439.7    6.508      40.769
2015    4       11    18  49    4.7753   439.8    6.507      40.768
2015    4       11    18  55    4.7750   439.8    6.506      40.766
2015    4       11    19   1    4.7746   439.8    6.505      40.765
2015    4       11    19   6    4.7743   439.8    6.504      40.764
2015    4       11    19  12    4.7740   439.9    6.503      40.763
2015    4       11    19  18    4.7737   439.9    6.502      40.762
2015    4       11    19  24    4.7734   439.9    6.501      40.762
2015    4       11    19  30    4.7731   439.9    6.500      40.761
2015    4       11    19  36    4.7728   440.0    6.499      40.761
2015    4       11    19  41    4.7726   440.0    6.498      40.761
2015    4       11    19  47    4.7723   440.0    6.497      40.761
2015    4       11    19  53    4.7720   440.0    6.496      40.761
2015    4       11    19  59    4.7718   440.0    6.496      40.761
2015    4       11    20   5    4.7715   440.1    6.495      40.761
2015    4       11    20  11    4.7713   440.1    6.494      40.762
2015    4       11    20  17    4.7710   440.1    6.494      40.762
2015    4       11    20  22    4.7708   440.1    6.493      40.763
2015    4       11    20  28    4.7706   440.2    6.492      40.764
2015    4       11    20  34    4.7703   440.2    6.492      40.765
2015    4       11    20  40    4.7701   440.2    6.491      40.766
2015    4       11    20  46    4.7699   440.2    6.491      40.767
2015    4       11    20  52    4.7697   440.3    6.490      40.769
2015    4       11    20  57    4.7694   440.3    6.490      40.770
2015    4       11    21   3    4.7692   440.3    6.489      40.772
2015    4       11    21   9    4.7690   440.3    6.489      40.773
2015    4       11    21  15    4.7688   440.3    6.488      40.775
2015    4       11    21  21    4.7685   440.4    6.488      40.776
2015    4       11    21  27    4.7683   440.4    6.488      40.778
2015    4       11    21  32    4.7681   440.4    6.487      40.780
2015    4       11    21  38    4.7679   440.4    6.487      40.782
2015    4       11    21  44    4.7677   440.5    6.486      40.783
2015    4       11    21  50    4.7675   440.5    6.486      40.785
2015    4       11    21  56    4.7672   440.5    6.485      40.787
2015    4       11    22   2    4.7670   440.5    6.485      40.789
2015    4       11    22   7    4.7668   440.5    6.484      40.790
2015    4       11    22  13    4.7666   440.6    6.484      40.792
2015    4       11    22  19    4.7664   440.6    6.483      40.794
2015    4       11    22  25    4.7662   440.6    6.483      40.795
2015    4       11    22  31    4.7661   440.6    6.482      40.797
2015    4       11    22  37    4.7659   440.6    6.482      40.798
2015    4       11    22  43    4.7657   440.7    6.481      40.800
2015    4       11    22  48    4.7656   440.7    6.481      40.801
2015    4       11    22  54    4.7654   440.7    6.480      40.802
2015    4       11    23   0    4.7653   440.7    6.480      40.803
2015    4       11    23   6    4.7651   440.7    6.479      40.805
2015    4       11    23  12    4.7650   440.8    6.478      40.806
2015    4       11    23  18    4.7649   440.8    6.478      40.806
2015    4       11    23  23    4.7648   440.8    6.477      40.807
2015    4       11    23  29    4.7647   440.8    6.476      40.808
2015    4       11    23  35    4.7646   440.8    6.476      40.809
2015    4       11    23  41    4.7646   440.9    6.475      40.809
2015    4       11    23  47    4.7645   440.9    6.474      40.810
2015    4       11    23  53    4.7645   440.9    6.474      40.810
2015    4       11    23  58    4.7645   440.9    6.473      40.810
2015    4       12     0   4    4.7645   440.9    6.472      40.811
