year    month   day   hour  minute  B_enl V_enl   n_enl       T_enl
[year] [month] [day] [hour][minute] [nT]  [km/s]  [cm-3]      [kK]
2014   11        6     0   0    7.4314   543.1    5.471      57.166
2014   11        6     0   4    7.4315   543.3    5.470      57.191
2014   11        6     0   9    7.4317   543.4    5.469      57.216
2014   11        6     0  14    7.4319   543.6    5.468      57.241
2014   11        6     0  19    7.4321   543.8    5.467      57.266
2014   11        6     0  24    7.4323   543.9    5.466      57.290
2014   11        6     0  29    7.4325   544.1    5.465      57.314
2014   11        6     0  34    7.4327   544.2    5.463      57.337
2014   11        6     0  39    7.4329   544.4    5.462      57.361
2014   11        6     0  44    7.4331   544.5    5.461      57.385
2014   11        6     0  49    7.4334   544.7    5.460      57.408
2014   11        6     0  54    7.4336   544.8    5.458      57.432
2014   11        6     0  59    7.4339   545.0    5.457      57.456
2014   11        6     1   4    7.4342   545.1    5.455      57.479
2014   11        6     1   9    7.4344   545.3    5.454      57.503
2014   11        6     1  14    7.4347   545.5    5.453      57.526
2014   11        6     1  19    7.4350   545.6    5.451      57.549
2014   11        6     1  24    7.4354   545.8    5.449      57.572
2014   11        6     1  29    7.4357   545.9    5.448      57.595
2014   11        6     1  34    7.4360   546.1    5.446      57.619
2014   11        6     1  39    7.4364   546.3    5.444      57.642
2014   11        6     1  44    7.4367   546.4    5.443      57.665
2014   11        6     1  49    7.4371   546.6    5.441      57.687
2014   11        6     1  54    7.4374   546.7    5.439      57.710
2014   11        6     1  59    7.4378   546.9    5.437      57.732
2014   11        6     2   4    7.4382   547.1    5.435      57.754
2014   11        6     2   9    7.4385   547.2    5.433      57.776
2014   11        6     2  14    7.4389   547.4    5.431      57.799
2014   11        6     2  19    7.4392   547.6    5.429      57.823
2014   11        6     2  23    7.4395   547.7    5.427      57.846
2014   11        6     2  28    7.4398   547.9    5.425      57.870
2014   11        6     2  33    7.4401   548.1    5.423      57.895
2014   11        6     2  38    7.4403   548.3    5.421      57.919
2014   11        6     2  43    7.4405   548.4    5.419      57.944
2014   11        6     2  48    7.4407   548.6    5.416      57.969
2014   11        6     2  53    7.4409   548.8    5.414      57.993
2014   11        6     2  58    7.4410   549.0    5.411      58.018
2014   11        6     3   3    7.4411   549.1    5.409      58.043
2014   11        6     3   8    7.4411   549.3    5.406      58.067
2014   11        6     3  13    7.4411   549.5    5.403      58.091
2014   11        6     3  18    7.4411   549.7    5.401      58.115
2014   11        6     3  23    7.4411   549.8    5.398      58.138
2014   11        6     3  28    7.4410   550.0    5.395      58.160
2014   11        6     3  33    7.4409   550.2    5.391      58.183
2014   11        6     3  38    7.4408   550.4    5.388      58.204
2014   11        6     3  43    7.4407   550.5    5.385      58.226
2014   11        6     3  48    7.4405   550.7    5.382      58.247
2014   11        6     3  53    7.4403   550.9    5.378      58.268
2014   11        6     3  58    7.4401   551.0    5.375      58.288
2014   11        6     4   3    7.4399   551.2    5.372      58.308
2014   11        6     4   8    7.4397   551.4    5.368      58.328
2014   11        6     4  13    7.4394   551.6    5.365      58.348
2014   11        6     4  18    7.4392   551.7    5.361      58.367
2014   11        6     4  23    7.4389   551.9    5.357      58.386
2014   11        6     4  28    7.4386   552.1    5.354      58.405
2014   11        6     4  33    7.4383   552.3    5.350      58.424
2014   11        6     4  37    7.4380   552.4    5.347      58.442
2014   11        6     4  42    7.4377   552.6    5.343      58.461
2014   11        6     4  47    7.4373   552.8    5.339      58.479
2014   11        6     4  52    7.4370   552.9    5.336      58.498
2014   11        6     4  57    7.4366   553.1    5.332      58.516
2014   11        6     5   2    7.4362   553.3    5.329      58.534
2014   11        6     5   7    7.4359   553.5    5.325      58.553
2014   11        6     5  12    7.4355   553.6    5.321      58.571
2014   11        6     5  17    7.4351   553.8    5.318      58.590
2014   11        6     5  22    7.4347   554.0    5.314      58.608
2014   11        6     5  27    7.4343   554.1    5.311      58.627
2014   11        6     5  32    7.4340   554.3    5.307      58.646
2014   11        6     5  37    7.4336   554.5    5.304      58.666
2014   11        6     5  42    7.4332   554.7    5.301      58.685
2014   11        6     5  47    7.4329   554.8    5.297      58.705
2014   11        6     5  52    7.4325   555.0    5.294      58.726
2014   11        6     5  57    7.4322   555.2    5.291      58.746
2014   11        6     6   2    7.4318   555.3    5.288      58.768
2014   11        6     6   7    7.4315   555.5    5.285      58.790
2014   11        6     6  12    7.4313   555.7    5.283      58.812
2014   11        6     6  17    7.4310   555.9    5.280      58.835
2014   11        6     6  22    7.4308   556.0    5.277      58.859
2014   11        6     6  27    7.4306   556.2    5.275      58.884
2014   11        6     6  32    7.4305   556.4    5.273      58.911
2014   11        6     6  37    7.4304   556.6    5.271      58.939
2014   11        6     6  42    7.4303   556.8    5.268      58.969
2014   11        6     6  47    7.4303   556.9    5.267      59.000
2014   11        6     6  51    7.4303   557.1    5.265      59.033
2014   11        6     6  56    7.4303   557.3    5.263      59.066
2014   11        6     7   1    7.4303   557.5    5.261      59.101
2014   11        6     7   6    7.4304   557.7    5.260      59.137
2014   11        6     7  11    7.4304   557.9    5.258      59.175
2014   11        6     7  16    7.4305   558.1    5.256      59.213
2014   11        6     7  21    7.4306   558.3    5.255      59.252
2014   11        6     7  26    7.4306   558.5    5.253      59.292
2014   11        6     7  31    7.4307   558.7    5.251      59.331
2014   11        6     7  36    7.4307   558.9    5.249      59.371
2014   11        6     7  41    7.4307   559.1    5.248      59.409
2014   11        6     7  46    7.4307   559.3    5.246      59.447
2014   11        6     7  51    7.4306   559.5    5.244      59.485
2014   11        6     7  56    7.4305   559.8    5.242      59.522
2014   11        6     8   1    7.4304   560.0    5.240      59.559
2014   11        6     8   6    7.4303   560.2    5.237      59.594
2014   11        6     8  11    7.4302   560.4    5.235      59.628
2014   11        6     8  16    7.4301   560.6    5.233      59.662
2014   11        6     8  21    7.4299   560.8    5.230      59.695
2014   11        6     8  26    7.4298   561.0    5.228      59.727
2014   11        6     8  31    7.4297   561.2    5.226      59.759
2014   11        6     8  36    7.4296   561.4    5.223      59.791
2014   11        6     8  41    7.4295   561.7    5.221      59.823
2014   11        6     8  46    7.4294   561.9    5.219      59.854
2014   11        6     8  51    7.4294   562.1    5.217      59.885
2014   11        6     8  55    7.4293   562.3    5.215      59.917
2014   11        6     9   0    7.4293   562.5    5.213      59.949
2014   11        6     9   5    7.4292   562.7    5.211      59.981
2014   11        6     9  10    7.4291   562.9    5.209      60.014
2014   11        6     9  15    7.4290   563.1    5.207      60.047
2014   11        6     9  20    7.4289   563.3    5.206      60.082
2014   11        6     9  25    7.4287   563.6    5.204      60.118
2014   11        6     9  30    7.4285   563.8    5.202      60.154
2014   11        6     9  35    7.4283   564.0    5.200      60.191
2014   11        6     9  40    7.4279   564.2    5.199      60.228
2014   11        6     9  45    7.4275   564.5    5.197      60.265
2014   11        6     9  50    7.4271   564.7    5.195      60.303
2014   11        6     9  55    7.4265   564.9    5.193      60.340
2014   11        6    10   0    7.4259   565.2    5.190      60.377
2014   11        6    10   5    7.4252   565.4    5.188      60.414
2014   11        6    10  10    7.4244   565.6    5.185      60.450
2014   11        6    10  15    7.4236   565.9    5.183      60.485
2014   11        6    10  20    7.4227   566.1    5.180      60.520
2014   11        6    10  25    7.4217   566.4    5.176      60.553
2014   11        6    10  30    7.4207   566.6    5.173      60.586
2014   11        6    10  35    7.4196   566.8    5.170      60.617
2014   11        6    10  40    7.4185   567.1    5.166      60.648
2014   11        6    10  45    7.4173   567.3    5.162      60.678
2014   11        6    10  50    7.4161   567.5    5.158      60.708
2014   11        6    10  55    7.4148   567.8    5.154      60.736
2014   11        6    11   0    7.4135   568.0    5.150      60.764
2014   11        6    11   4    7.4121   568.3    5.146      60.791
2014   11        6    11   9    7.4107   568.5    5.142      60.818
2014   11        6    11  14    7.4093   568.7    5.137      60.844
2014   11        6    11  19    7.4078   569.0    5.133      60.870
2014   11        6    11  24    7.4063   569.2    5.128      60.895
2014   11        6    11  29    7.4047   569.4    5.123      60.919
2014   11        6    11  34    7.4032   569.7    5.118      60.944
2014   11        6    11  39    7.4015   569.9    5.114      60.967
2014   11        6    11  44    7.3999   570.1    5.109      60.991
2014   11        6    11  49    7.3982   570.4    5.103      61.013
2014   11        6    11  54    7.3965   570.6    5.098      61.036
2014   11        6    11  59    7.3948   570.8    5.093      61.058
2014   11        6    12   4    7.3930   571.0    5.088      61.080
2014   11        6    12   9    7.3912   571.3    5.082      61.102
2014   11        6    12  14    7.3894   571.5    5.077      61.123
2014   11        6    12  19    7.3875   571.7    5.072      61.144
2014   11        6    12  24    7.3856   572.0    5.066      61.165
2014   11        6    12  29    7.3836   572.2    5.061      61.186
2014   11        6    12  34    7.3817   572.4    5.055      61.206
2014   11        6    12  39    7.3797   572.6    5.050      61.227
2014   11        6    12  44    7.3777   572.8    5.044      61.247
2014   11        6    12  49    7.3756   573.1    5.038      61.268
2014   11        6    12  54    7.3736   573.3    5.033      61.288
2014   11        6    12  59    7.3715   573.5    5.027      61.309
2014   11        6    13   4    7.3694   573.7    5.022      61.329
2014   11        6    13   9    7.3673   573.9    5.016      61.350
2014   11        6    13  14    7.3652   574.2    5.011      61.371
2014   11        6    13  18    7.3630   574.4    5.005      61.392
2014   11        6    13  23    7.3608   574.6    5.000      61.413
2014   11        6    13  28    7.3587   574.8    4.994      61.435
2014   11        6    13  33    7.3565   575.0    4.989      61.457
2014   11        6    13  38    7.3543   575.2    4.984      61.479
2014   11        6    13  43    7.3521   575.5    4.978      61.502
2014   11        6    13  48    7.3499   575.7    4.973      61.525
2014   11        6    13  53    7.3478   575.9    4.968      61.549
2014   11        6    13  58    7.3456   576.1    4.963      61.572
2014   11        6    14   3    7.3434   576.3    4.958      61.598
2014   11        6    14   8    7.3412   576.5    4.954      61.624
2014   11        6    14  13    7.3391   576.7    4.949      61.651
2014   11        6    14  18    7.3369   577.0    4.944      61.679
2014   11        6    14  23    7.3347   577.2    4.940      61.707
2014   11        6    14  28    7.3325   577.4    4.935      61.737
2014   11        6    14  33    7.3303   577.6    4.931      61.766
2014   11        6    14  38    7.3280   577.8    4.926      61.796
2014   11        6    14  43    7.3258   578.1    4.922      61.826
2014   11        6    14  48    7.3235   578.3    4.917      61.856
2014   11        6    14  53    7.3212   578.5    4.913      61.885
2014   11        6    14  58    7.3189   578.7    4.908      61.915
2014   11        6    15   3    7.3165   579.0    4.904      61.944
2014   11        6    15   8    7.3141   579.2    4.899      61.972
2014   11        6    15  13    7.3118   579.4    4.894      61.999
2014   11        6    15  18    7.3093   579.7    4.890      62.026
2014   11        6    15  23    7.3069   579.9    4.885      62.053
2014   11        6    15  27    7.3045   580.1    4.881      62.078
2014   11        6    15  32    7.3020   580.3    4.876      62.104
2014   11        6    15  37    7.2996   580.6    4.872      62.129
2014   11        6    15  42    7.2971   580.8    4.867      62.154
2014   11        6    15  47    7.2947   581.0    4.863      62.178
2014   11        6    15  52    7.2922   581.2    4.859      62.203
2014   11        6    15  57    7.2898   581.4    4.855      62.228
2014   11        6    16   2    7.2873   581.7    4.851      62.253
2014   11        6    16   7    7.2849   581.9    4.847      62.278
2014   11        6    16  12    7.2824   582.1    4.843      62.303
2014   11        6    16  17    7.2799   582.3    4.839      62.330
2014   11        6    16  22    7.2774   582.6    4.836      62.357
2014   11        6    16  27    7.2749   582.8    4.833      62.384
2014   11        6    16  32    7.2723   583.0    4.829      62.412
2014   11        6    16  37    7.2696   583.3    4.826      62.440
2014   11        6    16  42    7.2670   583.5    4.823      62.468
2014   11        6    16  47    7.2642   583.7    4.819      62.496
2014   11        6    16  52    7.2614   584.0    4.816      62.524
2014   11        6    16  57    7.2586   584.2    4.813      62.552
2014   11        6    17   2    7.2557   584.4    4.809      62.578
2014   11        6    17   7    7.2527   584.7    4.806      62.605
2014   11        6    17  12    7.2496   584.9    4.802      62.630
2014   11        6    17  17    7.2465   585.2    4.799      62.654
2014   11        6    17  22    7.2433   585.4    4.795      62.677
2014   11        6    17  26    7.2400   585.6    4.791      62.699
2014   11        6    17  31    7.2367   585.9    4.787      62.719
2014   11        6    17  36    7.2334   586.1    4.783      62.739
2014   11        6    17  41    7.2300   586.4    4.779      62.757
2014   11        6    17  46    7.2265   586.6    4.775      62.774
2014   11        6    17  51    7.2230   586.8    4.770      62.791
2014   11        6    17  56    7.2194   587.1    4.765      62.806
2014   11        6    18   1    7.2158   587.3    4.761      62.820
2014   11        6    18   6    7.2121   587.5    4.756      62.833
2014   11        6    18  11    7.2084   587.8    4.751      62.845
2014   11        6    18  16    7.2047   588.0    4.746      62.856
2014   11        6    18  21    7.2009   588.2    4.741      62.867
2014   11        6    18  26    7.1971   588.4    4.736      62.877
2014   11        6    18  31    7.1932   588.7    4.730      62.886
2014   11        6    18  36    7.1893   588.9    4.725      62.894
2014   11        6    18  41    7.1854   589.1    4.720      62.902
2014   11        6    18  46    7.1814   589.3    4.714      62.909
2014   11        6    18  51    7.1774   589.6    4.708      62.915
2014   11        6    18  56    7.1734   589.8    4.703      62.921
2014   11        6    19   1    7.1694   590.0    4.697      62.926
2014   11        6    19   6    7.1653   590.2    4.691      62.930
2014   11        6    19  11    7.1611   590.4    4.685      62.934
2014   11        6    19  16    7.1570   590.6    4.679      62.938
2014   11        6    19  21    7.1528   590.8    4.673      62.940
2014   11        6    19  25    7.1486   591.0    4.667      62.942
2014   11        6    19  30    7.1443   591.3    4.661      62.943
2014   11        6    19  35    7.1400   591.5    4.655      62.944
2014   11        6    19  40    7.1357   591.7    4.649      62.944
2014   11        6    19  45    7.1314   591.9    4.642      62.944
2014   11        6    19  50    7.1271   592.1    4.636      62.943
2014   11        6    19  55    7.1227   592.3    4.630      62.942
2014   11        6    20   0    7.1183   592.4    4.623      62.940
2014   11        6    20   5    7.1139   592.6    4.617      62.937
2014   11        6    20  10    7.1094   592.8    4.611      62.934
2014   11        6    20  15    7.1050   593.0    4.604      62.930
2014   11        6    20  20    7.1005   593.2    4.598      62.926
2014   11        6    20  25    7.0961   593.4    4.591      62.921
2014   11        6    20  30    7.0916   593.6    4.584      62.916
2014   11        6    20  35    7.0871   593.8    4.578      62.910
2014   11        6    20  40    7.0826   593.9    4.571      62.904
2014   11        6    20  45    7.0781   594.1    4.565      62.898
2014   11        6    20  50    7.0736   594.3    4.558      62.891
2014   11        6    20  55    7.0691   594.5    4.551      62.883
2014   11        6    21   0    7.0646   594.6    4.545      62.875
2014   11        6    21   5    7.0601   594.8    4.538      62.867
2014   11        6    21  10    7.0556   595.0    4.531      62.858
2014   11        6    21  15    7.0510   595.2    4.524      62.848
2014   11        6    21  19    7.0465   595.3    4.518      62.838
2014   11        6    21  24    7.0420   595.5    4.511      62.828
2014   11        6    21  29    7.0375   595.7    4.504      62.818
2014   11        6    21  34    7.0329   595.8    4.498      62.807
2014   11        6    21  39    7.0284   596.0    4.491      62.796
2014   11        6    21  44    7.0239   596.1    4.484      62.784
2014   11        6    21  49    7.0194   596.3    4.478      62.772
2014   11        6    21  54    7.0149   596.4    4.471      62.759
2014   11        6    21  59    7.0104   596.6    4.464      62.747
2014   11        6    22   4    7.0059   596.8    4.458      62.734
2014   11        6    22   9    7.0014   596.9    4.451      62.721
2014   11        6    22  14    6.9969   597.1    4.445      62.707
2014   11        6    22  19    6.9924   597.2    4.439      62.693
2014   11        6    22  24    6.9880   597.3    4.432      62.679
2014   11        6    22  29    6.9835   597.5    4.426      62.665
2014   11        6    22  34    6.9791   597.6    4.420      62.651
2014   11        6    22  39    6.9747   597.8    4.414      62.637
2014   11        6    22  44    6.9703   597.9    4.408      62.623
2014   11        6    22  49    6.9659   598.1    4.402      62.609
2014   11        6    22  54    6.9615   598.2    4.396      62.594
2014   11        6    22  59    6.9571   598.3    4.390      62.580
2014   11        6    23   4    6.9528   598.5    4.384      62.566
2014   11        6    23   9    6.9485   598.6    4.379      62.552
2014   11        6    23  13    6.9441   598.7    4.373      62.539
2014   11        6    23  18    6.9398   598.9    4.368      62.526
2014   11        6    23  23    6.9355   599.0    4.363      62.513
2014   11        6    23  28    6.9313   599.1    4.358      62.500
2014   11        6    23  33    6.9270   599.3    4.353      62.487
2014   11        6    23  38    6.9227   599.4    4.348      62.475
2014   11        6    23  43    6.9184   599.5    4.343      62.463
2014   11        6    23  48    6.9141   599.7    4.338      62.452
2014   11        6    23  53    6.9098   599.8    4.334      62.441
2014   11        6    23  58    6.9055   599.9    4.330      62.430
2014   11        7     0   3    6.9012   600.1    4.325      62.419
2014   11        7     0   8    6.8969   600.2    4.321      62.408
2014   11        7     0  13    6.8926   600.3    4.317      62.397
2014   11        7     0  18    6.8882   600.5    4.313      62.385
2014   11        7     0  23    6.8839   600.6    4.309      62.374
2014   11        7     0  28    6.8795   600.7    4.305      62.363
2014   11        7     0  33    6.8751   600.8    4.301      62.351
2014   11        7     0  38    6.8707   601.0    4.297      62.339
2014   11        7     0  43    6.8663   601.1    4.293      62.327
2014   11        7     0  48    6.8619   601.2    4.290      62.315
2014   11        7     0  53    6.8574   601.3    4.286      62.302
2014   11        7     0  58    6.8530   601.4    4.282      62.288
2014   11        7     1   3    6.8485   601.5    4.279      62.275
2014   11        7     1   7    6.8441   601.7    4.275      62.260
2014   11        7     1  12    6.8396   601.8    4.271      62.246
2014   11        7     1  17    6.8351   601.9    4.268      62.231
2014   11        7     1  22    6.8306   602.0    4.264      62.215
2014   11        7     1  27    6.8261   602.1    4.261      62.199
2014   11        7     1  32    6.8216   602.2    4.257      62.183
2014   11        7     1  37    6.8171   602.3    4.254      62.166
2014   11        7     1  42    6.8125   602.4    4.250      62.148
2014   11        7     1  47    6.8080   602.5    4.247      62.130
2014   11        7     1  52    6.8034   602.6    4.243      62.111
2014   11        7     1  57    6.7989   602.7    4.240      62.092
2014   11        7     2   2    6.7943   602.7    4.237      62.072
2014   11        7     2   7    6.7898   602.8    4.233      62.052
2014   11        7     2  12    6.7852   602.9    4.230      62.031
2014   11        7     2  17    6.7807   603.0    4.226      62.009
2014   11        7     2  22    6.7761   603.1    4.223      61.987
2014   11        7     2  27    6.7716   603.2    4.220      61.963
2014   11        7     2  32    6.7670   603.2    4.216      61.939
2014   11        7     2  37    6.7625   603.3    4.213      61.915
2014   11        7     2  42    6.7579   603.4    4.209      61.889
2014   11        7     2  47    6.7534   603.4    4.206      61.863
2014   11        7     2  52    6.7489   603.5    4.203      61.835
2014   11        7     2  57    6.7444   603.6    4.199      61.807
2014   11        7     3   1    6.7399   603.6    4.196      61.778
2014   11        7     3   6    6.7354   603.7    4.192      61.749
2014   11        7     3  11    6.7310   603.8    4.189      61.718
2014   11        7     3  16    6.7265   603.8    4.185      61.687
2014   11        7     3  21    6.7221   603.9    4.182      61.655
2014   11        7     3  26    6.7177   603.9    4.178      61.622
2014   11        7     3  31    6.7134   604.0    4.174      61.588
2014   11        7     3  36    6.7091   604.1    4.171      61.553
2014   11        7     3  41    6.7048   604.1    4.167      61.518
2014   11        7     3  46    6.7005   604.2    4.163      61.482
2014   11        7     3  51    6.6963   604.2    4.159      61.445
2014   11        7     3  56    6.6920   604.3    4.155      61.407
2014   11        7     4   1    6.6878   604.3    4.152      61.369
2014   11        7     4   6    6.6837   604.3    4.148      61.331
2014   11        7     4  11    6.6795   604.4    4.144      61.291
2014   11        7     4  16    6.6754   604.4    4.140      61.251
2014   11        7     4  21    6.6713   604.5    4.136      61.211
2014   11        7     4  26    6.6673   604.5    4.132      61.170
2014   11        7     4  31    6.6633   604.6    4.128      61.129
2014   11        7     4  36    6.6593   604.6    4.124      61.087
2014   11        7     4  41    6.6553   604.6    4.120      61.045
2014   11        7     4  46    6.6514   604.7    4.115      61.002
2014   11        7     4  51    6.6475   604.7    4.111      60.959
2014   11        7     4  55    6.6436   604.7    4.107      60.916
2014   11        7     5   0    6.6397   604.8    4.103      60.872
2014   11        7     5   5    6.6359   604.8    4.099      60.828
2014   11        7     5  10    6.6321   604.8    4.094      60.783
2014   11        7     5  15    6.6283   604.8    4.090      60.738
2014   11        7     5  20    6.6246   604.9    4.086      60.693
2014   11        7     5  25    6.6208   604.9    4.081      60.648
2014   11        7     5  30    6.6171   604.9    4.077      60.602
2014   11        7     5  35    6.6134   604.9    4.073      60.556
2014   11        7     5  40    6.6098   605.0    4.069      60.510
2014   11        7     5  45    6.6061   605.0    4.064      60.464
2014   11        7     5  50    6.6025   605.0    4.060      60.418
2014   11        7     5  55    6.5989   605.0    4.056      60.371
2014   11        7     6   0    6.5953   605.0    4.051      60.325
2014   11        7     6   5    6.5918   605.1    4.047      60.278
2014   11        7     6  10    6.5882   605.1    4.043      60.232
2014   11        7     6  15    6.5847   605.1    4.039      60.186
2014   11        7     6  20    6.5812   605.1    4.035      60.139
2014   11        7     6  25    6.5777   605.1    4.031      60.093
2014   11        7     6  30    6.5742   605.1    4.026      60.048
2014   11        7     6  35    6.5708   605.1    4.022      60.002
2014   11        7     6  40    6.5673   605.1    4.018      59.957
2014   11        7     6  45    6.5639   605.1    4.015      59.911
2014   11        7     6  50    6.5605   605.1    4.011      59.867
2014   11        7     6  54    6.5571   605.1    4.007      59.822
2014   11        7     6  59    6.5537   605.1    4.003      59.778
2014   11        7     7   4    6.5503   605.1    4.000      59.735
2014   11        7     7   9    6.5470   605.1    3.996      59.692
2014   11        7     7  14    6.5436   605.1    3.992      59.649
2014   11        7     7  19    6.5403   605.1    3.989      59.607
2014   11        7     7  24    6.5370   605.1    3.986      59.565
2014   11        7     7  29    6.5337   605.1    3.982      59.523
2014   11        7     7  34    6.5304   605.1    3.979      59.483
2014   11        7     7  39    6.5272   605.1    3.976      59.442
2014   11        7     7  44    6.5239   605.1    3.973      59.402
2014   11        7     7  49    6.5207   605.1    3.970      59.363
2014   11        7     7  54    6.5174   605.1    3.967      59.324
2014   11        7     7  59    6.5142   605.1    3.964      59.286
2014   11        7     8   4    6.5110   605.1    3.962      59.248
2014   11        7     8   9    6.5078   605.1    3.959      59.210
2014   11        7     8  14    6.5046   605.0    3.957      59.173
2014   11        7     8  19    6.5015   605.0    3.954      59.136
2014   11        7     8  24    6.4983   605.0    3.952      59.100
2014   11        7     8  29    6.4952   605.0    3.949      59.063
2014   11        7     8  34    6.4920   605.0    3.947      59.027
2014   11        7     8  39    6.4889   605.0    3.945      58.991
2014   11        7     8  44    6.4858   604.9    3.943      58.955
2014   11        7     8  49    6.4827   604.9    3.941      58.919
2014   11        7     8  53    6.4796   604.9    3.939      58.883
2014   11        7     8  58    6.4765   604.9    3.936      58.846
2014   11        7     9   3    6.4734   604.9    3.935      58.810
2014   11        7     9   8    6.4703   604.8    3.933      58.773
2014   11        7     9  13    6.4673   604.8    3.931      58.736
2014   11        7     9  18    6.4642   604.8    3.929      58.699
2014   11        7     9  23    6.4611   604.7    3.927      58.661
2014   11        7     9  28    6.4581   604.7    3.925      58.623
2014   11        7     9  33    6.4550   604.7    3.923      58.585
2014   11        7     9  38    6.4520   604.6    3.922      58.546
2014   11        7     9  43    6.4489   604.6    3.920      58.507
2014   11        7     9  48    6.4459   604.5    3.918      58.468
2014   11        7     9  53    6.4429   604.5    3.916      58.427
2014   11        7     9  58    6.4399   604.4    3.915      58.387
2014   11        7    10   3    6.4369   604.4    3.913      58.346
2014   11        7    10   8    6.4340   604.3    3.911      58.305
2014   11        7    10  13    6.4310   604.3    3.910      58.263
2014   11        7    10  18    6.4281   604.2    3.908      58.221
2014   11        7    10  23    6.4252   604.2    3.907      58.178
2014   11        7    10  28    6.4223   604.1    3.905      58.136
2014   11        7    10  33    6.4195   604.1    3.904      58.093
2014   11        7    10  38    6.4167   604.0    3.902      58.050
2014   11        7    10  43    6.4139   604.0    3.901      58.007
2014   11        7    10  47    6.4111   603.9    3.899      57.963
2014   11        7    10  52    6.4084   603.9    3.898      57.920
2014   11        7    10  57    6.4057   603.8    3.896      57.876
2014   11        7    11   2    6.4030   603.8    3.895      57.833
2014   11        7    11   7    6.4003   603.7    3.894      57.789
2014   11        7    11  12    6.3977   603.7    3.892      57.746
2014   11        7    11  17    6.3951   603.6    3.891      57.703
2014   11        7    11  22    6.3926   603.6    3.890      57.659
2014   11        7    11  27    6.3900   603.5    3.889      57.616
2014   11        7    11  32    6.3875   603.4    3.887      57.574
2014   11        7    11  37    6.3850   603.4    3.886      57.531
2014   11        7    11  42    6.3825   603.3    3.885      57.489
2014   11        7    11  47    6.3801   603.3    3.884      57.447
2014   11        7    11  52    6.3776   603.2    3.883      57.405
2014   11        7    11  57    6.3752   603.2    3.882      57.364
2014   11        7    12   2    6.3728   603.1    3.881      57.323
2014   11        7    12   7    6.3704   603.0    3.880      57.282
2014   11        7    12  12    6.3680   603.0    3.880      57.241
2014   11        7    12  17    6.3656   602.9    3.879      57.201
2014   11        7    12  22    6.3632   602.9    3.878      57.162
2014   11        7    12  27    6.3608   602.8    3.877      57.122
2014   11        7    12  32    6.3585   602.8    3.877      57.083
2014   11        7    12  37    6.3561   602.7    3.876      57.044
2014   11        7    12  42    6.3537   602.7    3.875      57.006
2014   11        7    12  47    6.3514   602.6    3.875      56.968
2014   11        7    12  51    6.3490   602.5    3.874      56.930
2014   11        7    12  56    6.3467   602.5    3.873      56.893
2014   11        7    13   1    6.3443   602.4    3.873      56.855
2014   11        7    13   6    6.3420   602.4    3.872      56.819
2014   11        7    13  11    6.3397   602.3    3.871      56.782
2014   11        7    13  16    6.3373   602.2    3.871      56.746
2014   11        7    13  21    6.3350   602.2    3.870      56.710
2014   11        7    13  26    6.3327   602.1    3.869      56.675
2014   11        7    13  31    6.3303   602.1    3.869      56.639
2014   11        7    13  36    6.3280   602.0    3.868      56.604
2014   11        7    13  41    6.3257   601.9    3.867      56.569
2014   11        7    13  46    6.3233   601.9    3.867      56.534
2014   11        7    13  51    6.3210   601.8    3.866      56.499
2014   11        7    13  56    6.3187   601.7    3.865      56.465
2014   11        7    14   1    6.3164   601.7    3.864      56.430
2014   11        7    14   6    6.3141   601.6    3.864      56.395
2014   11        7    14  11    6.3118   601.5    3.863      56.361
2014   11        7    14  16    6.3095   601.5    3.862      56.326
2014   11        7    14  21    6.3072   601.4    3.861      56.291
2014   11        7    14  26    6.3049   601.3    3.860      56.256
2014   11        7    14  31    6.3027   601.3    3.859      56.221
2014   11        7    14  36    6.3004   601.2    3.858      56.186
2014   11        7    14  41    6.2982   601.1    3.857      56.151
2014   11        7    14  46    6.2959   601.1    3.856      56.115
2014   11        7    14  51    6.2937   601.0    3.855      56.080
2014   11        7    14  55    6.2915   600.9    3.854      56.044
2014   11        7    15   0    6.2893   600.8    3.853      56.008
2014   11        7    15   5    6.2871   600.8    3.852      55.972
2014   11        7    15  10    6.2850   600.7    3.851      55.935
2014   11        7    15  15    6.2828   600.6    3.850      55.898
2014   11        7    15  20    6.2807   600.5    3.849      55.861
2014   11        7    15  25    6.2786   600.5    3.847      55.824
2014   11        7    15  30    6.2765   600.4    3.846      55.786
2014   11        7    15  35    6.2744   600.3    3.845      55.748
2014   11        7    15  40    6.2723   600.2    3.843      55.710
2014   11        7    15  45    6.2703   600.2    3.842      55.671
2014   11        7    15  50    6.2682   600.1    3.841      55.631
2014   11        7    15  55    6.2662   600.0    3.839      55.591
2014   11        7    16   0    6.2642   599.9    3.838      55.551
2014   11        7    16   5    6.2622   599.9    3.836      55.510
2014   11        7    16  10    6.2602   599.8    3.835      55.469
2014   11        7    16  15    6.2583   599.7    3.833      55.427
2014   11        7    16  20    6.2563   599.6    3.832      55.384
2014   11        7    16  25    6.2544   599.5    3.830      55.341
2014   11        7    16  30    6.2524   599.5    3.828      55.297
2014   11        7    16  35    6.2505   599.4    3.827      55.253
2014   11        7    16  40    6.2486   599.3    3.825      55.208
2014   11        7    16  45    6.2467   599.2    3.823      55.163
2014   11        7    16  50    6.2448   599.1    3.821      55.117
2014   11        7    16  54    6.2430   599.0    3.820      55.071
2014   11        7    16  59    6.2411   598.9    3.818      55.025
2014   11        7    17   4    6.2393   598.8    3.816      54.978
2014   11        7    17   9    6.2374   598.7    3.814      54.930
2014   11        7    17  14    6.2356   598.6    3.812      54.882
2014   11        7    17  19    6.2338   598.5    3.810      54.834
2014   11        7    17  24    6.2320   598.4    3.808      54.786
2014   11        7    17  29    6.2303   598.3    3.806      54.738
2014   11        7    17  34    6.2285   598.2    3.805      54.689
2014   11        7    17  39    6.2268   598.1    3.803      54.640
2014   11        7    17  44    6.2251   598.0    3.801      54.591
2014   11        7    17  49    6.2234   597.9    3.799      54.542
2014   11        7    17  54    6.2217   597.8    3.797      54.494
2014   11        7    17  59    6.2200   597.7    3.795      54.445
2014   11        7    18   4    6.2184   597.6    3.794      54.396
2014   11        7    18   9    6.2167   597.5    3.792      54.347
2014   11        7    18  14    6.2151   597.4    3.790      54.299
2014   11        7    18  19    6.2135   597.3    3.789      54.251
2014   11        7    18  24    6.2120   597.2    3.787      54.203
2014   11        7    18  29    6.2104   597.1    3.786      54.155
2014   11        7    18  34    6.2089   597.0    3.784      54.107
2014   11        7    18  39    6.2073   596.9    3.783      54.060
2014   11        7    18  44    6.2058   596.8    3.781      54.013
2014   11        7    18  49    6.2043   596.7    3.780      53.967
2014   11        7    18  54    6.2028   596.6    3.779      53.921
2014   11        7    18  58    6.2013   596.5    3.778      53.875
2014   11        7    19   3    6.1999   596.4    3.777      53.831
2014   11        7    19   8    6.1984   596.3    3.776      53.786
2014   11        7    19  13    6.1969   596.2    3.775      53.742
2014   11        7    19  18    6.1954   596.1    3.774      53.699
2014   11        7    19  23    6.1940   596.0    3.773      53.656
2014   11        7    19  28    6.1925   595.9    3.773      53.614
2014   11        7    19  33    6.1910   595.8    3.772      53.572
2014   11        7    19  38    6.1895   595.7    3.772      53.531
2014   11        7    19  43    6.1880   595.6    3.771      53.491
2014   11        7    19  48    6.1865   595.4    3.771      53.451
2014   11        7    19  53    6.1851   595.3    3.770      53.411
2014   11        7    19  58    6.1836   595.2    3.770      53.373
2014   11        7    20   3    6.1821   595.1    3.770      53.335
2014   11        7    20   8    6.1805   595.0    3.770      53.297
2014   11        7    20  13    6.1790   594.9    3.770      53.261
2014   11        7    20  18    6.1775   594.8    3.770      53.225
2014   11        7    20  23    6.1760   594.7    3.770      53.189
2014   11        7    20  28    6.1744   594.6    3.770      53.155
2014   11        7    20  33    6.1729   594.5    3.770      53.120
2014   11        7    20  38    6.1714   594.4    3.771      53.087
2014   11        7    20  43    6.1698   594.3    3.771      53.054
2014   11        7    20  48    6.1683   594.2    3.771      53.022
2014   11        7    20  53    6.1667   594.1    3.772      52.990
2014   11        7    20  58    6.1651   594.0    3.772      52.959
2014   11        7    21   3    6.1636   593.8    3.772      52.928
2014   11        7    21   7    6.1620   593.7    3.773      52.898
2014   11        7    21  12    6.1605   593.6    3.774      52.868
2014   11        7    21  17    6.1589   593.5    3.774      52.838
2014   11        7    21  22    6.1573   593.4    3.775      52.809
2014   11        7    21  27    6.1558   593.3    3.775      52.781
2014   11        7    21  32    6.1542   593.2    3.776      52.752
2014   11        7    21  37    6.1527   593.1    3.777      52.724
2014   11        7    21  42    6.1512   592.9    3.777      52.695
2014   11        7    21  47    6.1496   592.8    3.778      52.667
2014   11        7    21  52    6.1481   592.7    3.779      52.640
2014   11        7    21  57    6.1466   592.6    3.780      52.612
2014   11        7    22   2    6.1451   592.5    3.780      52.584
2014   11        7    22   7    6.1436   592.3    3.781      52.557
2014   11        7    22  12    6.1421   592.2    3.782      52.529
2014   11        7    22  17    6.1407   592.1    3.783      52.502
2014   11        7    22  22    6.1392   592.0    3.784      52.475
2014   11        7    22  27    6.1378   591.9    3.784      52.447
2014   11        7    22  32    6.1364   591.7    3.785      52.420
2014   11        7    22  37    6.1350   591.6    3.786      52.393
2014   11        7    22  42    6.1336   591.5    3.787      52.366
2014   11        7    22  47    6.1322   591.4    3.788      52.339
2014   11        7    22  52    6.1309   591.2    3.789      52.313
2014   11        7    22  57    6.1296   591.1    3.790      52.287
2014   11        7    23   2    6.1283   591.0    3.791      52.260
2014   11        7    23   7    6.1270   590.9    3.791      52.234
2014   11        7    23  12    6.1258   590.7    3.792      52.208
2014   11        7    23  16    6.1245   590.6    3.793      52.182
2014   11        7    23  21    6.1233   590.5    3.794      52.156
2014   11        7    23  26    6.1221   590.3    3.794      52.129
2014   11        7    23  31    6.1210   590.2    3.795      52.103
2014   11        7    23  36    6.1198   590.1    3.796      52.076
2014   11        7    23  41    6.1187   590.0    3.796      52.049
2014   11        7    23  46    6.1176   589.8    3.797      52.022
2014   11        7    23  51    6.1165   589.7    3.798      51.995
2014   11        7    23  56    6.1154   589.6    3.798      51.967
2014   11        8     0   1    6.1143   589.4    3.798      51.940
2014   11        8     0   6    6.1132   589.3    3.799      51.911
2014   11        8     0  11    6.1122   589.2    3.799      51.883
2014   11        8     0  16    6.1112   589.1    3.799      51.854
2014   11        8     0  21    6.1101   588.9    3.800      51.825
2014   11        8     0  26    6.1091   588.8    3.800      51.795
2014   11        8     0  31    6.1081   588.7    3.800      51.765
2014   11        8     0  36    6.1071   588.6    3.800      51.734
2014   11        8     0  41    6.1061   588.4    3.800      51.703
2014   11        8     0  46    6.1051   588.3    3.799      51.671
2014   11        8     0  51    6.1041   588.2    3.799      51.639
2014   11        8     0  56    6.1031   588.0    3.799      51.606
2014   11        8     1   1    6.1021   587.9    3.798      51.572
2014   11        8     1   6    6.1011   587.8    3.798      51.538
2014   11        8     1  11    6.1001   587.7    3.797      51.503
2014   11        8     1  16    6.0991   587.5    3.797      51.467
2014   11        8     1  20    6.0982   587.4    3.796      51.431
2014   11        8     1  25    6.0972   587.3    3.795      51.394
2014   11        8     1  30    6.0962   587.1    3.794      51.357
2014   11        8     1  35    6.0952   587.0    3.794      51.319
2014   11        8     1  40    6.0942   586.9    3.793      51.280
2014   11        8     1  45    6.0932   586.8    3.792      51.241
2014   11        8     1  50    6.0922   586.6    3.791      51.202
2014   11        8     1  55    6.0913   586.5    3.790      51.162
2014   11        8     2   0    6.0903   586.4    3.789      51.122
2014   11        8     2   5    6.0893   586.2    3.788      51.081
2014   11        8     2  10    6.0883   586.1    3.787      51.040
2014   11        8     2  15    6.0873   586.0    3.786      50.998
2014   11        8     2  20    6.0863   585.8    3.785      50.956
2014   11        8     2  25    6.0853   585.7    3.783      50.914
2014   11        8     2  30    6.0843   585.5    3.782      50.872
2014   11        8     2  35    6.0833   585.4    3.781      50.829
2014   11        8     2  40    6.0824   585.3    3.780      50.786
2014   11        8     2  45    6.0814   585.1    3.779      50.743
2014   11        8     2  50    6.0804   585.0    3.778      50.700
2014   11        8     2  55    6.0794   584.8    3.777      50.656
2014   11        8     3   0    6.0784   584.7    3.776      50.613
2014   11        8     3   5    6.0774   584.6    3.775      50.569
2014   11        8     3  10    6.0764   584.4    3.774      50.525
2014   11        8     3  15    6.0754   584.3    3.772      50.482
2014   11        8     3  20    6.0743   584.1    3.771      50.438
2014   11        8     3  24    6.0733   584.0    3.771      50.394
2014   11        8     3  29    6.0723   583.8    3.770      50.351
2014   11        8     3  34    6.0713   583.7    3.769      50.307
2014   11        8     3  39    6.0703   583.5    3.768      50.264
2014   11        8     3  44    6.0693   583.4    3.767      50.221
2014   11        8     3  49    6.0683   583.2    3.766      50.177
2014   11        8     3  54    6.0672   583.1    3.765      50.135
2014   11        8     3  59    6.0662   582.9    3.765      50.092
2014   11        8     4   4    6.0652   582.8    3.764      50.049
2014   11        8     4   9    6.0642   582.6    3.764      50.007
2014   11        8     4  14    6.0632   582.4    3.763      49.965
2014   11        8     4  19    6.0622   582.3    3.763      49.924
2014   11        8     4  24    6.0612   582.1    3.762      49.883
2014   11        8     4  29    6.0602   582.0    3.762      49.842
2014   11        8     4  34    6.0592   581.8    3.762      49.802
2014   11        8     4  39    6.0582   581.6    3.762      49.762
2014   11        8     4  44    6.0572   581.5    3.762      49.723
2014   11        8     4  49    6.0562   581.3    3.762      49.684
2014   11        8     4  54    6.0553   581.1    3.762      49.646
2014   11        8     4  59    6.0544   581.0    3.762      49.608
2014   11        8     5   4    6.0534   580.8    3.763      49.572
2014   11        8     5   9    6.0525   580.6    3.763      49.535
2014   11        8     5  14    6.0516   580.5    3.764      49.500
2014   11        8     5  19    6.0507   580.3    3.764      49.465
2014   11        8     5  24    6.0499   580.1    3.765      49.431
2014   11        8     5  29    6.0490   580.0    3.766      49.397
2014   11        8     5  34    6.0482   579.8    3.767      49.365
2014   11        8     5  38    6.0474   579.6    3.768      49.333
2014   11        8     5  43    6.0466   579.4    3.769      49.301
2014   11        8     5  48    6.0459   579.3    3.770      49.271
2014   11        8     5  53    6.0451   579.1    3.772      49.242
2014   11        8     5  58    6.0444   578.9    3.773      49.213
2014   11        8     6   3    6.0437   578.8    3.775      49.186
2014   11        8     6   8    6.0430   578.6    3.776      49.159
2014   11        8     6  13    6.0424   578.4    3.778      49.134
2014   11        8     6  18    6.0417   578.2    3.780      49.109
2014   11        8     6  23    6.0412   578.1    3.782      49.085
2014   11        8     6  28    6.0406   577.9    3.784      49.062
2014   11        8     6  33    6.0400   577.7    3.785      49.040
2014   11        8     6  38    6.0395   577.5    3.788      49.018
2014   11        8     6  43    6.0390   577.4    3.790      48.996
2014   11        8     6  48    6.0385   577.2    3.792      48.975
2014   11        8     6  53    6.0381   577.0    3.794      48.955
2014   11        8     6  58    6.0377   576.8    3.796      48.936
2014   11        8     7   3    6.0373   576.7    3.798      48.916
2014   11        8     7   8    6.0369   576.5    3.801      48.897
2014   11        8     7  13    6.0365   576.3    3.803      48.878
2014   11        8     7  18    6.0362   576.1    3.805      48.860
2014   11        8     7  23    6.0358   576.0    3.807      48.842
2014   11        8     7  28    6.0355   575.8    3.810      48.823
2014   11        8     7  33    6.0352   575.6    3.812      48.805
2014   11        8     7  38    6.0350   575.5    3.814      48.787
2014   11        8     7  43    6.0347   575.3    3.816      48.769
2014   11        8     7  47    6.0345   575.1    3.818      48.750
2014   11        8     7  52    6.0343   575.0    3.821      48.732
2014   11        8     7  57    6.0341   574.8    3.823      48.713
2014   11        8     8   2    6.0339   574.6    3.825      48.694
2014   11        8     8   7    6.0337   574.5    3.827      48.675
2014   11        8     8  12    6.0336   574.3    3.829      48.656
2014   11        8     8  17    6.0335   574.1    3.831      48.636
2014   11        8     8  22    6.0334   573.9    3.833      48.617
2014   11        8     8  27    6.0333   573.8    3.835      48.597
2014   11        8     8  32    6.0332   573.6    3.837      48.577
2014   11        8     8  37    6.0332   573.4    3.839      48.557
2014   11        8     8  42    6.0332   573.3    3.841      48.537
2014   11        8     8  47    6.0333   573.1    3.843      48.516
2014   11        8     8  52    6.0333   572.9    3.845      48.496
2014   11        8     8  57    6.0334   572.8    3.847      48.476
2014   11        8     9   2    6.0336   572.6    3.849      48.456
2014   11        8     9   7    6.0337   572.4    3.851      48.436
2014   11        8     9  12    6.0339   572.3    3.853      48.416
2014   11        8     9  17    6.0342   572.1    3.856      48.397
2014   11        8     9  22    6.0345   571.9    3.858      48.377
2014   11        8     9  27    6.0348   571.8    3.860      48.359
2014   11        8     9  32    6.0352   571.6    3.862      48.340
2014   11        8     9  37    6.0356   571.4    3.865      48.321
2014   11        8     9  42    6.0361   571.2    3.867      48.303
2014   11        8     9  47    6.0367   571.1    3.870      48.286
2014   11        8     9  51    6.0373   570.9    3.872      48.269
2014   11        8     9  56    6.0379   570.7    3.875      48.253
2014   11        8    10   1    6.0386   570.6    3.877      48.238
2014   11        8    10   6    6.0393   570.4    3.880      48.223
2014   11        8    10  11    6.0401   570.3    3.882      48.208
2014   11        8    10  16    6.0410   570.1    3.885      48.193
2014   11        8    10  21    6.0418   569.9    3.887      48.179
2014   11        8    10  26    6.0427   569.8    3.890      48.164
2014   11        8    10  31    6.0437   569.6    3.892      48.150
2014   11        8    10  36    6.0447   569.5    3.895      48.135
2014   11        8    10  41    6.0457   569.3    3.897      48.120
2014   11        8    10  46    6.0468   569.2    3.900      48.106
2014   11        8    10  51    6.0479   569.0    3.902      48.090
2014   11        8    10  56    6.0490   568.8    3.904      48.075
2014   11        8    11   1    6.0502   568.7    3.906      48.059
2014   11        8    11   6    6.0514   568.5    3.909      48.042
2014   11        8    11  11    6.0527   568.4    3.911      48.026
2014   11        8    11  16    6.0540   568.2    3.913      48.009
2014   11        8    11  21    6.0553   568.1    3.915      47.993
2014   11        8    11  26    6.0568   567.9    3.918      47.976
2014   11        8    11  31    6.0582   567.7    3.920      47.959
2014   11        8    11  36    6.0597   567.6    3.922      47.942
2014   11        8    11  41    6.0613   567.4    3.925      47.926
2014   11        8    11  46    6.0629   567.3    3.927      47.909
2014   11        8    11  51    6.0646   567.1    3.930      47.893
2014   11        8    11  56    6.0663   567.0    3.932      47.877
2014   11        8    12   1    6.0681   566.8    3.935      47.862
2014   11        8    12   5    6.0699   566.7    3.937      47.846
2014   11        8    12  10    6.0718   566.5    3.940      47.830
2014   11        8    12  15    6.0737   566.4    3.942      47.815
2014   11        8    12  20    6.0756   566.2    3.945      47.799
2014   11        8    12  25    6.0777   566.1    3.947      47.784
2014   11        8    12  30    6.0797   565.9    3.950      47.769
2014   11        8    12  35    6.0819   565.8    3.952      47.753
2014   11        8    12  40    6.0840   565.6    3.955      47.738
2014   11        8    12  45    6.0862   565.5    3.957      47.723
2014   11        8    12  50    6.0884   565.3    3.960      47.708
2014   11        8    12  55    6.0907   565.2    3.962      47.693
2014   11        8    13   0    6.0930   565.1    3.965      47.677
2014   11        8    13   5    6.0954   564.9    3.968      47.662
2014   11        8    13  10    6.0978   564.8    3.970      47.647
2014   11        8    13  15    6.1002   564.6    3.973      47.632
2014   11        8    13  20    6.1026   564.5    3.976      47.617
2014   11        8    13  25    6.1051   564.4    3.978      47.601
2014   11        8    13  30    6.1076   564.2    3.981      47.586
2014   11        8    13  35    6.1101   564.1    3.984      47.571
2014   11        8    13  40    6.1126   563.9    3.986      47.557
2014   11        8    13  45    6.1151   563.8    3.989      47.542
2014   11        8    13  50    6.1177   563.7    3.992      47.527
2014   11        8    13  55    6.1202   563.5    3.995      47.512
2014   11        8    14   0    6.1227   563.4    3.997      47.497
2014   11        8    14   5    6.1253   563.3    4.000      47.483
2014   11        8    14  10    6.1279   563.1    4.003      47.468
2014   11        8    14  15    6.1304   563.0    4.006      47.454
2014   11        8    14  19    6.1330   562.9    4.009      47.439
2014   11        8    14  24    6.1356   562.7    4.011      47.425
2014   11        8    14  29    6.1382   562.6    4.014      47.411
2014   11        8    14  34    6.1408   562.4    4.017      47.397
2014   11        8    14  39    6.1434   562.3    4.020      47.383
2014   11        8    14  44    6.1460   562.2    4.023      47.369
2014   11        8    14  49    6.1487   562.0    4.026      47.356
2014   11        8    14  54    6.1513   561.9    4.029      47.342
2014   11        8    14  59    6.1540   561.7    4.032      47.329
2014   11        8    15   4    6.1566   561.6    4.035      47.316
2014   11        8    15   9    6.1593   561.5    4.038      47.304
2014   11        8    15  14    6.1620   561.3    4.041      47.291
2014   11        8    15  19    6.1648   561.2    4.044      47.279
2014   11        8    15  24    6.1675   561.1    4.048      47.268
2014   11        8    15  29    6.1702   560.9    4.051      47.257
2014   11        8    15  34    6.1730   560.8    4.054      47.246
2014   11        8    15  39    6.1758   560.7    4.058      47.236
2014   11        8    15  44    6.1786   560.5    4.061      47.226
2014   11        8    15  49    6.1814   560.4    4.065      47.216
2014   11        8    15  54    6.1843   560.2    4.069      47.207
2014   11        8    15  59    6.1872   560.1    4.072      47.199
2014   11        8    16   4    6.1901   560.0    4.076      47.191
2014   11        8    16   9    6.1930   559.8    4.080      47.184
2014   11        8    16  14    6.1959   559.7    4.084      47.178
2014   11        8    16  19    6.1989   559.6    4.088      47.172
2014   11        8    16  23    6.2019   559.4    4.093      47.167
2014   11        8    16  28    6.2049   559.3    4.097      47.163
2014   11        8    16  33    6.2079   559.2    4.102      47.159
2014   11        8    16  38    6.2110   559.1    4.106      47.156
2014   11        8    16  43    6.2141   558.9    4.111      47.154
2014   11        8    16  48    6.2173   558.8    4.115      47.153
2014   11        8    16  53    6.2205   558.7    4.120      47.154
2014   11        8    16  58    6.2236   558.6    4.125      47.155
2014   11        8    17   3    6.2269   558.5    4.130      47.158
2014   11        8    17   8    6.2301   558.4    4.135      47.162
2014   11        8    17  13    6.2334   558.2    4.139      47.166
2014   11        8    17  18    6.2366   558.1    4.144      47.172
2014   11        8    17  23    6.2399   558.0    4.149      47.177
2014   11        8    17  28    6.2432   557.9    4.154      47.183
2014   11        8    17  33    6.2465   557.8    4.159      47.190
2014   11        8    17  38    6.2498   557.7    4.163      47.197
2014   11        8    17  43    6.2532   557.6    4.168      47.204
2014   11        8    17  48    6.2565   557.5    4.172      47.212
2014   11        8    17  53    6.2598   557.4    4.177      47.219
2014   11        8    17  58    6.2632   557.3    4.181      47.226
2014   11        8    18   3    6.2666   557.2    4.186      47.233
2014   11        8    18   8    6.2699   557.1    4.190      47.241
2014   11        8    18  13    6.2733   557.0    4.195      47.248
2014   11        8    18  18    6.2768   556.9    4.199      47.256
2014   11        8    18  23    6.2802   556.8    4.203      47.264
2014   11        8    18  28    6.2836   556.7    4.208      47.272
2014   11        8    18  32    6.2871   556.6    4.212      47.279
2014   11        8    18  37    6.2906   556.5    4.216      47.288
2014   11        8    18  42    6.2941   556.4    4.221      47.296
2014   11        8    18  47    6.2976   556.3    4.225      47.305
2014   11        8    18  52    6.3012   556.2    4.229      47.314
2014   11        8    18  57    6.3048   556.1    4.233      47.323
2014   11        8    19   2    6.3084   556.0    4.237      47.332
2014   11        8    19   7    6.3120   555.9    4.241      47.341
2014   11        8    19  12    6.3156   555.8    4.245      47.350
2014   11        8    19  17    6.3192   555.8    4.249      47.359
2014   11        8    19  22    6.3229   555.7    4.253      47.368
2014   11        8    19  27    6.3266   555.6    4.256      47.376
2014   11        8    19  32    6.3303   555.5    4.260      47.384
2014   11        8    19  37    6.3340   555.4    4.264      47.392
2014   11        8    19  42    6.3377   555.4    4.267      47.400
2014   11        8    19  47    6.3414   555.3    4.271      47.407
2014   11        8    19  52    6.3452   555.2    4.274      47.415
2014   11        8    19  57    6.3490   555.1    4.278      47.422
2014   11        8    20   2    6.3528   555.1    4.281      47.429
2014   11        8    20   7    6.3566   555.0    4.285      47.435
2014   11        8    20  12    6.3604   554.9    4.288      47.442
2014   11        8    20  17    6.3643   554.8    4.291      47.449
2014   11        8    20  22    6.3682   554.8    4.295      47.455
2014   11        8    20  27    6.3721   554.7    4.298      47.462
2014   11        8    20  32    6.3760   554.6    4.302      47.469
2014   11        8    20  37    6.3800   554.5    4.305      47.476
2014   11        8    20  42    6.3840   554.5    4.309      47.484
2014   11        8    20  46    6.3880   554.4    4.312      47.492
2014   11        8    20  51    6.3921   554.4    4.315      47.500
2014   11        8    20  56    6.3962   554.3    4.319      47.509
2014   11        8    21   1    6.4003   554.2    4.322      47.517
2014   11        8    21   6    6.4044   554.2    4.325      47.526
2014   11        8    21  11    6.4085   554.1    4.329      47.535
2014   11        8    21  16    6.4126   554.1    4.332      47.543
2014   11        8    21  21    6.4168   554.0    4.335      47.552
2014   11        8    21  26    6.4210   553.9    4.339      47.561
2014   11        8    21  31    6.4252   553.9    4.342      47.570
2014   11        8    21  36    6.4294   553.8    4.345      47.579
2014   11        8    21  41    6.4336   553.8    4.348      47.588
2014   11        8    21  46    6.4378   553.7    4.351      47.596
2014   11        8    21  51    6.4421   553.7    4.355      47.605
2014   11        8    21  56    6.4464   553.6    4.358      47.613
2014   11        8    22   1    6.4507   553.6    4.361      47.622
2014   11        8    22   6    6.4550   553.5    4.364      47.630
2014   11        8    22  11    6.4594   553.5    4.368      47.639
2014   11        8    22  16    6.4638   553.4    4.371      47.648
2014   11        8    22  21    6.4682   553.4    4.374      47.656
2014   11        8    22  26    6.4727   553.3    4.378      47.665
2014   11        8    22  31    6.4772   553.3    4.381      47.674
2014   11        8    22  36    6.4818   553.2    4.385      47.684
2014   11        8    22  41    6.4864   553.2    4.388      47.693
2014   11        8    22  46    6.4910   553.1    4.392      47.703
2014   11        8    22  51    6.4958   553.1    4.395      47.713
2014   11        8    22  55    6.5005   553.0    4.399      47.723
2014   11        8    23   0    6.5054   553.0    4.403      47.734
2014   11        8    23   5    6.5103   553.0    4.407      47.745
2014   11        8    23  10    6.5153   552.9    4.411      47.757
2014   11        8    23  15    6.5203   552.9    4.414      47.769
2014   11        8    23  20    6.5255   552.8    4.419      47.781
2014   11        8    23  25    6.5307   552.8    4.423      47.794
2014   11        8    23  30    6.5360   552.7    4.427      47.807
2014   11        8    23  35    6.5414   552.7    4.431      47.821
2014   11        8    23  40    6.5469   552.7    4.435      47.836
2014   11        8    23  45    6.5525   552.6    4.440      47.852
2014   11        8    23  50    6.5581   552.6    4.444      47.869
2014   11        8    23  55    6.5639   552.6    4.449      47.886
2014   11        9     0   0    6.5697   552.5    4.453      47.905
2014   11        9     0   5    6.5757   552.5    4.458      47.924
2014   11        9     0  10    6.5817   552.5    4.463      47.944
2014   11        9     0  15    6.5878   552.4    4.467      47.965
2014   11        9     0  20    6.5939   552.4    4.472      47.986
2014   11        9     0  25    6.6001   552.4    4.477      48.009
2014   11        9     0  30    6.6064   552.4    4.482      48.032
2014   11        9     0  35    6.6127   552.4    4.487      48.055
2014   11        9     0  40    6.6191   552.3    4.491      48.080
2014   11        9     0  45    6.6255   552.3    4.496      48.105
2014   11        9     0  50    6.6320   552.3    4.501      48.131
2014   11        9     0  55    6.6384   552.3    4.506      48.157
2014   11        9     1   0    6.6450   552.3    4.511      48.183
2014   11        9     1   5    6.6515   552.2    4.516      48.210
2014   11        9     1   9    6.6581   552.2    4.521      48.238
2014   11        9     1  14    6.6647   552.2    4.526      48.266
2014   11        9     1  19    6.6714   552.2    4.531      48.295
2014   11        9     1  24    6.6780   552.2    4.537      48.324
2014   11        9     1  29    6.6847   552.2    4.542      48.354
2014   11        9     1  34    6.6914   552.2    4.547      48.385
2014   11        9     1  39    6.6981   552.2    4.552      48.416
2014   11        9     1  44    6.7048   552.1    4.557      48.447
2014   11        9     1  49    6.7115   552.1    4.562      48.479
2014   11        9     1  54    6.7181   552.1    4.567      48.511
2014   11        9     1  59    6.7248   552.1    4.572      48.543
2014   11        9     2   4    6.7314   552.1    4.577      48.575
2014   11        9     2   9    6.7380   552.1    4.582      48.608
2014   11        9     2  14    6.7446   552.1    4.587      48.641
2014   11        9     2  19    6.7511   552.1    4.593      48.675
2014   11        9     2  24    6.7576   552.1    4.598      48.708
2014   11        9     2  29    6.7640   552.1    4.603      48.741
2014   11        9     2  34    6.7703   552.1    4.608      48.774
2014   11        9     2  39    6.7767   552.1    4.613      48.808
2014   11        9     2  44    6.7829   552.0    4.618      48.841
2014   11        9     2  49    6.7890   552.0    4.623      48.875
2014   11        9     2  54    6.7951   552.0    4.628      48.908
2014   11        9     2  59    6.8011   552.0    4.633      48.942
2014   11        9     3   4    6.8070   552.0    4.638      48.975
2014   11        9     3   9    6.8129   552.0    4.644      49.009
2014   11        9     3  14    6.8186   552.0    4.649      49.043
2014   11        9     3  18    6.8242   552.0    4.654      49.077
2014   11        9     3  23    6.8298   552.0    4.660      49.112
2014   11        9     3  28    6.8352   552.0    4.665      49.146
2014   11        9     3  33    6.8405   551.9    4.671      49.181
2014   11        9     3  38    6.8457   551.9    4.676      49.217
2014   11        9     3  43    6.8508   551.9    4.682      49.253
2014   11        9     3  48    6.8558   551.9    4.688      49.289
2014   11        9     3  53    6.8606   551.9    4.694      49.326
2014   11        9     3  58    6.8653   551.9    4.700      49.363
2014   11        9     4   3    6.8699   551.9    4.706      49.401
2014   11        9     4   8    6.8744   551.8    4.712      49.439
2014   11        9     4  13    6.8787   551.8    4.718      49.478
2014   11        9     4  18    6.8829   551.8    4.725      49.517
2014   11        9     4  23    6.8869   551.8    4.732      49.557
2014   11        9     4  28    6.8908   551.8    4.739      49.598
2014   11        9     4  33    6.8946   551.8    4.746      49.640
2014   11        9     4  38    6.8983   551.8    4.753      49.683
2014   11        9     4  43    6.9018   551.7    4.760      49.726
2014   11        9     4  48    6.9052   551.7    4.767      49.770
2014   11        9     4  53    6.9084   551.7    4.775      49.815
2014   11        9     4  58    6.9115   551.7    4.782      49.860
2014   11        9     5   3    6.9145   551.7    4.790      49.907
2014   11        9     5   8    6.9173   551.7    4.797      49.955
2014   11        9     5  13    6.9199   551.6    4.805      50.003
2014   11        9     5  18    6.9224   551.6    4.812      50.052
2014   11        9     5  23    6.9247   551.6    4.820      50.101
2014   11        9     5  28    6.9269   551.6    4.827      50.150
2014   11        9     5  32    6.9288   551.5    4.834      50.199
2014   11        9     5  37    6.9306   551.5    4.841      50.248
2014   11        9     5  42    6.9322   551.5    4.848      50.296
2014   11        9     5  47    6.9337   551.4    4.855      50.344
2014   11        9     5  52    6.9350   551.4    4.862      50.392
2014   11        9     5  57    6.9361   551.4    4.869      50.438
2014   11        9     6   2    6.9371   551.3    4.875      50.484
2014   11        9     6   7    6.9379   551.3    4.882      50.529
2014   11        9     6  12    6.9385   551.2    4.888      50.572
2014   11        9     6  17    6.9390   551.2    4.894      50.615
2014   11        9     6  22    6.9393   551.1    4.900      50.657
2014   11        9     6  27    6.9394   551.1    4.906      50.698
2014   11        9     6  32    6.9395   551.0    4.912      50.738
2014   11        9     6  37    6.9393   551.0    4.917      50.778
2014   11        9     6  42    6.9390   550.9    4.923      50.818
2014   11        9     6  47    6.9384   550.8    4.928      50.858
2014   11        9     6  52    6.9378   550.8    4.934      50.897
2014   11        9     6  57    6.9370   550.7    4.939      50.936
2014   11        9     7   2    6.9360   550.6    4.944      50.974
2014   11        9     7   7    6.9349   550.6    4.948      51.013
2014   11        9     7  12    6.9336   550.5    4.953      51.051
2014   11        9     7  17    6.9321   550.4    4.957      51.090
2014   11        9     7  22    6.9306   550.4    4.962      51.129
2014   11        9     7  27    6.9289   550.3    4.966      51.168
2014   11        9     7  32    6.9270   550.2    4.970      51.207
2014   11        9     7  37    6.9251   550.1    4.974      51.246
2014   11        9     7  41    6.9230   550.0    4.977      51.286
2014   11        9     7  46    6.9209   550.0    4.981      51.325
2014   11        9     7  51    6.9186   549.9    4.984      51.364
2014   11        9     7  56    6.9162   549.8    4.987      51.403
2014   11        9     8   1    6.9138   549.7    4.990      51.441
2014   11        9     8   6    6.9113   549.6    4.993      51.480
2014   11        9     8  11    6.9087   549.5    4.996      51.519
2014   11        9     8  16    6.9060   549.4    4.998      51.557
2014   11        9     8  21    6.9032   549.3    5.000      51.596
2014   11        9     8  26    6.9004   549.2    5.003      51.634
2014   11        9     8  31    6.8975   549.1    5.005      51.673
2014   11        9     8  36    6.8946   549.0    5.007      51.711
2014   11        9     8  41    6.8916   548.9    5.009      51.749
2014   11        9     8  46    6.8886   548.8    5.010      51.787
2014   11        9     8  51    6.8855   548.7    5.012      51.825
2014   11        9     8  56    6.8825   548.6    5.014      51.863
2014   11        9     9   1    6.8794   548.5    5.015      51.901
2014   11        9     9   6    6.8763   548.4    5.016      51.939
2014   11        9     9  11    6.8732   548.3    5.018      51.977
2014   11        9     9  16    6.8701   548.2    5.019      52.014
2014   11        9     9  21    6.8671   548.1    5.020      52.052
2014   11        9     9  26    6.8640   548.0    5.021      52.090
2014   11        9     9  31    6.8610   547.9    5.021      52.128
2014   11        9     9  36    6.8580   547.8    5.022      52.166
2014   11        9     9  41    6.8551   547.8    5.022      52.203
2014   11        9     9  46    6.8522   547.7    5.023      52.241
2014   11        9     9  50    6.8494   547.6    5.023      52.279
2014   11        9     9  55    6.8465   547.5    5.023      52.317
2014   11        9    10   0    6.8438   547.4    5.023      52.354
2014   11        9    10   5    6.8411   547.3    5.023      52.392
2014   11        9    10  10    6.8385   547.2    5.023      52.430
2014   11        9    10  15    6.8360   547.1    5.023      52.467
2014   11        9    10  20    6.8335   547.0    5.022      52.505
2014   11        9    10  25    6.8310   546.9    5.022      52.542
2014   11        9    10  30    6.8287   546.8    5.021      52.580
2014   11        9    10  35    6.8264   546.7    5.020      52.617
2014   11        9    10  40    6.8241   546.6    5.019      52.655
2014   11        9    10  45    6.8220   546.5    5.018      52.692
2014   11        9    10  50    6.8199   546.5    5.017      52.730
2014   11        9    10  55    6.8178   546.4    5.016      52.767
2014   11        9    11   0    6.8159   546.3    5.015      52.805
2014   11        9    11   5    6.8139   546.2    5.013      52.843
2014   11        9    11  10    6.8121   546.1    5.012      52.881
2014   11        9    11  15    6.8103   546.0    5.010      52.919
2014   11        9    11  20    6.8086   545.9    5.009      52.957
2014   11        9    11  25    6.8069   545.9    5.007      52.996
2014   11        9    11  30    6.8053   545.8    5.005      53.035
2014   11        9    11  35    6.8037   545.7    5.003      53.075
2014   11        9    11  40    6.8022   545.6    5.002      53.115
2014   11        9    11  45    6.8007   545.5    5.000      53.156
2014   11        9    11  50    6.7993   545.5    4.998      53.197
2014   11        9    11  55    6.7978   545.4    4.996      53.240
2014   11        9    12   0    6.7965   545.3    4.995      53.283
2014   11        9    12   4    6.7951   545.3    4.993      53.327
2014   11        9    12   9    6.7938   545.2    4.991      53.372
2014   11        9    12  14    6.7925   545.1    4.990      53.418
2014   11        9    12  19    6.7913   545.1    4.988      53.465
2014   11        9    12  24    6.7900   545.0    4.987      53.513
2014   11        9    12  29    6.7889   545.0    4.985      53.562
2014   11        9    12  34    6.7877   544.9    4.984      53.613
2014   11        9    12  39    6.7866   544.9    4.983      53.664
2014   11        9    12  44    6.7854   544.8    4.981      53.717
2014   11        9    12  49    6.7844   544.8    4.980      53.771
2014   11        9    12  54    6.7833   544.7    4.979      53.826
2014   11        9    12  59    6.7824   544.7    4.979      53.882
2014   11        9    13   4    6.7814   544.7    4.978      53.939
2014   11        9    13   9    6.7805   544.7    4.977      53.997
2014   11        9    13  14    6.7796   544.6    4.977      54.056
2014   11        9    13  19    6.7788   544.6    4.976      54.116
2014   11        9    13  24    6.7779   544.6    4.976      54.176
2014   11        9    13  29    6.7771   544.6    4.975      54.238
2014   11        9    13  34    6.7763   544.6    4.975      54.300
2014   11        9    13  39    6.7756   544.6    4.975      54.362
2014   11        9    13  44    6.7748   544.5    4.975      54.426
2014   11        9    13  49    6.7740   544.5    4.975      54.490
2014   11        9    13  54    6.7733   544.5    4.975      54.554
2014   11        9    13  59    6.7725   544.5    4.975      54.619
2014   11        9    14   4    6.7717   544.5    4.975      54.684
2014   11        9    14   9    6.7709   544.6    4.976      54.749
2014   11        9    14  13    6.7701   544.6    4.976      54.814
2014   11        9    14  18    6.7693   544.6    4.976      54.880
2014   11        9    14  23    6.7684   544.6    4.976      54.945
2014   11        9    14  28    6.7675   544.6    4.977      55.010
2014   11        9    14  33    6.7666   544.6    4.977      55.074
2014   11        9    14  38    6.7656   544.6    4.978      55.139
2014   11        9    14  43    6.7646   544.7    4.978      55.203
2014   11        9    14  48    6.7636   544.7    4.978      55.266
2014   11        9    14  53    6.7625   544.7    4.979      55.329
2014   11        9    14  58    6.7615   544.7    4.979      55.392
2014   11        9    15   3    6.7603   544.7    4.980      55.454
2014   11        9    15   8    6.7592   544.8    4.980      55.516
2014   11        9    15  13    6.7580   544.8    4.981      55.578
2014   11        9    15  18    6.7567   544.8    4.981      55.639
2014   11        9    15  23    6.7555   544.8    4.982      55.699
2014   11        9    15  28    6.7542   544.8    4.983      55.760
2014   11        9    15  33    6.7528   544.9    4.983      55.820
2014   11        9    15  38    6.7515   544.9    4.984      55.881
2014   11        9    15  43    6.7501   544.9    4.985      55.941
2014   11        9    15  48    6.7487   544.9    4.986      56.001
2014   11        9    15  53    6.7472   544.9    4.987      56.062
2014   11        9    15  58    6.7458   545.0    4.989      56.122
2014   11        9    16   3    6.7442   545.0    4.990      56.183
2014   11        9    16   8    6.7428   545.0    4.991      56.244
2014   11        9    16  13    6.7412   545.0    4.993      56.305
2014   11        9    16  18    6.7396   545.0    4.995      56.367
2014   11        9    16  22    6.7380   545.1    4.997      56.429
2014   11        9    16  27    6.7364   545.1    4.999      56.491
2014   11        9    16  32    6.7347   545.1    5.002      56.553
2014   11        9    16  37    6.7330   545.1    5.004      56.615
2014   11        9    16  42    6.7312   545.2    5.007      56.678
2014   11        9    16  47    6.7294   545.2    5.010      56.740
2014   11        9    16  52    6.7275   545.2    5.014      56.802
2014   11        9    16  57    6.7255   545.3    5.017      56.865
2014   11        9    17   2    6.7235   545.3    5.021      56.927
2014   11        9    17   7    6.7214   545.3    5.025      56.989
2014   11        9    17  12    6.7192   545.4    5.029      57.051
2014   11        9    17  17    6.7170   545.4    5.034      57.113
2014   11        9    17  22    6.7147   545.4    5.039      57.174
2014   11        9    17  27    6.7123   545.5    5.043      57.235
2014   11        9    17  32    6.7099   545.5    5.048      57.295
2014   11        9    17  37    6.7074   545.5    5.054      57.355
2014   11        9    17  42    6.7048   545.6    5.059      57.414
2014   11        9    17  47    6.7022   545.6    5.065      57.472
2014   11        9    17  52    6.6995   545.6    5.071      57.529
2014   11        9    17  57    6.6968   545.6    5.076      57.585
2014   11        9    18   2    6.6940   545.7    5.083      57.640
2014   11        9    18   7    6.6912   545.7    5.089      57.694
2014   11        9    18  12    6.6883   545.7    5.095      57.747
2014   11        9    18  17    6.6855   545.7    5.102      57.799
2014   11        9    18  22    6.6826   545.7    5.109      57.849
2014   11        9    18  27    6.6797   545.7    5.116      57.899
2014   11        9    18  32    6.6767   545.7    5.123      57.947
2014   11        9    18  36    6.6738   545.7    5.131      57.994
2014   11        9    18  41    6.6708   545.6    5.139      58.041
2014   11        9    18  46    6.6679   545.6    5.147      58.087
2014   11        9    18  51    6.6649   545.6    5.155      58.132
2014   11        9    18  56    6.6620   545.5    5.164      58.177
2014   11        9    19   1    6.6591   545.5    5.174      58.224
2014   11        9    19   6    6.6563   545.4    5.184      58.271
2014   11        9    19  11    6.6534   545.4    5.195      58.319
2014   11        9    19  16    6.6507   545.3    5.206      58.367
2014   11        9    19  21    6.6479   545.3    5.218      58.416
2014   11        9    19  26    6.6453   545.2    5.230      58.466
2014   11        9    19  31    6.6427   545.2    5.243      58.517
2014   11        9    19  36    6.6402   545.1    5.256      58.569
2014   11        9    19  41    6.6378   545.1    5.271      58.621
2014   11        9    19  46    6.6355   545.0    5.286      58.672
2014   11        9    19  51    6.6333   545.0    5.301      58.727
2014   11        9    19  56    6.6312   544.9    5.317      58.784
2014   11        9    20   1    6.6293   544.9    5.333      58.844
2014   11        9    20   6    6.6275   544.9    5.350      58.905
2014   11        9    20  11    6.6258   544.9    5.366      58.966
2014   11        9    20  16    6.6242   544.9    5.383      59.027
2014   11        9    20  21    6.6228   544.9    5.399      59.089
2014   11        9    20  26    6.6215   544.9    5.416      59.149
2014   11        9    20  31    6.6203   544.9    5.432      59.208
2014   11        9    20  36    6.6193   544.9    5.448      59.264
2014   11        9    20  41    6.6184   544.9    5.463      59.318
2014   11        9    20  45    6.6176   544.9    5.479      59.369
2014   11        9    20  50    6.6169   545.0    5.493      59.418
2014   11        9    20  55    6.6164   545.0    5.507      59.465
2014   11        9    21   0    6.6159   545.0    5.521      59.506
2014   11        9    21   5    6.6155   545.0    5.534      59.543
2014   11        9    21  10    6.6153   545.1    5.546      59.575
2014   11        9    21  15    6.6151   545.1    5.558      59.602
2014   11        9    21  20    6.6149   545.1    5.569      59.624
2014   11        9    21  25    6.6149   545.2    5.580      59.642
2014   11        9    21  30    6.6149   545.2    5.590      59.657
2014   11        9    21  35    6.6149   545.2    5.600      59.666
2014   11        9    21  40    6.6150   545.2    5.610      59.673
2014   11        9    21  45    6.6151   545.3    5.618      59.675
2014   11        9    21  50    6.6153   545.3    5.627      59.675
2014   11        9    21  55    6.6155   545.3    5.635      59.670
2014   11        9    22   0    6.6158   545.3    5.643      59.662
2014   11        9    22   5    6.6160   545.4    5.650      59.651
2014   11        9    22  10    6.6163   545.4    5.657      59.637
2014   11        9    22  15    6.6167   545.4    5.664      59.620
2014   11        9    22  20    6.6171   545.4    5.670      59.601
2014   11        9    22  25    6.6176   545.4    5.676      59.580
2014   11        9    22  30    6.6181   545.5    5.682      59.557
2014   11        9    22  35    6.6187   545.5    5.687      59.532
2014   11        9    22  40    6.6193   545.5    5.692      59.506
2014   11        9    22  45    6.6200   545.6    5.697      59.478
2014   11        9    22  50    6.6209   545.6    5.701      59.448
2014   11        9    22  54    6.6217   545.7    5.704      59.416
2014   11        9    22  59    6.6227   545.7    5.707      59.383
2014   11        9    23   4    6.6238   545.8    5.709      59.348
2014   11        9    23   9    6.6250   545.9    5.711      59.311
2014   11        9    23  14    6.6262   545.9    5.713      59.274
2014   11        9    23  19    6.6276   546.0    5.713      59.235
2014   11        9    23  24    6.6290   546.1    5.713      59.196
2014   11        9    23  29    6.6306   546.2    5.713      59.155
2014   11        9    23  34    6.6322   546.2    5.712      59.112
2014   11        9    23  39    6.6339   546.3    5.711      59.068
2014   11        9    23  44    6.6358   546.4    5.709      59.023
2014   11        9    23  49    6.6378   546.5    5.706      58.976
2014   11        9    23  54    6.6398   546.6    5.703      58.928
2014   11        9    23  59    6.6420   546.7    5.700      58.879
2014   11       10     0   4    6.6443   546.8    5.696      58.827
2014   11       10     0   9    6.6468   546.9    5.692      58.775
2014   11       10     0  14    6.6494   547.0    5.687      58.721
2014   11       10     0  19    6.6521   547.1    5.682      58.666
2014   11       10     0  24    6.6550   547.2    5.677      58.609
2014   11       10     0  29    6.6580   547.3    5.672      58.551
2014   11       10     0  34    6.6611   547.4    5.666      58.492
2014   11       10     0  39    6.6645   547.5    5.659      58.432
2014   11       10     0  44    6.6679   547.6    5.653      58.371
2014   11       10     0  49    6.6715   547.7    5.646      58.309
2014   11       10     0  54    6.6751   547.8    5.639      58.247
2014   11       10     0  59    6.6788   547.9    5.632      58.184
2014   11       10     1   4    6.6826   548.0    5.624      58.120
2014   11       10     1   8    6.6864   548.1    5.616      58.057
2014   11       10     1  13    6.6902   548.3    5.608      57.993
2014   11       10     1  18    6.6941   548.4    5.600      57.929
2014   11       10     1  23    6.6979   548.5    5.591      57.866
2014   11       10     1  28    6.7016   548.7    5.582      57.802
2014   11       10     1  33    6.7053   548.8    5.573      57.739
2014   11       10     1  38    6.7089   549.0    5.563      57.675
2014   11       10     1  43    6.7123   549.2    5.553      57.612
2014   11       10     1  48    6.7157   549.3    5.543      57.549
2014   11       10     1  53    6.7189   549.5    5.533      57.486
2014   11       10     1  58    6.7219   549.7    5.522      57.422
2014   11       10     2   3    6.7248   549.9    5.510      57.357
2014   11       10     2   8    6.7275   550.2    5.498      57.291
2014   11       10     2  13    6.7301   550.4    5.486      57.224
2014   11       10     2  18    6.7324   550.6    5.473      57.155
2014   11       10     2  23    6.7346   550.9    5.459      57.083
2014   11       10     2  28    6.7366   551.2    5.444      57.008
2014   11       10     2  33    6.7383   551.4    5.429      56.928
2014   11       10     2  38    6.7399   551.7    5.412      56.844
2014   11       10     2  43    6.7413   552.0    5.395      56.755
2014   11       10     2  48    6.7426   552.3    5.377      56.660
2014   11       10     2  53    6.7436   552.6    5.358      56.559
2014   11       10     2  58    6.7446   552.8    5.339      56.453
2014   11       10     3   3    6.7454   553.1    5.319      56.343
2014   11       10     3   8    6.7461   553.3    5.299      56.230
2014   11       10     3  13    6.7468   553.6    5.278      56.114
2014   11       10     3  18    6.7474   553.8    5.258      55.995
2014   11       10     3  22    6.7479   554.0    5.237      55.876
2014   11       10     3  27    6.7484   554.2    5.217      55.755
2014   11       10     3  32    6.7489   554.4    5.197      55.635
2014   11       10     3  37    6.7494   554.6    5.177      55.515
2014   11       10     3  42    6.7499   554.8    5.158      55.398
2014   11       10     3  47    6.7504   555.0    5.139      55.283
2014   11       10     3  52    6.7510   555.1    5.121      55.170
2014   11       10     3  57    6.7516   555.3    5.103      55.062
2014   11       10     4   2    6.7523   555.4    5.086      54.958
2014   11       10     4   7    6.7530   555.6    5.070      54.858
2014   11       10     4  12    6.7537   555.7    5.054      54.762
2014   11       10     4  17    6.7545   555.9    5.038      54.671
2014   11       10     4  22    6.7553   556.0    5.023      54.583
2014   11       10     4  27    6.7561   556.2    5.009      54.499
2014   11       10     4  32    6.7569   556.3    4.995      54.418
2014   11       10     4  37    6.7578   556.5    4.981      54.341
2014   11       10     4  42    6.7587   556.6    4.968      54.267
2014   11       10     4  47    6.7597   556.8    4.955      54.196
2014   11       10     4  52    6.7606   556.9    4.943      54.128
2014   11       10     4  57    6.7615   557.0    4.931      54.062
2014   11       10     5   2    6.7624   557.2    4.919      53.999
2014   11       10     5   7    6.7633   557.3    4.907      53.938
2014   11       10     5  12    6.7641   557.5    4.895      53.880
2014   11       10     5  17    6.7648   557.6    4.884      53.824
2014   11       10     5  22    6.7654   557.8    4.872      53.769
2014   11       10     5  27    6.7659   557.9    4.861      53.717
2014   11       10     5  31    6.7663   558.1    4.850      53.666
2014   11       10     5  36    6.7666   558.2    4.839      53.617
2014   11       10     5  41    6.7667   558.4    4.829      53.569
2014   11       10     5  46    6.7667   558.6    4.818      53.523
2014   11       10     5  51    6.7665   558.8    4.807      53.476
2014   11       10     5  56    6.7661   559.0    4.796      53.430
2014   11       10     6   1    6.7656   559.2    4.785      53.382
2014   11       10     6   6    6.7648   559.4    4.774      53.335
2014   11       10     6  11    6.7640   559.6    4.763      53.287
2014   11       10     6  16    6.7629   559.8    4.751      53.239
2014   11       10     6  21    6.7617   560.0    4.740      53.191
2014   11       10     6  26    6.7603   560.3    4.728      53.141
2014   11       10     6  31    6.7588   560.5    4.717      53.090
2014   11       10     6  36    6.7571   560.7    4.705      53.037
2014   11       10     6  41    6.7553   560.9    4.693      52.982
2014   11       10     6  46    6.7533   561.1    4.682      52.926
2014   11       10     6  51    6.7513   561.3    4.670      52.869
2014   11       10     6  56    6.7492   561.5    4.658      52.811
2014   11       10     7   1    6.7469   561.7    4.647      52.751
2014   11       10     7   6    6.7445   561.9    4.635      52.691
2014   11       10     7  11    6.7421   562.1    4.624      52.631
2014   11       10     7  16    6.7395   562.3    4.612      52.572
2014   11       10     7  21    6.7369   562.4    4.601      52.512
2014   11       10     7  26    6.7342   562.6    4.590      52.452
2014   11       10     7  31    6.7314   562.7    4.579      52.393
2014   11       10     7  36    6.7285   562.9    4.568      52.334
2014   11       10     7  40    6.7256   563.0    4.558      52.276
2014   11       10     7  45    6.7226   563.2    4.548      52.219
2014   11       10     7  50    6.7196   563.3    4.538      52.163
2014   11       10     7  55    6.7165   563.4    4.528      52.109
2014   11       10     8   0    6.7134   563.5    4.518      52.056
2014   11       10     8   5    6.7102   563.6    4.509      52.005
2014   11       10     8  10    6.7070   563.7    4.499      51.955
2014   11       10     8  15    6.7038   563.8    4.490      51.906
2014   11       10     8  20    6.7005   563.9    4.482      51.859
2014   11       10     8  25    6.6972   564.0    4.473      51.814
2014   11       10     8  30    6.6940   564.1    4.465      51.770
2014   11       10     8  35    6.6906   564.2    4.457      51.728
2014   11       10     8  40    6.6873   564.3    4.449      51.688
2014   11       10     8  45    6.6840   564.4    4.441      51.649
2014   11       10     8  50    6.6806   564.4    4.434      51.613
2014   11       10     8  55    6.6772   564.5    4.427      51.579
2014   11       10     9   0    6.6738   564.6    4.420      51.547
2014   11       10     9   5    6.6704   564.7    4.414      51.517
2014   11       10     9  10    6.6670   564.7    4.407      51.488
2014   11       10     9  15    6.6635   564.8    4.401      51.462
2014   11       10     9  20    6.6600   564.9    4.396      51.437
2014   11       10     9  25    6.6565   564.9    4.390      51.414
2014   11       10     9  30    6.6530   565.0    4.385      51.392
2014   11       10     9  35    6.6494   565.0    4.380      51.372
2014   11       10     9  40    6.6458   565.1    4.375      51.354
2014   11       10     9  45    6.6422   565.2    4.371      51.337
2014   11       10     9  50    6.6386   565.2    4.366      51.321
2014   11       10     9  54    6.6349   565.3    4.362      51.306
2014   11       10     9  59    6.6313   565.3    4.358      51.293
2014   11       10    10   4    6.6277   565.4    4.354      51.280
2014   11       10    10   9    6.6240   565.4    4.351      51.267
2014   11       10    10  14    6.6204   565.5    4.347      51.255
2014   11       10    10  19    6.6167   565.5    4.344      51.243
2014   11       10    10  24    6.6131   565.6    4.341      51.231
2014   11       10    10  29    6.6094   565.6    4.337      51.219
2014   11       10    10  34    6.6058   565.7    4.334      51.207
2014   11       10    10  39    6.6022   565.7    4.331      51.195
2014   11       10    10  44    6.5985   565.8    4.328      51.183
2014   11       10    10  49    6.5949   565.8    4.325      51.170
2014   11       10    10  54    6.5913   565.9    4.322      51.157
2014   11       10    10  59    6.5876   565.9    4.319      51.143
2014   11       10    11   4    6.5840   566.0    4.315      51.129
2014   11       10    11   9    6.5803   566.0    4.312      51.115
2014   11       10    11  14    6.5767   566.1    4.309      51.100
2014   11       10    11  19    6.5730   566.1    4.306      51.084
2014   11       10    11  24    6.5694   566.2    4.303      51.068
2014   11       10    11  29    6.5657   566.2    4.300      51.052
2014   11       10    11  34    6.5621   566.2    4.297      51.035
2014   11       10    11  39    6.5584   566.3    4.294      51.019
2014   11       10    11  44    6.5548   566.3    4.291      51.002
2014   11       10    11  49    6.5512   566.3    4.289      50.985
2014   11       10    11  54    6.5476   566.3    4.286      50.968
2014   11       10    11  59    6.5440   566.4    4.283      50.950
2014   11       10    12   3    6.5404   566.4    4.280      50.933
2014   11       10    12   8    6.5368   566.4    4.278      50.916
2014   11       10    12  13    6.5332   566.4    4.275      50.899
2014   11       10    12  18    6.5297   566.4    4.273      50.883
2014   11       10    12  23    6.5262   566.4    4.270      50.866
2014   11       10    12  28    6.5227   566.4    4.268      50.850
2014   11       10    12  33    6.5192   566.4    4.266      50.834
2014   11       10    12  38    6.5157   566.4    4.264      50.818
2014   11       10    12  43    6.5122   566.5    4.262      50.803
2014   11       10    12  48    6.5088   566.4    4.260      50.788
2014   11       10    12  53    6.5054   566.4    4.259      50.773
2014   11       10    12  58    6.5019   566.4    4.257      50.759
2014   11       10    13   3    6.4985   566.4    4.256      50.745
2014   11       10    13   8    6.4952   566.4    4.254      50.731
2014   11       10    13  13    6.4918   566.4    4.253      50.718
2014   11       10    13  18    6.4884   566.4    4.252      50.705
2014   11       10    13  23    6.4851   566.4    4.251      50.693
2014   11       10    13  28    6.4818   566.4    4.250      50.681
2014   11       10    13  33    6.4785   566.3    4.249      50.670
2014   11       10    13  38    6.4753   566.3    4.248      50.658
2014   11       10    13  43    6.4720   566.3    4.247      50.647
2014   11       10    13  48    6.4688   566.3    4.246      50.636
2014   11       10    13  53    6.4657   566.3    4.246      50.624
2014   11       10    13  58    6.4625   566.3    4.245      50.613
2014   11       10    14   3    6.4594   566.2    4.244      50.601
2014   11       10    14   8    6.4563   566.2    4.244      50.589
2014   11       10    14  12    6.4533   566.2    4.243      50.577
2014   11       10    14  17    6.4503   566.2    4.242      50.565
2014   11       10    14  22    6.4474   566.2    4.241      50.552
2014   11       10    14  27    6.4444   566.1    4.240      50.540
2014   11       10    14  32    6.4415   566.1    4.240      50.526
2014   11       10    14  37    6.4387   566.1    4.239      50.512
2014   11       10    14  42    6.4359   566.1    4.238      50.498
2014   11       10    14  47    6.4331   566.0    4.237      50.484
2014   11       10    14  52    6.4303   566.0    4.236      50.469
2014   11       10    14  57    6.4276   566.0    4.235      50.453
2014   11       10    15   2    6.4248   566.0    4.234      50.438
2014   11       10    15   7    6.4221   565.9    4.232      50.421
2014   11       10    15  12    6.4195   565.9    4.231      50.405
2014   11       10    15  17    6.4168   565.9    4.230      50.388
2014   11       10    15  22    6.4141   565.9    4.229      50.371
2014   11       10    15  27    6.4115   565.8    4.228      50.354
2014   11       10    15  32    6.4088   565.8    4.226      50.336
2014   11       10    15  37    6.4062   565.8    4.225      50.318
2014   11       10    15  42    6.4036   565.7    4.224      50.300
2014   11       10    15  47    6.4009   565.7    4.223      50.281
2014   11       10    15  52    6.3983   565.7    4.221      50.262
2014   11       10    15  57    6.3957   565.6    4.220      50.243
2014   11       10    16   2    6.3931   565.6    4.219      50.223
2014   11       10    16   7    6.3904   565.6    4.217      50.203
2014   11       10    16  12    6.3878   565.5    4.216      50.183
2014   11       10    16  17    6.3851   565.5    4.214      50.162
2014   11       10    16  21    6.3825   565.5    4.213      50.141
2014   11       10    16  26    6.3799   565.4    4.211      50.120
2014   11       10    16  31    6.3772   565.4    4.210      50.099
2014   11       10    16  36    6.3746   565.4    4.208      50.077
2014   11       10    16  41    6.3719   565.3    4.207      50.055
2014   11       10    16  46    6.3693   565.3    4.205      50.032
2014   11       10    16  51    6.3666   565.3    4.203      50.009
2014   11       10    16  56    6.3640   565.2    4.202      49.986
2014   11       10    17   1    6.3613   565.2    4.200      49.963
2014   11       10    17   6    6.3587   565.1    4.198      49.939
2014   11       10    17  11    6.3560   565.1    4.197      49.916
2014   11       10    17  16    6.3534   565.0    4.195      49.891
2014   11       10    17  21    6.3507   565.0    4.193      49.867
2014   11       10    17  26    6.3481   565.0    4.192      49.842
2014   11       10    17  31    6.3454   564.9    4.190      49.817
2014   11       10    17  36    6.3428   564.9    4.188      49.792
2014   11       10    17  41    6.3401   564.8    4.186      49.766
2014   11       10    17  46    6.3375   564.8    4.185      49.741
2014   11       10    17  51    6.3348   564.7    4.183      49.715
2014   11       10    17  56    6.3321   564.7    4.181      49.689
2014   11       10    18   1    6.3295   564.6    4.179      49.662
2014   11       10    18   6    6.3268   564.6    4.177      49.636
2014   11       10    18  11    6.3241   564.5    4.176      49.609
2014   11       10    18  16    6.3214   564.5    4.174      49.582
2014   11       10    18  21    6.3187   564.4    4.172      49.555
2014   11       10    18  26    6.3160   564.3    4.170      49.528
2014   11       10    18  31    6.3133   564.3    4.169      49.500
2014   11       10    18  35    6.3106   564.2    4.167      49.472
2014   11       10    18  40    6.3079   564.2    4.165      49.445
2014   11       10    18  45    6.3051   564.1    4.163      49.417
2014   11       10    18  50    6.3024   564.0    4.161      49.389
2014   11       10    18  55    6.2996   564.0    4.160      49.360
2014   11       10    19   0    6.2969   563.9    4.158      49.332
2014   11       10    19   5    6.2941   563.9    4.156      49.303
2014   11       10    19  10    6.2914   563.8    4.155      49.275
2014   11       10    19  15    6.2886   563.7    4.153      49.246
2014   11       10    19  20    6.2858   563.7    4.151      49.217
2014   11       10    19  25    6.2830   563.6    4.150      49.188
2014   11       10    19  30    6.2803   563.5    4.148      49.159
2014   11       10    19  35    6.2775   563.5    4.147      49.130
2014   11       10    19  40    6.2747   563.4    4.145      49.101
2014   11       10    19  45    6.2719   563.3    4.144      49.071
2014   11       10    19  50    6.2691   563.2    4.142      49.042
2014   11       10    19  55    6.2662   563.2    4.141      49.012
2014   11       10    20   0    6.2634   563.1    4.140      48.983
2014   11       10    20   5    6.2606   563.0    4.138      48.953
2014   11       10    20  10    6.2578   562.9    4.137      48.924
2014   11       10    20  15    6.2550   562.9    4.136      48.894
2014   11       10    20  20    6.2522   562.8    4.135      48.864
2014   11       10    20  25    6.2494   562.7    4.134      48.834
2014   11       10    20  30    6.2465   562.6    4.133      48.805
2014   11       10    20  35    6.2437   562.5    4.132      48.775
2014   11       10    20  40    6.2409   562.5    4.131      48.745
2014   11       10    20  44    6.2381   562.4    4.130      48.715
2014   11       10    20  49    6.2353   562.3    4.129      48.685
2014   11       10    20  54    6.2325   562.2    4.128      48.655
2014   11       10    20  59    6.2297   562.1    4.128      48.625
2014   11       10    21   4    6.2270   562.0    4.127      48.595
2014   11       10    21   9    6.2242   561.9    4.127      48.565
2014   11       10    21  14    6.2214   561.9    4.126      48.535
2014   11       10    21  19    6.2187   561.8    4.126      48.505
2014   11       10    21  24    6.2159   561.7    4.125      48.475
2014   11       10    21  29    6.2132   561.6    4.125      48.445
2014   11       10    21  34    6.2105   561.5    4.125      48.415
2014   11       10    21  39    6.2078   561.4    4.125      48.385
2014   11       10    21  44    6.2051   561.3    4.125      48.355
2014   11       10    21  49    6.2024   561.2    4.125      48.325
2014   11       10    21  54    6.1997   561.1    4.125      48.295
2014   11       10    21  59    6.1970   561.0    4.125      48.265
2014   11       10    22   4    6.1944   560.9    4.125      48.234
2014   11       10    22   9    6.1917   560.8    4.125      48.204
2014   11       10    22  14    6.1891   560.7    4.125      48.173
2014   11       10    22  19    6.1865   560.6    4.126      48.143
2014   11       10    22  24    6.1839   560.5    4.126      48.112
2014   11       10    22  29    6.1813   560.4    4.126      48.080
2014   11       10    22  34    6.1787   560.3    4.127      48.049
2014   11       10    22  39    6.1761   560.2    4.127      48.017
2014   11       10    22  44    6.1735   560.1    4.127      47.985
2014   11       10    22  49    6.1710   560.0    4.128      47.953
2014   11       10    22  53    6.1684   559.9    4.128      47.920
2014   11       10    22  58    6.1659   559.8    4.129      47.888
2014   11       10    23   3    6.1634   559.7    4.129      47.855
2014   11       10    23   8    6.1609   559.6    4.129      47.821
2014   11       10    23  13    6.1584   559.5    4.130      47.787
2014   11       10    23  18    6.1559   559.4    4.130      47.753
2014   11       10    23  23    6.1535   559.3    4.131      47.719
2014   11       10    23  28    6.1510   559.1    4.131      47.685
2014   11       10    23  33    6.1486   559.0    4.131      47.650
2014   11       10    23  38    6.1462   558.9    4.131      47.615
2014   11       10    23  43    6.1437   558.8    4.132      47.579
2014   11       10    23  48    6.1413   558.7    4.132      47.543
2014   11       10    23  53    6.1389   558.6    4.132      47.507
2014   11       10    23  58    6.1365   558.5    4.132      47.470
2014   11       11     0   3    6.1341   558.4    4.132      47.433
2014   11       11     0   8    6.1317   558.3    4.132      47.395
2014   11       11     0  13    6.1293   558.2    4.132      47.357
2014   11       11     0  18    6.1269   558.1    4.132      47.319
2014   11       11     0  23    6.1244   558.0    4.132      47.280
2014   11       11     0  28    6.1220   557.9    4.131      47.241
2014   11       11     0  33    6.1196   557.8    4.131      47.201
2014   11       11     0  38    6.1172   557.6    4.131      47.161
2014   11       11     0  43    6.1148   557.5    4.130      47.121
2014   11       11     0  48    6.1123   557.4    4.130      47.080
2014   11       11     0  53    6.1099   557.3    4.130      47.039
2014   11       11     0  58    6.1075   557.2    4.129      46.998
2014   11       11     1   3    6.1050   557.1    4.129      46.956
2014   11       11     1   7    6.1026   557.0    4.128      46.914
2014   11       11     1  12    6.1001   556.9    4.128      46.871
2014   11       11     1  17    6.0976   556.8    4.127      46.828
2014   11       11     1  22    6.0952   556.7    4.126      46.785
2014   11       11     1  27    6.0927   556.5    4.126      46.742
2014   11       11     1  32    6.0902   556.4    4.125      46.698
2014   11       11     1  37    6.0878   556.3    4.124      46.654
2014   11       11     1  42    6.0853   556.2    4.124      46.609
2014   11       11     1  47    6.0828   556.1    4.123      46.565
2014   11       11     1  52    6.0803   556.0    4.122      46.520
2014   11       11     1  57    6.0778   555.9    4.121      46.475
2014   11       11     2   2    6.0753   555.7    4.120      46.429
2014   11       11     2   7    6.0728   555.6    4.119      46.384
2014   11       11     2  12    6.0703   555.5    4.119      46.338
2014   11       11     2  17    6.0678   555.4    4.118      46.291
2014   11       11     2  22    6.0653   555.3    4.117      46.245
2014   11       11     2  27    6.0627   555.2    4.116      46.198
2014   11       11     2  32    6.0602   555.1    4.115      46.151
2014   11       11     2  37    6.0577   554.9    4.114      46.104
2014   11       11     2  42    6.0552   554.8    4.113      46.056
2014   11       11     2  47    6.0527   554.7    4.112      46.008
2014   11       11     2  52    6.0501   554.6    4.110      45.960
2014   11       11     2  57    6.0476   554.5    4.109      45.912
2014   11       11     3   2    6.0451   554.3    4.108      45.863
2014   11       11     3   7    6.0426   554.2    4.107      45.814
2014   11       11     3  12    6.0400   554.1    4.106      45.765
2014   11       11     3  16    6.0375   554.0    4.105      45.716
2014   11       11     3  21    6.0350   553.8    4.104      45.666
2014   11       11     3  26    6.0324   553.7    4.102      45.616
2014   11       11     3  31    6.0299   553.6    4.101      45.566
2014   11       11     3  36    6.0274   553.5    4.100      45.516
2014   11       11     3  41    6.0248   553.3    4.099      45.465
2014   11       11     3  46    6.0223   553.2    4.098      45.415
2014   11       11     3  51    6.0198   553.1    4.097      45.364
2014   11       11     3  56    6.0173   552.9    4.095      45.313
2014   11       11     4   1    6.0148   552.8    4.094      45.262
2014   11       11     4   6    6.0122   552.7    4.093      45.210
2014   11       11     4  11    6.0097   552.5    4.092      45.159
2014   11       11     4  16    6.0072   552.4    4.091      45.108
2014   11       11     4  21    6.0047   552.3    4.090      45.056
2014   11       11     4  26    6.0022   552.1    4.089      45.005
2014   11       11     4  31    5.9997   552.0    4.088      44.954
2014   11       11     4  36    5.9973   551.9    4.087      44.902
2014   11       11     4  41    5.9948   551.7    4.086      44.851
2014   11       11     4  46    5.9923   551.6    4.085      44.800
2014   11       11     4  51    5.9899   551.4    4.084      44.749
2014   11       11     4  56    5.9874   551.3    4.083      44.698
2014   11       11     5   1    5.9850   551.2    4.082      44.648
2014   11       11     5   6    5.9826   551.0    4.081      44.597
2014   11       11     5  11    5.9802   550.9    4.080      44.547
2014   11       11     5  16    5.9778   550.7    4.080      44.497
2014   11       11     5  20    5.9754   550.6    4.079      44.447
2014   11       11     5  25    5.9730   550.5    4.079      44.397
2014   11       11     5  30    5.9707   550.3    4.078      44.347
2014   11       11     5  35    5.9684   550.2    4.078      44.298
2014   11       11     5  40    5.9660   550.0    4.077      44.249
2014   11       11     5  45    5.9637   549.9    4.077      44.200
2014   11       11     5  50    5.9614   549.7    4.077      44.151
2014   11       11     5  55    5.9591   549.6    4.076      44.103
2014   11       11     6   0    5.9569   549.4    4.076      44.054
2014   11       11     6   5    5.9546   549.3    4.076      44.005
2014   11       11     6  10    5.9524   549.1    4.076      43.956
2014   11       11     6  15    5.9501   549.0    4.076      43.907
2014   11       11     6  20    5.9479   548.9    4.076      43.858
2014   11       11     6  25    5.9457   548.7    4.076      43.809
2014   11       11     6  30    5.9434   548.6    4.076      43.759
2014   11       11     6  35    5.9412   548.4    4.077      43.709
2014   11       11     6  40    5.9390   548.2    4.077      43.658
2014   11       11     6  45    5.9368   548.1    4.077      43.607
2014   11       11     6  50    5.9346   547.9    4.077      43.556
2014   11       11     6  55    5.9325   547.8    4.077      43.505
2014   11       11     7   0    5.9303   547.6    4.078      43.453
2014   11       11     7   5    5.9281   547.5    4.078      43.400
2014   11       11     7  10    5.9260   547.3    4.078      43.348
2014   11       11     7  15    5.9238   547.2    4.079      43.295
2014   11       11     7  20    5.9217   547.0    4.079      43.242
2014   11       11     7  25    5.9195   546.8    4.079      43.188
2014   11       11     7  30    5.9174   546.7    4.080      43.134
2014   11       11     7  34    5.9153   546.5    4.080      43.080
2014   11       11     7  39    5.9132   546.4    4.081      43.026
2014   11       11     7  44    5.9111   546.2    4.081      42.971
2014   11       11     7  49    5.9090   546.0    4.081      42.917
2014   11       11     7  54    5.9069   545.9    4.082      42.862
2014   11       11     7  59    5.9049   545.7    4.082      42.807
2014   11       11     8   4    5.9028   545.5    4.083      42.751
2014   11       11     8   9    5.9008   545.4    4.083      42.696
2014   11       11     8  14    5.8987   545.2    4.084      42.640
2014   11       11     8  19    5.8967   545.0    4.084      42.584
2014   11       11     8  24    5.8946   544.9    4.084      42.527
2014   11       11     8  29    5.8926   544.7    4.085      42.471
2014   11       11     8  34    5.8906   544.5    4.085      42.414
2014   11       11     8  39    5.8886   544.4    4.086      42.358
2014   11       11     8  44    5.8866   544.2    4.086      42.301
2014   11       11     8  49    5.8846   544.0    4.087      42.244
2014   11       11     8  54    5.8826   543.8    4.087      42.187
2014   11       11     8  59    5.8806   543.7    4.088      42.130
2014   11       11     9   4    5.8786   543.5    4.088      42.072
2014   11       11     9   9    5.8766   543.3    4.089      42.015
2014   11       11     9  14    5.8747   543.2    4.089      41.958
2014   11       11     9  19    5.8727   543.0    4.090      41.901
2014   11       11     9  24    5.8708   542.8    4.090      41.843
2014   11       11     9  29    5.8688   542.6    4.091      41.786
2014   11       11     9  34    5.8669   542.4    4.092      41.729
2014   11       11     9  39    5.8649   542.3    4.092      41.672
2014   11       11     9  43    5.8630   542.1    4.093      41.615
2014   11       11     9  48    5.8611   541.9    4.093      41.559
2014   11       11     9  53    5.8592   541.7    4.094      41.502
2014   11       11     9  58    5.8573   541.6    4.094      41.445
2014   11       11    10   3    5.8554   541.4    4.095      41.389
2014   11       11    10   8    5.8535   541.2    4.096      41.333
2014   11       11    10  13    5.8517   541.0    4.096      41.277
2014   11       11    10  18    5.8498   540.8    4.097      41.221
2014   11       11    10  23    5.8480   540.7    4.098      41.165
2014   11       11    10  28    5.8461   540.5    4.098      41.109
2014   11       11    10  33    5.8443   540.3    4.099      41.053
2014   11       11    10  38    5.8424   540.1    4.099      40.998
2014   11       11    10  43    5.8406   540.0    4.100      40.942
2014   11       11    10  48    5.8388   539.8    4.101      40.887
2014   11       11    10  53    5.8369   539.6    4.101      40.831
2014   11       11    10  58    5.8351   539.4    4.102      40.776
2014   11       11    11   3    5.8332   539.2    4.102      40.720
2014   11       11    11   8    5.8314   539.0    4.103      40.665
2014   11       11    11  13    5.8295   538.9    4.103      40.609
2014   11       11    11  18    5.8277   538.7    4.104      40.554
2014   11       11    11  23    5.8259   538.5    4.104      40.498
2014   11       11    11  28    5.8240   538.3    4.104      40.442
2014   11       11    11  33    5.8222   538.1    4.105      40.386
2014   11       11    11  38    5.8204   537.9    4.105      40.331
2014   11       11    11  43    5.8185   537.8    4.105      40.275
2014   11       11    11  48    5.8167   537.6    4.106      40.219
2014   11       11    11  52    5.8149   537.4    4.106      40.163
2014   11       11    11  57    5.8131   537.2    4.106      40.107
2014   11       11    12   2    5.8113   537.0    4.106      40.051
2014   11       11    12   7    5.8095   536.8    4.106      39.995
2014   11       11    12  12    5.8077   536.6    4.106      39.939
2014   11       11    12  17    5.8059   536.4    4.106      39.883
2014   11       11    12  22    5.8042   536.3    4.106      39.827
2014   11       11    12  27    5.8024   536.1    4.106      39.772
2014   11       11    12  32    5.8006   535.9    4.106      39.716
2014   11       11    12  37    5.7989   535.7    4.106      39.660
2014   11       11    12  42    5.7971   535.5    4.106      39.604
2014   11       11    12  47    5.7954   535.3    4.106      39.548
2014   11       11    12  52    5.7937   535.1    4.106      39.492
2014   11       11    12  57    5.7920   534.9    4.105      39.436
2014   11       11    13   2    5.7903   534.7    4.105      39.380
2014   11       11    13   7    5.7886   534.5    4.105      39.324
2014   11       11    13  12    5.7869   534.3    4.105      39.268
2014   11       11    13  17    5.7852   534.1    4.104      39.213
2014   11       11    13  22    5.7835   533.9    4.104      39.157
2014   11       11    13  27    5.7818   533.7    4.104      39.101
2014   11       11    13  32    5.7801   533.5    4.103      39.045
2014   11       11    13  37    5.7785   533.3    4.103      38.989
2014   11       11    13  42    5.7768   533.1    4.103      38.933
2014   11       11    13  47    5.7752   532.9    4.102      38.877
2014   11       11    13  52    5.7735   532.7    4.102      38.821
2014   11       11    13  56    5.7719   532.5    4.102      38.766
2014   11       11    14   1    5.7703   532.3    4.102      38.710
2014   11       11    14   6    5.7686   532.1    4.101      38.654
2014   11       11    14  11    5.7670   531.9    4.101      38.598
2014   11       11    14  16    5.7654   531.7    4.101      38.543
2014   11       11    14  21    5.7638   531.5    4.100      38.487
2014   11       11    14  26    5.7622   531.3    4.100      38.431
2014   11       11    14  31    5.7606   531.1    4.100      38.375
2014   11       11    14  36    5.7589   530.9    4.100      38.319
2014   11       11    14  41    5.7574   530.7    4.100      38.264
2014   11       11    14  46    5.7558   530.5    4.099      38.208
2014   11       11    14  51    5.7542   530.3    4.099      38.152
2014   11       11    14  56    5.7526   530.1    4.099      38.096
2014   11       11    15   1    5.7510   529.9    4.099      38.040
2014   11       11    15   6    5.7494   529.6    4.099      37.984
2014   11       11    15  11    5.7478   529.4    4.099      37.928
2014   11       11    15  16    5.7463   529.2    4.099      37.872
2014   11       11    15  21    5.7447   529.0    4.099      37.816
2014   11       11    15  26    5.7431   528.8    4.099      37.760
2014   11       11    15  31    5.7415   528.6    4.099      37.703
2014   11       11    15  36    5.7400   528.4    4.099      37.647
2014   11       11    15  41    5.7384   528.1    4.099      37.591
2014   11       11    15  46    5.7369   527.9    4.100      37.535
2014   11       11    15  51    5.7353   527.7    4.100      37.478
2014   11       11    15  56    5.7338   527.5    4.100      37.422
2014   11       11    16   1    5.7323   527.2    4.101      37.366
2014   11       11    16   6    5.7307   527.0    4.101      37.311
2014   11       11    16  10    5.7292   526.8    4.101      37.255
2014   11       11    16  15    5.7277   526.5    4.102      37.199
2014   11       11    16  20    5.7262   526.3    4.103      37.144
2014   11       11    16  25    5.7248   526.1    4.103      37.090
2014   11       11    16  30    5.7233   525.8    4.104      37.035
2014   11       11    16  35    5.7219   525.6    4.105      36.981
2014   11       11    16  40    5.7204   525.4    4.106      36.927
2014   11       11    16  45    5.7190   525.1    4.107      36.874
2014   11       11    16  50    5.7176   524.9    4.108      36.821
2014   11       11    16  55    5.7163   524.6    4.110      36.769
2014   11       11    17   0    5.7149   524.4    4.111      36.717
2014   11       11    17   5    5.7136   524.2    4.113      36.666
2014   11       11    17  10    5.7123   523.9    4.114      36.616
2014   11       11    17  15    5.7111   523.7    4.116      36.566
2014   11       11    17  20    5.7098   523.4    4.118      36.516
2014   11       11    17  25    5.7086   523.2    4.120      36.467
2014   11       11    17  30    5.7074   522.9    4.122      36.419
2014   11       11    17  35    5.7062   522.7    4.124      36.371
2014   11       11    17  40    5.7050   522.5    4.126      36.324
2014   11       11    17  45    5.7038   522.2    4.129      36.277
2014   11       11    17  50    5.7027   522.0    4.131      36.230
2014   11       11    17  55    5.7015   521.7    4.133      36.184
2014   11       11    18   0    5.7004   521.5    4.136      36.138
2014   11       11    18   5    5.6992   521.2    4.139      36.093
2014   11       11    18  10    5.6981   521.0    4.141      36.047
2014   11       11    18  15    5.6970   520.7    4.144      36.002
2014   11       11    18  19    5.6959   520.5    4.147      35.957
2014   11       11    18  24    5.6947   520.2    4.150      35.912
2014   11       11    18  29    5.6936   520.0    4.152      35.868
2014   11       11    18  34    5.6925   519.7    4.155      35.823
2014   11       11    18  39    5.6914   519.5    4.158      35.779
2014   11       11    18  44    5.6903   519.2    4.161      35.734
2014   11       11    18  49    5.6892   519.0    4.163      35.689
2014   11       11    18  54    5.6881   518.7    4.166      35.645
2014   11       11    18  59    5.6870   518.5    4.169      35.600
2014   11       11    19   4    5.6859   518.2    4.172      35.555
2014   11       11    19   9    5.6848   518.0    4.174      35.510
2014   11       11    19  14    5.6837   517.7    4.177      35.466
2014   11       11    19  19    5.6827   517.5    4.180      35.421
2014   11       11    19  24    5.6816   517.2    4.182      35.376
2014   11       11    19  29    5.6806   517.0    4.185      35.330
2014   11       11    19  34    5.6795   516.7    4.187      35.285
2014   11       11    19  39    5.6785   516.5    4.190      35.240
2014   11       11    19  44    5.6775   516.2    4.192      35.194
2014   11       11    19  49    5.6764   515.9    4.195      35.149
2014   11       11    19  54    5.6754   515.7    4.197      35.104
2014   11       11    19  59    5.6745   515.4    4.199      35.058
2014   11       11    20   4    5.6735   515.2    4.202      35.013
2014   11       11    20   9    5.6725   514.9    4.204      34.967
2014   11       11    20  14    5.6716   514.6    4.206      34.922
2014   11       11    20  19    5.6707   514.4    4.209      34.876
2014   11       11    20  23    5.6698   514.1    4.211      34.831
2014   11       11    20  28    5.6689   513.9    4.213      34.786
2014   11       11    20  33    5.6680   513.6    4.215      34.741
2014   11       11    20  38    5.6672   513.3    4.217      34.696
2014   11       11    20  43    5.6664   513.1    4.220      34.651
2014   11       11    20  48    5.6656   512.8    4.222      34.607
2014   11       11    20  53    5.6648   512.5    4.224      34.562
2014   11       11    20  58    5.6640   512.3    4.226      34.518
2014   11       11    21   3    5.6633   512.0    4.229      34.474
2014   11       11    21   8    5.6626   511.7    4.231      34.430
2014   11       11    21  13    5.6619   511.5    4.233      34.386
2014   11       11    21  18    5.6612   511.2    4.235      34.343
2014   11       11    21  23    5.6605   511.0    4.237      34.300
2014   11       11    21  28    5.6599   510.7    4.240      34.257
2014   11       11    21  33    5.6593   510.4    4.242      34.214
2014   11       11    21  38    5.6587   510.2    4.244      34.171
2014   11       11    21  43    5.6581   509.9    4.246      34.129
2014   11       11    21  48    5.6575   509.6    4.249      34.086
2014   11       11    21  53    5.6569   509.4    4.251      34.044
2014   11       11    21  58    5.6564   509.1    4.253      34.002
2014   11       11    22   3    5.6558   508.8    4.255      33.960
2014   11       11    22   8    5.6553   508.5    4.258      33.919
2014   11       11    22  13    5.6548   508.3    4.260      33.877
2014   11       11    22  18    5.6543   508.0    4.262      33.836
2014   11       11    22  23    5.6538   507.7    4.265      33.794
2014   11       11    22  28    5.6533   507.5    4.267      33.753
2014   11       11    22  32    5.6528   507.2    4.269      33.712
2014   11       11    22  37    5.6524   506.9    4.271      33.671
2014   11       11    22  42    5.6519   506.6    4.274      33.630
2014   11       11    22  47    5.6515   506.4    4.276      33.589
2014   11       11    22  52    5.6511   506.1    4.278      33.548
2014   11       11    22  57    5.6507   505.8    4.280      33.507
2014   11       11    23   2    5.6503   505.5    4.283      33.466
2014   11       11    23   7    5.6499   505.3    4.285      33.426
2014   11       11    23  12    5.6496   505.0    4.287      33.385
2014   11       11    23  17    5.6493   504.7    4.290      33.345
2014   11       11    23  22    5.6489   504.4    4.292      33.304
2014   11       11    23  27    5.6487   504.1    4.294      33.264
2014   11       11    23  32    5.6484   503.8    4.297      33.224
2014   11       11    23  37    5.6482   503.6    4.299      33.184
2014   11       11    23  42    5.6479   503.3    4.302      33.144
2014   11       11    23  47    5.6477   503.0    4.304      33.104
2014   11       11    23  52    5.6476   502.7    4.307      33.064
2014   11       11    23  57    5.6475   502.4    4.309      33.025
2014   11       12     0   2    5.6473   502.1    4.312      32.986
2014   11       12     0   7    5.6473   501.8    4.315      32.947
2014   11       12     0  12    5.6472   501.6    4.318      32.908
2014   11       12     0  17    5.6472   501.3    4.321      32.870
2014   11       12     0  22    5.6473   501.0    4.324      32.832
2014   11       12     0  27    5.6473   500.7    4.327      32.794
2014   11       12     0  32    5.6474   500.4    4.330      32.756
2014   11       12     0  37    5.6476   500.1    4.333      32.719
2014   11       12     0  42    5.6477   499.8    4.336      32.682
2014   11       12     0  46    5.6479   499.5    4.340      32.646
2014   11       12     0  51    5.6482   499.2    4.343      32.609
2014   11       12     0  56    5.6485   498.9    4.347      32.573
2014   11       12     1   1    5.6488   498.7    4.351      32.538
2014   11       12     1   6    5.6491   498.4    4.354      32.502
2014   11       12     1  11    5.6495   498.1    4.358      32.467
2014   11       12     1  16    5.6499   497.8    4.362      32.432
2014   11       12     1  21    5.6503   497.5    4.366      32.398
2014   11       12     1  26    5.6508   497.2    4.371      32.363
2014   11       12     1  31    5.6513   496.9    4.375      32.329
2014   11       12     1  36    5.6518   496.6    4.379      32.296
2014   11       12     1  41    5.6524   496.3    4.384      32.262
2014   11       12     1  46    5.6530   496.1    4.388      32.229
2014   11       12     1  51    5.6536   495.8    4.393      32.196
2014   11       12     1  56    5.6543   495.5    4.398      32.163
2014   11       12     2   1    5.6549   495.2    4.403      32.130
2014   11       12     2   6    5.6557   494.9    4.408      32.097
2014   11       12     2  11    5.6564   494.6    4.413      32.065
2014   11       12     2  16    5.6572   494.3    4.418      32.033
2014   11       12     2  21    5.6579   494.0    4.423      32.001
2014   11       12     2  26    5.6588   493.7    4.428      31.969
2014   11       12     2  31    5.6596   493.4    4.434      31.937
2014   11       12     2  36    5.6605   493.2    4.439      31.906
2014   11       12     2  41    5.6614   492.9    4.445      31.875
2014   11       12     2  46    5.6624   492.6    4.450      31.844
2014   11       12     2  50    5.6634   492.3    4.456      31.813
2014   11       12     2  55    5.6645   492.0    4.462      31.782
2014   11       12     3   0    5.6655   491.7    4.468      31.752
2014   11       12     3   5    5.6666   491.4    4.474      31.722
2014   11       12     3  10    5.6678   491.1    4.480      31.692
2014   11       12     3  15    5.6690   490.8    4.486      31.662
2014   11       12     3  20    5.6702   490.5    4.492      31.633
2014   11       12     3  25    5.6715   490.2    4.499      31.604
2014   11       12     3  30    5.6729   489.9    4.505      31.575
2014   11       12     3  35    5.6742   489.6    4.512      31.547
2014   11       12     3  40    5.6757   489.4    4.519      31.519
2014   11       12     3  45    5.6771   489.1    4.525      31.492
2014   11       12     3  50    5.6786   488.8    4.532      31.464
2014   11       12     3  55    5.6802   488.5    4.539      31.437
2014   11       12     4   0    5.6818   488.2    4.546      31.411
2014   11       12     4   5    5.6835   487.9    4.554      31.385
2014   11       12     4  10    5.6852   487.6    4.561      31.359
2014   11       12     4  15    5.6869   487.4    4.568      31.334
2014   11       12     4  20    5.6887   487.1    4.576      31.309
2014   11       12     4  25    5.6906   486.8    4.583      31.284
2014   11       12     4  30    5.6924   486.5    4.591      31.260
2014   11       12     4  35    5.6943   486.2    4.599      31.236
2014   11       12     4  40    5.6963   486.0    4.607      31.212
2014   11       12     4  45    5.6983   485.7    4.614      31.189
2014   11       12     4  50    5.7003   485.4    4.622      31.165
2014   11       12     4  54    5.7024   485.1    4.630      31.142
2014   11       12     4  59    5.7045   484.9    4.638      31.120
2014   11       12     5   4    5.7066   484.6    4.646      31.097
2014   11       12     5   9    5.7088   484.3    4.654      31.075
2014   11       12     5  14    5.7110   484.1    4.662      31.052
2014   11       12     5  19    5.7132   483.8    4.669      31.030
2014   11       12     5  24    5.7155   483.5    4.677      31.008
2014   11       12     5  29    5.7178   483.3    4.685      30.986
2014   11       12     5  34    5.7201   483.0    4.693      30.964
2014   11       12     5  39    5.7224   482.7    4.701      30.943
2014   11       12     5  44    5.7248   482.5    4.708      30.921
2014   11       12     5  49    5.7273   482.2    4.716      30.899
2014   11       12     5  54    5.7297   481.9    4.724      30.878
2014   11       12     5  59    5.7322   481.7    4.731      30.856
2014   11       12     6   4    5.7347   481.4    4.739      30.835
2014   11       12     6   9    5.7372   481.2    4.746      30.814
2014   11       12     6  14    5.7398   480.9    4.754      30.792
2014   11       12     6  19    5.7424   480.7    4.761      30.771
2014   11       12     6  24    5.7450   480.4    4.768      30.750
2014   11       12     6  29    5.7477   480.2    4.776      30.729
2014   11       12     6  34    5.7504   479.9    4.783      30.708
2014   11       12     6  39    5.7531   479.7    4.790      30.687
2014   11       12     6  44    5.7559   479.4    4.797      30.666
2014   11       12     6  49    5.7587   479.2    4.804      30.645
2014   11       12     6  54    5.7615   478.9    4.811      30.624
2014   11       12     6  59    5.7644   478.7    4.819      30.603
2014   11       12     7   4    5.7673   478.4    4.826      30.582
2014   11       12     7   8    5.7702   478.2    4.833      30.561
2014   11       12     7  13    5.7732   478.0    4.839      30.540
2014   11       12     7  18    5.7761   477.7    4.846      30.520
2014   11       12     7  23    5.7792   477.5    4.853      30.499
2014   11       12     7  28    5.7822   477.2    4.860      30.478
2014   11       12     7  33    5.7853   477.0    4.867      30.457
2014   11       12     7  38    5.7885   476.8    4.874      30.437
2014   11       12     7  43    5.7916   476.5    4.880      30.416
2014   11       12     7  48    5.7948   476.3    4.887      30.395
2014   11       12     7  53    5.7980   476.1    4.894      30.374
2014   11       12     7  58    5.8013   475.8    4.901      30.354
2014   11       12     8   3    5.8046   475.6    4.907      30.333
2014   11       12     8   8    5.8079   475.4    4.914      30.313
2014   11       12     8  13    5.8113   475.1    4.921      30.292
2014   11       12     8  18    5.8146   474.9    4.927      30.272
2014   11       12     8  23    5.8181   474.7    4.934      30.251
2014   11       12     8  28    5.8215   474.4    4.941      30.231
2014   11       12     8  33    5.8250   474.2    4.947      30.211
2014   11       12     8  38    5.8285   474.0    4.954      30.191
2014   11       12     8  43    5.8320   473.8    4.961      30.171
2014   11       12     8  48    5.8356   473.5    4.967      30.152
2014   11       12     8  53    5.8392   473.3    4.974      30.132
2014   11       12     8  58    5.8428   473.1    4.981      30.113
2014   11       12     9   3    5.8465   472.9    4.988      30.094
2014   11       12     9   8    5.8502   472.6    4.994      30.075
2014   11       12     9  13    5.8539   472.4    5.001      30.057
2014   11       12     9  17    5.8577   472.2    5.008      30.038
2014   11       12     9  22    5.8615   472.0    5.015      30.020
2014   11       12     9  27    5.8653   471.8    5.022      30.003
2014   11       12     9  32    5.8692   471.6    5.029      29.986
2014   11       12     9  37    5.8731   471.3    5.036      29.969
2014   11       12     9  42    5.8770   471.1    5.043      29.952
2014   11       12     9  47    5.8810   470.9    5.050      29.936
2014   11       12     9  52    5.8850   470.7    5.058      29.920
2014   11       12     9  57    5.8890   470.5    5.065      29.905
2014   11       12    10   2    5.8931   470.3    5.073      29.890
2014   11       12    10   7    5.8972   470.1    5.080      29.876
2014   11       12    10  12    5.9014   469.8    5.088      29.862
2014   11       12    10  17    5.9055   469.6    5.096      29.848
2014   11       12    10  22    5.9098   469.4    5.104      29.835
2014   11       12    10  27    5.9140   469.2    5.112      29.822
2014   11       12    10  32    5.9183   469.0    5.120      29.810
2014   11       12    10  37    5.9226   468.8    5.128      29.799
2014   11       12    10  42    5.9270   468.6    5.136      29.788
2014   11       12    10  47    5.9314   468.4    5.145      29.777
2014   11       12    10  52    5.9359   468.2    5.153      29.767
2014   11       12    10  57    5.9404   468.0    5.162      29.757
2014   11       12    11   2    5.9449   467.8    5.171      29.748
2014   11       12    11   7    5.9494   467.6    5.180      29.739
2014   11       12    11  12    5.9540   467.4    5.189      29.731
2014   11       12    11  17    5.9586   467.3    5.198      29.723
2014   11       12    11  21    5.9633   467.1    5.207      29.715
2014   11       12    11  26    5.9679   466.9    5.217      29.708
2014   11       12    11  31    5.9726   466.7    5.226      29.701
2014   11       12    11  36    5.9774   466.5    5.236      29.694
2014   11       12    11  41    5.9821   466.3    5.246      29.688
2014   11       12    11  46    5.9869   466.1    5.256      29.682
2014   11       12    11  51    5.9917   465.9    5.266      29.676
2014   11       12    11  56    5.9966   465.8    5.276      29.671
2014   11       12    12   1    6.0015   465.6    5.286      29.666
2014   11       12    12   6    6.0063   465.4    5.297      29.661
2014   11       12    12  11    6.0113   465.2    5.307      29.656
2014   11       12    12  16    6.0162   465.1    5.318      29.651
2014   11       12    12  21    6.0212   464.9    5.328      29.647
2014   11       12    12  26    6.0262   464.7    5.339      29.642
2014   11       12    12  31    6.0312   464.5    5.350      29.638
2014   11       12    12  36    6.0363   464.4    5.361      29.634
2014   11       12    12  41    6.0414   464.2    5.372      29.630
2014   11       12    12  46    6.0465   464.0    5.383      29.626
2014   11       12    12  51    6.0517   463.9    5.394      29.623
2014   11       12    12  56    6.0569   463.7    5.405      29.619
2014   11       12    13   1    6.0621   463.5    5.416      29.616
2014   11       12    13   6    6.0674   463.4    5.427      29.614
2014   11       12    13  11    6.0727   463.2    5.438      29.611
2014   11       12    13  16    6.0781   463.0    5.449      29.610
2014   11       12    13  21    6.0835   462.9    5.460      29.609
2014   11       12    13  26    6.0889   462.7    5.471      29.608
2014   11       12    13  30    6.0944   462.6    5.482      29.608
2014   11       12    13  35    6.0999   462.4    5.492      29.609
2014   11       12    13  40    6.1055   462.3    5.503      29.610
2014   11       12    13  45    6.1111   462.1    5.514      29.612
2014   11       12    13  50    6.1167   462.0    5.524      29.614
2014   11       12    13  55    6.1224   461.8    5.534      29.616
2014   11       12    14   0    6.1281   461.7    5.544      29.619
2014   11       12    14   5    6.1338   461.5    5.554      29.622
2014   11       12    14  10    6.1395   461.4    5.564      29.625
2014   11       12    14  15    6.1452   461.3    5.574      29.628
2014   11       12    14  20    6.1510   461.1    5.584      29.632
2014   11       12    14  25    6.1568   461.0    5.593      29.635
2014   11       12    14  30    6.1626   460.9    5.603      29.638
2014   11       12    14  35    6.1685   460.7    5.612      29.642
2014   11       12    14  40    6.1743   460.6    5.621      29.645
2014   11       12    14  45    6.1802   460.5    5.630      29.648
2014   11       12    14  50    6.1860   460.3    5.639      29.651
2014   11       12    14  55    6.1919   460.2    5.648      29.654
2014   11       12    15   0    6.1978   460.1    5.656      29.657
2014   11       12    15   5    6.2037   460.0    5.665      29.659
2014   11       12    15  10    6.2096   459.8    5.674      29.662
2014   11       12    15  15    6.2155   459.7    5.682      29.664
2014   11       12    15  20    6.2214   459.6    5.690      29.666
2014   11       12    15  25    6.2273   459.5    5.699      29.668
2014   11       12    15  30    6.2332   459.4    5.707      29.670
2014   11       12    15  35    6.2391   459.2    5.715      29.672
2014   11       12    15  40    6.2451   459.1    5.723      29.674
2014   11       12    15  44    6.2510   459.0    5.731      29.675
2014   11       12    15  49    6.2570   458.9    5.739      29.677
2014   11       12    15  54    6.2630   458.8    5.747      29.678
2014   11       12    15  59    6.2689   458.7    5.754      29.680
2014   11       12    16   4    6.2749   458.5    5.762      29.681
2014   11       12    16   9    6.2809   458.4    5.770      29.683
2014   11       12    16  14    6.2869   458.3    5.777      29.684
2014   11       12    16  19    6.2929   458.2    5.785      29.685
2014   11       12    16  24    6.2989   458.1    5.792      29.687
2014   11       12    16  29    6.3049   458.0    5.800      29.688
2014   11       12    16  34    6.3110   457.9    5.807      29.690
2014   11       12    16  39    6.3170   457.8    5.815      29.691
2014   11       12    16  44    6.3231   457.7    5.822      29.693
2014   11       12    16  49    6.3291   457.6    5.829      29.694
2014   11       12    16  54    6.3352   457.5    5.837      29.696
2014   11       12    16  59    6.3413   457.4    5.844      29.697
2014   11       12    17   4    6.3474   457.3    5.851      29.699
2014   11       12    17   9    6.3535   457.2    5.859      29.701
2014   11       12    17  14    6.3596   457.1    5.866      29.703
2014   11       12    17  19    6.3658   457.0    5.873      29.705
2014   11       12    17  24    6.3719   456.9    5.880      29.707
2014   11       12    17  29    6.3781   456.8    5.888      29.709
2014   11       12    17  34    6.3842   456.7    5.895      29.712
2014   11       12    17  39    6.3904   456.6    5.902      29.714
2014   11       12    17  44    6.3966   456.5    5.909      29.717
2014   11       12    17  48    6.4028   456.4    5.917      29.720
2014   11       12    17  53    6.4091   456.3    5.924      29.723
2014   11       12    17  58    6.4153   456.2    5.932      29.726
2014   11       12    18   3    6.4216   456.2    5.939      29.729
2014   11       12    18   8    6.4279   456.1    5.946      29.732
2014   11       12    18  13    6.4341   456.0    5.954      29.736
2014   11       12    18  18    6.4405   455.9    5.961      29.740
2014   11       12    18  23    6.4468   455.8    5.969      29.744
2014   11       12    18  28    6.4531   455.7    5.977      29.748
2014   11       12    18  33    6.4595   455.6    5.984      29.752
2014   11       12    18  38    6.4659   455.6    5.992      29.757
2014   11       12    18  43    6.4723   455.5    6.000      29.762
2014   11       12    18  48    6.4788   455.4    6.008      29.767
2014   11       12    18  53    6.4852   455.3    6.016      29.772
2014   11       12    18  58    6.4917   455.2    6.024      29.778
2014   11       12    19   3    6.4983   455.1    6.033      29.783
2014   11       12    19   8    6.5048   455.1    6.041      29.789
2014   11       12    19  13    6.5114   455.0    6.050      29.796
2014   11       12    19  18    6.5180   454.9    6.058      29.802
2014   11       12    19  23    6.5247   454.8    6.067      29.809
2014   11       12    19  28    6.5314   454.8    6.076      29.817
2014   11       12    19  33    6.5381   454.7    6.085      29.825
2014   11       12    19  38    6.5448   454.6    6.094      29.833
2014   11       12    19  43    6.5516   454.5    6.104      29.842
2014   11       12    19  48    6.5584   454.5    6.113      29.851
2014   11       12    19  53    6.5652   454.4    6.123      29.861
2014   11       12    19  57    6.5721   454.3    6.133      29.872
2014   11       12    20   2    6.5791   454.2    6.143      29.883
2014   11       12    20   7    6.5860   454.2    6.153      29.894
2014   11       12    20  12    6.5930   454.1    6.163      29.907
2014   11       12    20  17    6.6001   454.1    6.174      29.920
2014   11       12    20  22    6.6071   454.0    6.184      29.934
2014   11       12    20  27    6.6142   453.9    6.195      29.949
2014   11       12    20  32    6.6213   453.9    6.205      29.965
2014   11       12    20  37    6.6284   453.8    6.216      29.983
2014   11       12    20  42    6.6355   453.8    6.226      30.001
2014   11       12    20  47    6.6427   453.7    6.237      30.021
2014   11       12    20  52    6.6498   453.7    6.247      30.042
2014   11       12    20  57    6.6570   453.6    6.257      30.063
2014   11       12    21   2    6.6642   453.6    6.268      30.086
2014   11       12    21   7    6.6714   453.6    6.278      30.109
2014   11       12    21  12    6.6785   453.5    6.288      30.133
2014   11       12    21  17    6.6857   453.5    6.297      30.157
2014   11       12    21  22    6.6929   453.4    6.307      30.182
2014   11       12    21  27    6.7000   453.4    6.316      30.207
2014   11       12    21  32    6.7072   453.4    6.325      30.232
2014   11       12    21  37    6.7143   453.3    6.335      30.257
2014   11       12    21  42    6.7215   453.3    6.343      30.283
2014   11       12    21  47    6.7286   453.3    6.352      30.308
2014   11       12    21  52    6.7357   453.2    6.361      30.334
2014   11       12    21  57    6.7428   453.2    6.369      30.359
2014   11       12    22   2    6.7498   453.2    6.377      30.383
2014   11       12    22   6    6.7569   453.2    6.385      30.407
2014   11       12    22  11    6.7639   453.1    6.393      30.431
2014   11       12    22  16    6.7709   453.1    6.401      30.455
2014   11       12    22  21    6.7779   453.1    6.409      30.478
2014   11       12    22  26    6.7849   453.0    6.416      30.501
2014   11       12    22  31    6.7919   453.0    6.424      30.523
2014   11       12    22  36    6.7988   453.0    6.431      30.545
2014   11       12    22  41    6.8058   453.0    6.438      30.567
2014   11       12    22  46    6.8127   452.9    6.445      30.588
2014   11       12    22  51    6.8196   452.9    6.452      30.609
2014   11       12    22  56    6.8265   452.9    6.459      30.630
2014   11       12    23   1    6.8334   452.8    6.466      30.651
2014   11       12    23   6    6.8403   452.8    6.473      30.671
2014   11       12    23  11    6.8472   452.8    6.479      30.691
2014   11       12    23  16    6.8541   452.8    6.486      30.711
2014   11       12    23  21    6.8609   452.7    6.493      30.731
2014   11       12    23  26    6.8678   452.7    6.499      30.750
2014   11       12    23  31    6.8747   452.7    6.506      30.769
2014   11       12    23  36    6.8815   452.7    6.512      30.788
2014   11       12    23  41    6.8884   452.7    6.518      30.807
2014   11       12    23  46    6.8952   452.6    6.525      30.825
2014   11       12    23  51    6.9021   452.6    6.531      30.844
2014   11       12    23  56    6.9090   452.6    6.537      30.862
2014   11       13     0   1    6.9158   452.6    6.544      30.880
2014   11       13     0   6    6.9227   452.5    6.550      30.897
2014   11       13     0  11    6.9296   452.5    6.556      30.915
2014   11       13     0  15    6.9364   452.5    6.563      30.932
2014   11       13     0  20    6.9433   452.5    6.569      30.950
2014   11       13     0  25    6.9502   452.5    6.575      30.967
2014   11       13     0  30    6.9571   452.4    6.581      30.984
2014   11       13     0  35    6.9641   452.4    6.588      31.001
2014   11       13     0  40    6.9710   452.4    6.594      31.019
2014   11       13     0  45    6.9780   452.4    6.601      31.036
2014   11       13     0  50    6.9850   452.4    6.607      31.053
2014   11       13     0  55    6.9920   452.3    6.614      31.071
2014   11       13     1   0    6.9990   452.3    6.620      31.088
2014   11       13     1   5    7.0061   452.3    6.627      31.107
2014   11       13     1  10    7.0131   452.3    6.633      31.125
2014   11       13     1  15    7.0202   452.3    6.640      31.144
2014   11       13     1  20    7.0274   452.3    6.646      31.164
2014   11       13     1  25    7.0345   452.3    6.653      31.184
2014   11       13     1  30    7.0417   452.3    6.660      31.205
2014   11       13     1  35    7.0489   452.2    6.666      31.227
2014   11       13     1  40    7.0562   452.2    6.673      31.249
2014   11       13     1  45    7.0635   452.2    6.680      31.272
2014   11       13     1  50    7.0708   452.2    6.687      31.295
2014   11       13     1  55    7.0781   452.2    6.694      31.320
2014   11       13     2   0    7.0855   452.2    6.700      31.345
2014   11       13     2   5    7.0929   452.3    6.707      31.371
2014   11       13     2  10    7.1003   452.3    6.714      31.398
2014   11       13     2  15    7.1077   452.3    6.721      31.426
2014   11       13     2  19    7.1152   452.3    6.727      31.455
2014   11       13     2  24    7.1226   452.3    6.734      31.484
2014   11       13     2  29    7.1301   452.3    6.741      31.515
2014   11       13     2  34    7.1376   452.4    6.747      31.546
2014   11       13     2  39    7.1450   452.4    6.754      31.578
2014   11       13     2  44    7.1525   452.4    6.761      31.610
2014   11       13     2  49    7.1600   452.4    6.767      31.643
2014   11       13     2  54    7.1675   452.5    6.774      31.676
2014   11       13     2  59    7.1749   452.5    6.780      31.710
2014   11       13     3   4    7.1823   452.5    6.787      31.745
2014   11       13     3   9    7.1898   452.5    6.793      31.779
2014   11       13     3  14    7.1972   452.6    6.800      31.814
2014   11       13     3  19    7.2046   452.6    6.806      31.850
2014   11       13     3  24    7.2120   452.6    6.812      31.885
2014   11       13     3  29    7.2194   452.7    6.819      31.921
2014   11       13     3  34    7.2268   452.7    6.825      31.957
2014   11       13     3  39    7.2342   452.7    6.831      31.993
2014   11       13     3  44    7.2415   452.8    6.838      32.029
2014   11       13     3  49    7.2489   452.8    6.844      32.065
2014   11       13     3  54    7.2562   452.9    6.850      32.101
2014   11       13     3  59    7.2635   452.9    6.857      32.137
2014   11       13     4   4    7.2708   452.9    6.863      32.173
2014   11       13     4   9    7.2781   453.0    6.869      32.210
2014   11       13     4  14    7.2854   453.0    6.876      32.246
2014   11       13     4  19    7.2927   453.0    6.882      32.283
2014   11       13     4  24    7.2999   453.1    6.889      32.319
2014   11       13     4  29    7.3072   453.1    6.895      32.356
2014   11       13     4  33    7.3144   453.2    6.902      32.393
2014   11       13     4  38    7.3216   453.2    6.908      32.430
2014   11       13     4  43    7.3288   453.2    6.915      32.467
2014   11       13     4  48    7.3360   453.3    6.921      32.505
2014   11       13     4  53    7.3431   453.3    6.928      32.542
2014   11       13     4  58    7.3503   453.4    6.935      32.580
2014   11       13     5   3    7.3575   453.4    6.942      32.618
2014   11       13     5   8    7.3646   453.5    6.949      32.656
2014   11       13     5  13    7.3717   453.5    6.956      32.695
2014   11       13     5  18    7.3789   453.5    6.963      32.733
2014   11       13     5  23    7.3860   453.6    6.971      32.772
2014   11       13     5  28    7.3931   453.6    6.978      32.811
2014   11       13     5  33    7.4002   453.7    6.986      32.850
2014   11       13     5  38    7.4073   453.7    6.994      32.890
2014   11       13     5  43    7.4144   453.8    7.002      32.929
2014   11       13     5  48    7.4215   453.8    7.011      32.969
2014   11       13     5  53    7.4286   453.9    7.019      33.010
2014   11       13     5  58    7.4356   453.9    7.028      33.052
2014   11       13     6   3    7.4427   454.0    7.037      33.094
2014   11       13     6   8    7.4497   454.1    7.046      33.139
2014   11       13     6  13    7.4568   454.1    7.054      33.184
2014   11       13     6  18    7.4638   454.2    7.063      33.230
2014   11       13     6  23    7.4708   454.2    7.072      33.278
2014   11       13     6  28    7.4778   454.3    7.081      33.327
2014   11       13     6  33    7.4847   454.4    7.090      33.376
2014   11       13     6  38    7.4917   454.4    7.099      33.427
2014   11       13     6  42    7.4986   454.5    7.107      33.478
2014   11       13     6  47    7.5055   454.6    7.116      33.530
2014   11       13     6  52    7.5123   454.7    7.124      33.583
2014   11       13     6  57    7.5192   454.7    7.132      33.637
2014   11       13     7   2    7.5259   454.8    7.139      33.691
2014   11       13     7   7    7.5327   454.9    7.147      33.745
2014   11       13     7  12    7.5394   455.0    7.154      33.800
2014   11       13     7  17    7.5461   455.0    7.161      33.855
2014   11       13     7  22    7.5528   455.1    7.168      33.910
2014   11       13     7  27    7.5595   455.2    7.174      33.964
2014   11       13     7  32    7.5660   455.3    7.180      34.018
2014   11       13     7  37    7.5726   455.4    7.186      34.071
2014   11       13     7  42    7.5792   455.5    7.191      34.124
2014   11       13     7  47    7.5857   455.6    7.196      34.177
2014   11       13     7  52    7.5921   455.6    7.201      34.230
2014   11       13     7  57    7.5986   455.7    7.206      34.282
2014   11       13     8   2    7.6050   455.8    7.210      34.334
2014   11       13     8   7    7.6114   455.9    7.214      34.385
2014   11       13     8  12    7.6178   456.0    7.218      34.436
2014   11       13     8  17    7.6241   456.1    7.221      34.487
2014   11       13     8  22    7.6304   456.2    7.224      34.537
2014   11       13     8  27    7.6367   456.3    7.227      34.587
2014   11       13     8  32    7.6430   456.4    7.230      34.636
2014   11       13     8  37    7.6493   456.5    7.232      34.686
2014   11       13     8  41    7.6555   456.6    7.235      34.735
2014   11       13     8  46    7.6617   456.7    7.237      34.783
2014   11       13     8  51    7.6679   456.8    7.239      34.832
2014   11       13     8  56    7.6741   456.9    7.240      34.880
2014   11       13     9   1    7.6802   457.0    7.242      34.928
2014   11       13     9   6    7.6864   457.1    7.243      34.976
2014   11       13     9  11    7.6925   457.2    7.245      35.023
2014   11       13     9  16    7.6987   457.3    7.246      35.071
2014   11       13     9  21    7.7048   457.4    7.247      35.118
2014   11       13     9  26    7.7109   457.5    7.247      35.165
2014   11       13     9  31    7.7170   457.7    7.248      35.212
2014   11       13     9  36    7.7231   457.8    7.249      35.258
2014   11       13     9  41    7.7292   457.9    7.249      35.305
2014   11       13     9  46    7.7353   458.0    7.250      35.351
2014   11       13     9  51    7.7413   458.1    7.250      35.398
2014   11       13     9  56    7.7474   458.2    7.251      35.444
2014   11       13    10   1    7.7535   458.3    7.251      35.490
2014   11       13    10   6    7.7596   458.4    7.251      35.536
2014   11       13    10  11    7.7657   458.5    7.251      35.583
2014   11       13    10  16    7.7718   458.7    7.252      35.629
2014   11       13    10  21    7.7779   458.8    7.252      35.675
2014   11       13    10  26    7.7839   458.9    7.252      35.721
2014   11       13    10  31    7.7900   459.0    7.252      35.767
2014   11       13    10  36    7.7961   459.1    7.252      35.813
2014   11       13    10  41    7.8023   459.2    7.252      35.859
2014   11       13    10  46    7.8084   459.4    7.252      35.905
2014   11       13    10  51    7.8145   459.5    7.252      35.952
2014   11       13    10  55    7.8206   459.6    7.252      35.998
2014   11       13    11   0    7.8268   459.7    7.252      36.045
2014   11       13    11   5    7.8329   459.8    7.252      36.092
2014   11       13    11  10    7.8391   460.0    7.252      36.139
2014   11       13    11  15    7.8453   460.1    7.252      36.186
2014   11       13    11  20    7.8514   460.2    7.252      36.234
2014   11       13    11  25    7.8576   460.3    7.253      36.282
2014   11       13    11  30    7.8638   460.4    7.253      36.331
2014   11       13    11  35    7.8700   460.6    7.253      36.380
2014   11       13    11  40    7.8762   460.7    7.254      36.429
2014   11       13    11  45    7.8824   460.8    7.255      36.479
2014   11       13    11  50    7.8886   460.9    7.255      36.530
2014   11       13    11  55    7.8948   461.0    7.256      36.581
2014   11       13    12   0    7.9010   461.2    7.257      36.634
2014   11       13    12   5    7.9072   461.3    7.258      36.687
2014   11       13    12  10    7.9133   461.4    7.260      36.741
2014   11       13    12  15    7.9195   461.5    7.261      36.795
2014   11       13    12  20    7.9256   461.7    7.263      36.851
2014   11       13    12  25    7.9318   461.8    7.265      36.908
2014   11       13    12  30    7.9379   461.9    7.267      36.966
2014   11       13    12  35    7.9439   462.0    7.270      37.025
2014   11       13    12  40    7.9500   462.2    7.273      37.085
2014   11       13    12  45    7.9560   462.3    7.276      37.147
2014   11       13    12  50    7.9620   462.4    7.279      37.209
2014   11       13    12  55    7.9679   462.6    7.283      37.274
2014   11       13    13   0    7.9738   462.7    7.286      37.340
2014   11       13    13   5    7.9797   462.8    7.291      37.407
2014   11       13    13   9    7.9855   462.9    7.295      37.475
2014   11       13    13  14    7.9914   463.1    7.300      37.544
2014   11       13    13  19    7.9971   463.2    7.306      37.615
2014   11       13    13  24    8.0028   463.4    7.311      37.687
2014   11       13    13  29    8.0085   463.5    7.317      37.761
2014   11       13    13  34    8.0142   463.6    7.323      37.837
2014   11       13    13  39    8.0198   463.8    7.329      37.915
2014   11       13    13  44    8.0254   463.9    7.335      37.995
2014   11       13    13  49    8.0310   464.1    7.341      38.076
2014   11       13    13  54    8.0366   464.2    7.348      38.159
2014   11       13    13  59    8.0421   464.4    7.354      38.242
2014   11       13    14   4    8.0477   464.5    7.360      38.327
2014   11       13    14   9    8.0532   464.7    7.367      38.412
2014   11       13    14  14    8.0586   464.8    7.373      38.497
2014   11       13    14  19    8.0640   465.0    7.379      38.582
2014   11       13    14  24    8.0694   465.1    7.384      38.667
2014   11       13    14  29    8.0748   465.3    7.390      38.752
2014   11       13    14  34    8.0801   465.4    7.395      38.837
2014   11       13    14  39    8.0854   465.6    7.399      38.921
2014   11       13    14  44    8.0906   465.8    7.403      39.004
2014   11       13    14  49    8.0958   465.9    7.407      39.085
2014   11       13    14  54    8.1010   466.1    7.411      39.166
2014   11       13    14  59    8.1061   466.2    7.414      39.245
2014   11       13    15   4    8.1112   466.4    7.417      39.322
2014   11       13    15   9    8.1162   466.6    7.419      39.398
2014   11       13    15  13    8.1212   466.7    7.421      39.472
2014   11       13    15  18    8.1261   466.9    7.423      39.545
2014   11       13    15  23    8.1310   467.1    7.424      39.616
2014   11       13    15  28    8.1358   467.2    7.425      39.686
2014   11       13    15  33    8.1407   467.4    7.426      39.755
2014   11       13    15  38    8.1454   467.6    7.426      39.823
2014   11       13    15  43    8.1501   467.7    7.427      39.889
2014   11       13    15  48    8.1548   467.9    7.426      39.954
2014   11       13    15  53    8.1595   468.1    7.426      40.018
2014   11       13    15  58    8.1641   468.2    7.426      40.081
2014   11       13    16   3    8.1687   468.4    7.425      40.143
2014   11       13    16   8    8.1732   468.6    7.424      40.204
2014   11       13    16  13    8.1777   468.7    7.423      40.264
2014   11       13    16  18    8.1821   468.9    7.422      40.324
2014   11       13    16  23    8.1866   469.1    7.420      40.382
2014   11       13    16  28    8.1910   469.2    7.419      40.440
2014   11       13    16  33    8.1953   469.4    7.417      40.498
2014   11       13    16  38    8.1997   469.6    7.415      40.555
2014   11       13    16  43    8.2040   469.7    7.413      40.611
2014   11       13    16  48    8.2083   469.9    7.411      40.667
2014   11       13    16  53    8.2125   470.1    7.409      40.723
2014   11       13    16  58    8.2168   470.3    7.407      40.778
2014   11       13    17   3    8.2210   470.4    7.405      40.833
2014   11       13    17   8    8.2252   470.6    7.403      40.888
2014   11       13    17  13    8.2295   470.8    7.401      40.942
2014   11       13    17  17    8.2337   470.9    7.399      40.997
2014   11       13    17  22    8.2379   471.1    7.396      41.051
2014   11       13    17  27    8.2422   471.3    7.394      41.106
2014   11       13    17  32    8.2464   471.5    7.392      41.161
2014   11       13    17  37    8.2507   471.6    7.390      41.216
2014   11       13    17  42    8.2550   471.8    7.388      41.271
2014   11       13    17  47    8.2593   472.0    7.386      41.327
2014   11       13    17  52    8.2636   472.2    7.385      41.383
2014   11       13    17  57    8.2680   472.3    7.383      41.440
2014   11       13    18   2    8.2724   472.5    7.382      41.497
2014   11       13    18   7    8.2768   472.7    7.380      41.555
2014   11       13    18  12    8.2813   472.9    7.379      41.614
2014   11       13    18  17    8.2859   473.1    7.378      41.673
2014   11       13    18  22    8.2905   473.3    7.378      41.733
2014   11       13    18  27    8.2951   473.4    7.377      41.795
2014   11       13    18  32    8.2998   473.6    7.377      41.857
2014   11       13    18  37    8.3046   473.8    7.377      41.921
2014   11       13    18  42    8.3095   474.0    7.378      41.985
2014   11       13    18  47    8.3144   474.2    7.379      42.051
2014   11       13    18  52    8.3194   474.4    7.381      42.118
2014   11       13    18  57    8.3244   474.6    7.382      42.189
2014   11       13    19   2    8.3295   474.8    7.384      42.262
2014   11       13    19   7    8.3345   475.0    7.386      42.339
2014   11       13    19  12    8.3396   475.2    7.389      42.418
2014   11       13    19  17    8.3446   475.5    7.391      42.499
2014   11       13    19  22    8.3497   475.7    7.394      42.584
2014   11       13    19  27    8.3547   475.9    7.397      42.671
2014   11       13    19  31    8.3597   476.2    7.399      42.760
2014   11       13    19  36    8.3646   476.4    7.402      42.850
2014   11       13    19  41    8.3694   476.7    7.404      42.942
2014   11       13    19  46    8.3742   476.9    7.407      43.035
2014   11       13    19  51    8.3788   477.2    7.409      43.130
2014   11       13    19  56    8.3834   477.5    7.410      43.226
2014   11       13    20   1    8.3879   477.7    7.412      43.323
2014   11       13    20   6    8.3923   478.0    7.413      43.421
2014   11       13    20  11    8.3966   478.2    7.414      43.518
2014   11       13    20  16    8.4008   478.5    7.415      43.614
2014   11       13    20  21    8.4049   478.8    7.416      43.711
2014   11       13    20  26    8.4090   479.0    7.416      43.807
2014   11       13    20  31    8.4130   479.3    7.416      43.903
2014   11       13    20  36    8.4169   479.6    7.416      43.999
2014   11       13    20  41    8.4208   479.9    7.416      44.095
2014   11       13    20  46    8.4246   480.1    7.415      44.191
2014   11       13    20  51    8.4284   480.4    7.415      44.286
2014   11       13    20  56    8.4321   480.7    7.414      44.381
2014   11       13    21   1    8.4358   480.9    7.413      44.476
2014   11       13    21   6    8.4394   481.2    7.412      44.571
2014   11       13    21  11    8.4430   481.5    7.411      44.666
2014   11       13    21  16    8.4466   481.8    7.410      44.761
2014   11       13    21  21    8.4501   482.0    7.408      44.856
2014   11       13    21  26    8.4536   482.3    7.407      44.950
2014   11       13    21  31    8.4570   482.6    7.405      45.044
2014   11       13    21  36    8.4604   482.9    7.403      45.138
2014   11       13    21  40    8.4638   483.1    7.401      45.230
2014   11       13    21  45    8.4671   483.4    7.399      45.322
2014   11       13    21  50    8.4704   483.7    7.397      45.413
2014   11       13    21  55    8.4736   484.0    7.394      45.503
2014   11       13    22   0    8.4768   484.3    7.391      45.592
2014   11       13    22   5    8.4799   484.5    7.388      45.680
2014   11       13    22  10    8.4829   484.8    7.385      45.767
2014   11       13    22  15    8.4859   485.1    7.382      45.853
2014   11       13    22  20    8.4888   485.4    7.378      45.937
2014   11       13    22  25    8.4917   485.7    7.374      46.020
2014   11       13    22  30    8.4945   486.0    7.370      46.102
2014   11       13    22  35    8.4973   486.3    7.365      46.182
2014   11       13    22  40    8.4999   486.5    7.361      46.262
2014   11       13    22  45    8.5026   486.8    7.356      46.339
2014   11       13    22  50    8.5051   487.1    7.350      46.416
2014   11       13    22  55    8.5076   487.4    7.345      46.491
2014   11       13    23   0    8.5101   487.7    7.340      46.565
2014   11       13    23   5    8.5124   488.0    7.334      46.638
2014   11       13    23  10    8.5147   488.3    7.328      46.710
2014   11       13    23  15    8.5170   488.6    7.322      46.780
2014   11       13    23  20    8.5192   488.8    7.316      46.849
2014   11       13    23  25    8.5214   489.1    7.310      46.918
2014   11       13    23  30    8.5235   489.4    7.303      46.985
2014   11       13    23  35    8.5256   489.7    7.297      47.051
2014   11       13    23  39    8.5276   490.0    7.291      47.116
2014   11       13    23  44    8.5296   490.2    7.284      47.180
2014   11       13    23  49    8.5316   490.5    7.278      47.243
2014   11       13    23  54    8.5336   490.8    7.271      47.306
2014   11       13    23  59    8.5356   491.1    7.265      47.367
2014   11       14     0   4    8.5375   491.3    7.259      47.429
2014   11       14     0   9    8.5395   491.6    7.252      47.490
2014   11       14     0  14    8.5414   491.9    7.246      47.551
2014   11       14     0  19    8.5434   492.1    7.240      47.611
2014   11       14     0  24    8.5454   492.4    7.234      47.671
2014   11       14     0  29    8.5474   492.7    7.229      47.731
2014   11       14     0  34    8.5494   492.9    7.223      47.792
2014   11       14     0  39    8.5515   493.2    7.218      47.853
2014   11       14     0  44    8.5535   493.5    7.212      47.916
2014   11       14     0  49    8.5556   493.8    7.207      47.979
2014   11       14     0  54    8.5576   494.0    7.202      48.043
2014   11       14     0  59    8.5596   494.3    7.197      48.107
2014   11       14     1   4    8.5616   494.6    7.192      48.173
2014   11       14     1   9    8.5635   494.9    7.188      48.239
2014   11       14     1  14    8.5654   495.2    7.183      48.307
2014   11       14     1  19    8.5673   495.5    7.178      48.375
2014   11       14     1  24    8.5690   495.8    7.174      48.444
2014   11       14     1  29    8.5708   496.1    7.169      48.513
2014   11       14     1  34    8.5724   496.4    7.164      48.583
2014   11       14     1  39    8.5739   496.7    7.160      48.654
2014   11       14     1  44    8.5754   497.0    7.155      48.726
2014   11       14     1  49    8.5767   497.3    7.150      48.798
2014   11       14     1  53    8.5780   497.6    7.145      48.870
2014   11       14     1  58    8.5792   497.9    7.140      48.941
2014   11       14     2   3    8.5802   498.3    7.135      49.013
2014   11       14     2   8    8.5812   498.6    7.129      49.084
2014   11       14     2  13    8.5821   498.9    7.124      49.155
2014   11       14     2  18    8.5830   499.2    7.119      49.225
2014   11       14     2  23    8.5837   499.6    7.113      49.296
2014   11       14     2  28    8.5843   499.9    7.108      49.366
2014   11       14     2  33    8.5848   500.2    7.102      49.435
2014   11       14     2  38    8.5853   500.5    7.097      49.503
2014   11       14     2  43    8.5857   500.9    7.091      49.570
2014   11       14     2  48    8.5860   501.2    7.086      49.637
2014   11       14     2  53    8.5863   501.5    7.080      49.702
2014   11       14     2  58    8.5865   501.9    7.074      49.767
2014   11       14     3   3    8.5867   502.2    7.069      49.831
2014   11       14     3   8    8.5868   502.5    7.063      49.895
2014   11       14     3  13    8.5868   502.8    7.058      49.959
2014   11       14     3  18    8.5869   503.2    7.053      50.022
2014   11       14     3  23    8.5869   503.5    7.047      50.086
2014   11       14     3  28    8.5869   503.8    7.042      50.151
2014   11       14     3  33    8.5869   504.2    7.037      50.218
2014   11       14     3  38    8.5869   504.5    7.031      50.286
2014   11       14     3  43    8.5867   504.8    7.026      50.354
2014   11       14     3  48    8.5866   505.2    7.021      50.424
2014   11       14     3  53    8.5864   505.5    7.015      50.495
2014   11       14     3  58    8.5862   505.8    7.010      50.567
2014   11       14     4   2    8.5858   506.2    7.004      50.639
2014   11       14     4   7    8.5854   506.5    6.999      50.712
2014   11       14     4  12    8.5849   506.8    6.993      50.786
2014   11       14     4  17    8.5844   507.2    6.987      50.861
2014   11       14     4  22    8.5838   507.5    6.982      50.937
2014   11       14     4  27    8.5831   507.9    6.976      51.014
2014   11       14     4  32    8.5823   508.2    6.970      51.093
2014   11       14     4  37    8.5814   508.6    6.963      51.171
2014   11       14     4  42    8.5804   508.9    6.957      51.251
2014   11       14     4  47    8.5793   509.3    6.950      51.330
2014   11       14     4  52    8.5781   509.6    6.944      51.410
2014   11       14     4  57    8.5768   510.0    6.937      51.490
2014   11       14     5   2    8.5753   510.3    6.930      51.569
2014   11       14     5   7    8.5738   510.7    6.922      51.648
2014   11       14     5  12    8.5721   511.0    6.914      51.727
2014   11       14     5  17    8.5704   511.4    6.906      51.805
2014   11       14     5  22    8.5685   511.8    6.898      51.883
2014   11       14     5  27    8.5665   512.1    6.889      51.960
2014   11       14     5  32    8.5643   512.5    6.880      52.036
2014   11       14     5  37    8.5621   512.9    6.871      52.110
2014   11       14     5  42    8.5597   513.3    6.861      52.182
2014   11       14     5  47    8.5573   513.6    6.851      52.252
2014   11       14     5  52    8.5547   514.0    6.841      52.321
2014   11       14     5  57    8.5520   514.4    6.830      52.387
2014   11       14     6   2    8.5492   514.8    6.819      52.452
2014   11       14     6   6    8.5464   515.1    6.808      52.514
2014   11       14     6  11    8.5434   515.5    6.797      52.575
2014   11       14     6  16    8.5404   515.9    6.785      52.633
2014   11       14     6  21    8.5372   516.3    6.773      52.689
2014   11       14     6  26    8.5341   516.6    6.761      52.743
2014   11       14     6  31    8.5308   517.0    6.749      52.794
2014   11       14     6  36    8.5275   517.4    6.736      52.844
2014   11       14     6  41    8.5242   517.7    6.724      52.892
2014   11       14     6  46    8.5208   518.1    6.711      52.938
2014   11       14     6  51    8.5173   518.5    6.698      52.982
2014   11       14     6  56    8.5139   518.8    6.685      53.025
2014   11       14     7   1    8.5103   519.2    6.672      53.067
2014   11       14     7   6    8.5068   519.6    6.659      53.108
2014   11       14     7  11    8.5032   519.9    6.646      53.148
2014   11       14     7  16    8.4995   520.3    6.632      53.187
2014   11       14     7  21    8.4956   520.7    6.618      53.225
2014   11       14     7  26    8.4918   521.0    6.604      53.262
2014   11       14     7  31    8.4877   521.4    6.590      53.298
2014   11       14     7  36    8.4836   521.8    6.575      53.335
2014   11       14     7  41    8.4792   522.2    6.559      53.368
2014   11       14     7  46    8.4747   522.6    6.544      53.399
2014   11       14     7  51    8.4699   523.0    6.527      53.428
2014   11       14     7  56    8.4650   523.4    6.511      53.455
2014   11       14     8   1    8.4599   523.7    6.494      53.480
2014   11       14     8   6    8.4548   524.1    6.478      53.502
2014   11       14     8  11    8.4494   524.5    6.461      53.522
2014   11       14     8  15    8.4440   524.8    6.444      53.540
2014   11       14     8  20    8.4385   525.1    6.426      53.556
2014   11       14     8  25    8.4329   525.5    6.409      53.571
2014   11       14     8  30    8.4271   525.8    6.392      53.586
2014   11       14     8  35    8.4214   526.1    6.375      53.599
2014   11       14     8  40    8.4155   526.4    6.358      53.610
2014   11       14     8  45    8.4096   526.7    6.341      53.621
2014   11       14     8  50    8.4037   527.0    6.324      53.631
2014   11       14     8  55    8.3978   527.3    6.308      53.644
2014   11       14     9   0    8.3920   527.6    6.293      53.657
2014   11       14     9   5    8.3862   527.9    6.277      53.672
2014   11       14     9  10    8.3804   528.2    6.262      53.687
2014   11       14     9  15    8.3746   528.5    6.247      53.703
2014   11       14     9  20    8.3688   528.8    6.232      53.720
2014   11       14     9  25    8.3630   529.1    6.218      53.737
2014   11       14     9  30    8.3571   529.4    6.204      53.755
2014   11       14     9  35    8.3513   529.7    6.190      53.772
2014   11       14     9  40    8.3454   530.0    6.176      53.789
2014   11       14     9  45    8.3395   530.3    6.163      53.806
2014   11       14     9  50    8.3336   530.6    6.150      53.822
2014   11       14     9  55    8.3277   530.9    6.137      53.838
2014   11       14    10   0    8.3217   531.2    6.124      53.853
2014   11       14    10   5    8.3158   531.4    6.111      53.868
2014   11       14    10  10    8.3097   531.7    6.099      53.882
2014   11       14    10  15    8.3037   532.0    6.086      53.896
2014   11       14    10  20    8.2976   532.3    6.074      53.910
2014   11       14    10  25    8.2915   532.6    6.062      53.923
2014   11       14    10  29    8.2853   532.8    6.050      53.937
2014   11       14    10  34    8.2791   533.1    6.039      53.952
2014   11       14    10  39    8.2729   533.4    6.027      53.967
2014   11       14    10  44    8.2666   533.6    6.015      53.982
2014   11       14    10  49    8.2603   533.9    6.004      53.998
2014   11       14    10  54    8.2539   534.2    5.992      54.013
2014   11       14    10  59    8.2475   534.4    5.981      54.029
2014   11       14    11   4    8.2410   534.7    5.970      54.045
2014   11       14    11   9    8.2345   535.0    5.959      54.060
2014   11       14    11  14    8.2279   535.2    5.948      54.075
2014   11       14    11  19    8.2213   535.5    5.937      54.091
2014   11       14    11  24    8.2146   535.8    5.926      54.106
2014   11       14    11  29    8.2077   536.0    5.915      54.121
2014   11       14    11  34    8.2009   536.3    5.904      54.135
2014   11       14    11  39    8.1939   536.5    5.893      54.150
2014   11       14    11  44    8.1868   536.8    5.882      54.164
2014   11       14    11  49    8.1797   537.0    5.871      54.178
2014   11       14    11  54    8.1724   537.3    5.860      54.192
2014   11       14    11  59    8.1650   537.5    5.850      54.204
2014   11       14    12   4    8.1576   537.8    5.839      54.216
2014   11       14    12   9    8.1501   538.0    5.828      54.228
2014   11       14    12  14    8.1425   538.3    5.817      54.238
2014   11       14    12  19    8.1348   538.5    5.806      54.248
2014   11       14    12  24    8.1270   538.8    5.795      54.257
2014   11       14    12  29    8.1192   539.0    5.784      54.266
2014   11       14    12  34    8.1114   539.2    5.772      54.273
2014   11       14    12  38    8.1034   539.5    5.761      54.279
2014   11       14    12  43    8.0955   539.7    5.750      54.285
2014   11       14    12  48    8.0875   539.9    5.739      54.289
2014   11       14    12  53    8.0795   540.2    5.728      54.292
2014   11       14    12  58    8.0715   540.4    5.717      54.293
2014   11       14    13   3    8.0635   540.6    5.706      54.294
2014   11       14    13   8    8.0554   540.8    5.695      54.293
2014   11       14    13  13    8.0474   541.0    5.684      54.290
2014   11       14    13  18    8.0394   541.2    5.673      54.286
2014   11       14    13  23    8.0314   541.4    5.663      54.281
2014   11       14    13  28    8.0234   541.6    5.652      54.275
2014   11       14    13  33    8.0154   541.8    5.642      54.268
2014   11       14    13  38    8.0075   542.0    5.631      54.259
2014   11       14    13  43    7.9996   542.2    5.621      54.248
2014   11       14    13  48    7.9916   542.4    5.611      54.237
2014   11       14    13  53    7.9838   542.6    5.601      54.224
2014   11       14    13  58    7.9759   542.8    5.591      54.210
2014   11       14    14   3    7.9681   543.0    5.581      54.196
2014   11       14    14   8    7.9602   543.2    5.571      54.180
2014   11       14    14  13    7.9524   543.3    5.562      54.164
2014   11       14    14  18    7.9446   543.5    5.552      54.148
2014   11       14    14  23    7.9368   543.7    5.542      54.131
2014   11       14    14  28    7.9289   543.9    5.533      54.113
2014   11       14    14  33    7.9210   544.1    5.524      54.095
2014   11       14    14  38    7.9130   544.3    5.514      54.076
2014   11       14    14  42    7.9050   544.5    5.504      54.057
2014   11       14    14  47    7.8969   544.7    5.495      54.038
2014   11       14    14  52    7.8887   544.9    5.484      54.018
2014   11       14    14  57    7.8804   545.1    5.474      53.996
2014   11       14    15   2    7.8720   545.3    5.463      53.971
2014   11       14    15   7    7.8634   545.5    5.452      53.944
2014   11       14    15  12    7.8548   545.7    5.441      53.915
2014   11       14    15  17    7.8461   545.8    5.429      53.884
2014   11       14    15  22    7.8373   546.0    5.418      53.850
2014   11       14    15  27    7.8285   546.2    5.406      53.814
2014   11       14    15  32    7.8197   546.3    5.394      53.776
2014   11       14    15  37    7.8109   546.5    5.382      53.737
2014   11       14    15  42    7.8020   546.6    5.369      53.695
2014   11       14    15  47    7.7932   546.8    5.357      53.652
2014   11       14    15  52    7.7844   546.9    5.345      53.606
2014   11       14    15  57    7.7756   547.0    5.332      53.560
2014   11       14    16   2    7.7668   547.1    5.320      53.510
2014   11       14    16   7    7.7582   547.2    5.308      53.460
2014   11       14    16  12    7.7497   547.3    5.296      53.411
2014   11       14    16  17    7.7413   547.4    5.284      53.361
2014   11       14    16  22    7.7330   547.5    5.273      53.311
2014   11       14    16  27    7.7248   547.5    5.261      53.261
2014   11       14    16  32    7.7166   547.6    5.250      53.211
2014   11       14    16  37    7.7086   547.7    5.239      53.163
2014   11       14    16  42    7.7007   547.7    5.229      53.114
2014   11       14    16  47    7.6928   547.8    5.218      53.067
2014   11       14    16  52    7.6851   547.8    5.208      53.020
2014   11       14    16  56    7.6774   547.9    5.198      52.973
2014   11       14    17   1    7.6698   547.9    5.189      52.927
2014   11       14    17   6    7.6624   547.9    5.180      52.883
2014   11       14    17  11    7.6550   548.0    5.170      52.839
2014   11       14    17  16    7.6477   548.0    5.162      52.796
2014   11       14    17  21    7.6404   548.0    5.153      52.755
2014   11       14    17  26    7.6333   548.1    5.144      52.714
2014   11       14    17  31    7.6261   548.1    5.136      52.674
2014   11       14    17  36    7.6191   548.1    5.128      52.635
2014   11       14    17  41    7.6121   548.1    5.120      52.598
2014   11       14    17  46    7.6051   548.2    5.112      52.562
2014   11       14    17  51    7.5982   548.2    5.104      52.527
2014   11       14    17  56    7.5913   548.2    5.096      52.494
2014   11       14    18   1    7.5845   548.2    5.089      52.461
2014   11       14    18   6    7.5777   548.3    5.081      52.428
2014   11       14    18  11    7.5709   548.3    5.074      52.396
2014   11       14    18  16    7.5642   548.3    5.067      52.364
2014   11       14    18  21    7.5574   548.4    5.060      52.332
2014   11       14    18  26    7.5507   548.4    5.052      52.300
2014   11       14    18  31    7.5440   548.4    5.045      52.268
2014   11       14    18  36    7.5374   548.5    5.038      52.235
2014   11       14    18  41    7.5307   548.5    5.031      52.203
2014   11       14    18  46    7.5240   548.5    5.024      52.170
2014   11       14    18  51    7.5173   548.5    5.017      52.137
2014   11       14    18  56    7.5106   548.6    5.010      52.104
2014   11       14    19   0    7.5039   548.6    5.003      52.071
2014   11       14    19   5    7.4972   548.6    4.996      52.036
2014   11       14    19  10    7.4905   548.7    4.990      52.001
2014   11       14    19  15    7.4837   548.7    4.983      51.966
2014   11       14    19  20    7.4769   548.7    4.976      51.930
2014   11       14    19  25    7.4702   548.7    4.969      51.893
2014   11       14    19  30    7.4634   548.8    4.962      51.856
2014   11       14    19  35    7.4567   548.8    4.955      51.819
2014   11       14    19  40    7.4499   548.8    4.948      51.781
2014   11       14    19  45    7.4432   548.8    4.942      51.742
2014   11       14    19  50    7.4364   548.8    4.935      51.702
2014   11       14    19  55    7.4297   548.8    4.928      51.662
2014   11       14    20   0    7.4230   548.9    4.922      51.621
2014   11       14    20   5    7.4163   548.9    4.915      51.580
2014   11       14    20  10    7.4096   548.9    4.908      51.538
2014   11       14    20  15    7.4030   548.9    4.902      51.495
2014   11       14    20  20    7.3963   548.9    4.896      51.451
2014   11       14    20  25    7.3898   548.9    4.889      51.408
2014   11       14    20  30    7.3833   548.8    4.883      51.363
2014   11       14    20  35    7.3768   548.8    4.877      51.319
2014   11       14    20  40    7.3704   548.8    4.872      51.274
2014   11       14    20  45    7.3641   548.8    4.866      51.229
2014   11       14    20  50    7.3577   548.8    4.861      51.184
2014   11       14    20  55    7.3515   548.7    4.855      51.138
2014   11       14    21   0    7.3452   548.7    4.850      51.093
2014   11       14    21   4    7.3390   548.7    4.845      51.047
2014   11       14    21   9    7.3329   548.6    4.841      51.001
2014   11       14    21  14    7.3268   548.6    4.836      50.956
2014   11       14    21  19    7.3207   548.5    4.832      50.910
2014   11       14    21  24    7.3147   548.5    4.827      50.864
2014   11       14    21  29    7.3087   548.4    4.823      50.819
2014   11       14    21  34    7.3027   548.4    4.819      50.773
2014   11       14    21  39    7.2968   548.3    4.816      50.727
2014   11       14    21  44    7.2909   548.2    4.812      50.681
2014   11       14    21  49    7.2850   548.2    4.809      50.635
2014   11       14    21  54    7.2792   548.1    4.806      50.590
2014   11       14    21  59    7.2735   548.0    4.803      50.545
2014   11       14    22   4    7.2678   548.0    4.800      50.501
2014   11       14    22   9    7.2621   547.9    4.797      50.456
2014   11       14    22  14    7.2565   547.8    4.795      50.412
2014   11       14    22  19    7.2510   547.7    4.792      50.369
2014   11       14    22  24    7.2456   547.6    4.790      50.325
2014   11       14    22  29    7.2402   547.5    4.787      50.282
2014   11       14    22  34    7.2350   547.4    4.785      50.239
2014   11       14    22  39    7.2298   547.4    4.782      50.196
2014   11       14    22  44    7.2247   547.3    4.780      50.153
2014   11       14    22  49    7.2197   547.2    4.778      50.110
2014   11       14    22  54    7.2149   547.1    4.776      50.068
2014   11       14    22  59    7.2101   547.0    4.774      50.026
2014   11       14    23   4    7.2054   546.9    4.772      49.985
2014   11       14    23   9    7.2009   546.8    4.770      49.944
2014   11       14    23  14    7.1965   546.7    4.768      49.903
2014   11       14    23  18    7.1921   546.6    4.766      49.862
2014   11       14    23  23    7.1879   546.5    4.764      49.822
2014   11       14    23  28    7.1838   546.4    4.762      49.783
2014   11       14    23  33    7.1798   546.3    4.761      49.743
2014   11       14    23  38    7.1758   546.2    4.759      49.704
2014   11       14    23  43    7.1719   546.1    4.758      49.665
2014   11       14    23  48    7.1681   546.0    4.757      49.627
2014   11       14    23  53    7.1644   546.0    4.755      49.590
2014   11       14    23  58    7.1606   545.9    4.754      49.555
2014   11       15     0   3    7.1570   545.8    4.753      49.520
2014   11       15     0   8    7.1534   545.7    4.752      49.486
2014   11       15     0  13    7.1498   545.6    4.751      49.453
2014   11       15     0  18    7.1462   545.5    4.750      49.420
2014   11       15     0  23    7.1427   545.4    4.749      49.389
2014   11       15     0  28    7.1392   545.3    4.748      49.358
2014   11       15     0  33    7.1356   545.2    4.747      49.327
2014   11       15     0  38    7.1321   545.1    4.745      49.297
2014   11       15     0  43    7.1286   545.1    4.744      49.267
2014   11       15     0  48    7.1251   545.0    4.743      49.237
2014   11       15     0  53    7.1216   544.9    4.742      49.207
2014   11       15     0  58    7.1181   544.8    4.740      49.177
2014   11       15     1   3    7.1146   544.7    4.739      49.148
2014   11       15     1   8    7.1111   544.6    4.737      49.118
2014   11       15     1  13    7.1076   544.5    4.735      49.089
2014   11       15     1  18    7.1041   544.5    4.734      49.059
2014   11       15     1  23    7.1006   544.4    4.732      49.028
2014   11       15     1  27    7.0971   544.3    4.730      48.997
2014   11       15     1  32    7.0936   544.2    4.728      48.966
2014   11       15     1  37    7.0901   544.1    4.726      48.935
2014   11       15     1  42    7.0867   544.0    4.725      48.903
2014   11       15     1  47    7.0832   543.9    4.723      48.871
2014   11       15     1  52    7.0797   543.8    4.721      48.839
2014   11       15     1  57    7.0763   543.7    4.719      48.807
2014   11       15     2   2    7.0729   543.6    4.717      48.775
2014   11       15     2   7    7.0695   543.6    4.715      48.742
2014   11       15     2  12    7.0661   543.5    4.712      48.710
2014   11       15     2  17    7.0627   543.4    4.710      48.677
2014   11       15     2  22    7.0594   543.3    4.708      48.644
2014   11       15     2  27    7.0561   543.2    4.706      48.611
2014   11       15     2  32    7.0528   543.1    4.704      48.578
2014   11       15     2  37    7.0495   543.0    4.702      48.545
2014   11       15     2  42    7.0463   542.9    4.700      48.512
2014   11       15     2  47    7.0431   542.8    4.698      48.479
2014   11       15     2  52    7.0399   542.7    4.696      48.445
2014   11       15     2  57    7.0367   542.6    4.693      48.412
2014   11       15     3   2    7.0336   542.5    4.691      48.378
2014   11       15     3   7    7.0304   542.4    4.689      48.345
2014   11       15     3  12    7.0274   542.4    4.687      48.311
2014   11       15     3  17    7.0243   542.3    4.685      48.277
2014   11       15     3  22    7.0213   542.2    4.683      48.243
2014   11       15     3  27    7.0182   542.1    4.680      48.209
2014   11       15     3  31    7.0153   542.0    4.678      48.175
2014   11       15     3  36    7.0123   541.9    4.676      48.140
2014   11       15     3  41    7.0093   541.8    4.674      48.106
2014   11       15     3  46    7.0064   541.7    4.672      48.072
2014   11       15     3  51    7.0035   541.6    4.669      48.037
2014   11       15     3  56    7.0006   541.5    4.667      48.002
2014   11       15     4   1    6.9977   541.4    4.665      47.967
2014   11       15     4   6    6.9948   541.3    4.663      47.932
2014   11       15     4  11    6.9920   541.2    4.661      47.896
2014   11       15     4  16    6.9891   541.1    4.658      47.860
2014   11       15     4  21    6.9863   541.0    4.656      47.824
2014   11       15     4  26    6.9834   541.0    4.654      47.787
2014   11       15     4  31    6.9806   540.9    4.651      47.750
2014   11       15     4  36    6.9778   540.8    4.649      47.713
2014   11       15     4  41    6.9751   540.7    4.647      47.675
2014   11       15     4  46    6.9723   540.6    4.644      47.637
2014   11       15     4  51    6.9695   540.5    4.642      47.598
2014   11       15     4  56    6.9668   540.4    4.639      47.559
2014   11       15     5   1    6.9640   540.2    4.637      47.520
2014   11       15     5   6    6.9613   540.1    4.635      47.480
2014   11       15     5  11    6.9586   540.0    4.632      47.440
2014   11       15     5  16    6.9560   539.9    4.630      47.399
2014   11       15     5  21    6.9533   539.8    4.627      47.358
2014   11       15     5  26    6.9507   539.7    4.625      47.316
2014   11       15     5  31    6.9481   539.6    4.622      47.274
2014   11       15     5  36    6.9455   539.5    4.620      47.232
2014   11       15     5  40    6.9430   539.3    4.617      47.190
2014   11       15     5  45    6.9405   539.2    4.615      47.148
2014   11       15     5  50    6.9381   539.1    4.613      47.105
2014   11       15     5  55    6.9357   539.0    4.610      47.063
2014   11       15     6   0    6.9333   538.8    4.608      47.021
2014   11       15     6   5    6.9310   538.7    4.606      46.978
2014   11       15     6  10    6.9287   538.6    4.604      46.936
2014   11       15     6  15    6.9265   538.5    4.602      46.895
2014   11       15     6  20    6.9243   538.3    4.600      46.854
2014   11       15     6  25    6.9222   538.2    4.598      46.813
2014   11       15     6  30    6.9202   538.1    4.597      46.773
2014   11       15     6  35    6.9182   537.9    4.595      46.733
2014   11       15     6  40    6.9162   537.8    4.594      46.694
2014   11       15     6  45    6.9143   537.7    4.592      46.655
2014   11       15     6  50    6.9124   537.5    4.591      46.617
2014   11       15     6  55    6.9106   537.4    4.590      46.580
2014   11       15     7   0    6.9089   537.3    4.589      46.543
2014   11       15     7   5    6.9071   537.2    4.589      46.507
2014   11       15     7  10    6.9054   537.0    4.588      46.472
2014   11       15     7  15    6.9037   536.9    4.587      46.437
2014   11       15     7  20    6.9020   536.8    4.587      46.402
2014   11       15     7  25    6.9003   536.6    4.587      46.369
2014   11       15     7  30    6.8986   536.5    4.586      46.337
2014   11       15     7  35    6.8970   536.4    4.586      46.305
2014   11       15     7  40    6.8953   536.2    4.586      46.274
2014   11       15     7  45    6.8937   536.1    4.586      46.244
2014   11       15     7  50    6.8920   535.9    4.587      46.214
2014   11       15     7  54    6.8904   535.8    4.587      46.185
2014   11       15     7  59    6.8887   535.7    4.587      46.156
2014   11       15     8   4    6.8870   535.5    4.587      46.128
2014   11       15     8   9    6.8854   535.4    4.588      46.100
2014   11       15     8  14    6.8837   535.2    4.588      46.072
2014   11       15     8  19    6.8821   535.1    4.589      46.044
2014   11       15     8  24    6.8805   534.9    4.589      46.018
2014   11       15     8  29    6.8789   534.8    4.590      45.991
2014   11       15     8  34    6.8773   534.7    4.590      45.965
2014   11       15     8  39    6.8757   534.5    4.591      45.939
2014   11       15     8  44    6.8741   534.3    4.592      45.913
2014   11       15     8  49    6.8726   534.2    4.593      45.888
2014   11       15     8  54    6.8711   534.0    4.594      45.863
2014   11       15     8  59    6.8696   533.9    4.595      45.838
2014   11       15     9   4    6.8682   533.7    4.596      45.814
2014   11       15     9   9    6.8668   533.6    4.598      45.790
2014   11       15     9  14    6.8654   533.4    4.599      45.767
2014   11       15     9  19    6.8640   533.3    4.600      45.744
2014   11       15     9  24    6.8627   533.1    4.602      45.722
2014   11       15     9  29    6.8614   533.0    4.604      45.700
2014   11       15     9  34    6.8601   532.8    4.605      45.679
2014   11       15     9  39    6.8589   532.6    4.607      45.659
2014   11       15     9  44    6.8577   532.5    4.609      45.639
2014   11       15     9  49    6.8565   532.3    4.611      45.619
2014   11       15     9  54    6.8554   532.2    4.613      45.600
2014   11       15     9  58    6.8543   532.0    4.615      45.581
2014   11       15    10   3    6.8532   531.9    4.617      45.564
2014   11       15    10   8    6.8522   531.7    4.619      45.547
2014   11       15    10  13    6.8512   531.5    4.621      45.530
2014   11       15    10  18    6.8502   531.4    4.624      45.514
2014   11       15    10  23    6.8492   531.2    4.626      45.499
2014   11       15    10  28    6.8483   531.1    4.628      45.484
2014   11       15    10  33    6.8474   530.9    4.630      45.469
2014   11       15    10  38    6.8465   530.8    4.631      45.453
2014   11       15    10  43    6.8456   530.6    4.633      45.438
2014   11       15    10  48    6.8447   530.5    4.635      45.423
2014   11       15    10  53    6.8438   530.3    4.637      45.407
2014   11       15    10  58    6.8430   530.1    4.638      45.391
2014   11       15    11   3    6.8421   530.0    4.639      45.375
2014   11       15    11   8    6.8413   529.8    4.641      45.358
2014   11       15    11  13    6.8404   529.7    4.642      45.341
2014   11       15    11  18    6.8396   529.5    4.643      45.323
2014   11       15    11  23    6.8387   529.4    4.644      45.304
2014   11       15    11  28    6.8378   529.2    4.645      45.284
2014   11       15    11  33    6.8370   529.1    4.646      45.264
2014   11       15    11  38    6.8361   528.9    4.646      45.242
2014   11       15    11  43    6.8353   528.8    4.647      45.221
2014   11       15    11  48    6.8345   528.6    4.647      45.198
2014   11       15    11  53    6.8336   528.5    4.648      45.175
2014   11       15    11  58    6.8328   528.3    4.648      45.152
2014   11       15    12   2    6.8320   528.2    4.649      45.127
2014   11       15    12   7    6.8312   528.0    4.649      45.102
2014   11       15    12  12    6.8305   527.9    4.649      45.077
2014   11       15    12  17    6.8297   527.7    4.649      45.051
2014   11       15    12  22    6.8290   527.6    4.649      45.024
2014   11       15    12  27    6.8282   527.5    4.649      44.997
2014   11       15    12  32    6.8275   527.3    4.649      44.970
2014   11       15    12  37    6.8269   527.2    4.649      44.942
2014   11       15    12  42    6.8262   527.0    4.649      44.914
2014   11       15    12  47    6.8256   526.9    4.649      44.885
2014   11       15    12  52    6.8249   526.7    4.649      44.855
2014   11       15    12  57    6.8243   526.6    4.648      44.826
2014   11       15    13   2    6.8237   526.4    4.648      44.796
2014   11       15    13   7    6.8232   526.3    4.648      44.766
2014   11       15    13  12    6.8226   526.1    4.647      44.735
2014   11       15    13  17    6.8221   526.0    4.647      44.704
2014   11       15    13  22    6.8216   525.8    4.647      44.672
2014   11       15    13  27    6.8212   525.6    4.646      44.641
2014   11       15    13  32    6.8207   525.5    4.646      44.609
2014   11       15    13  37    6.8203   525.3    4.646      44.576
2014   11       15    13  42    6.8198   525.2    4.645      44.544
2014   11       15    13  47    6.8194   525.0    4.645      44.511
2014   11       15    13  52    6.8191   524.9    4.644      44.477
2014   11       15    13  57    6.8187   524.7    4.644      44.444
2014   11       15    14   2    6.8184   524.6    4.643      44.410
2014   11       15    14   7    6.8181   524.4    4.643      44.376
2014   11       15    14  12    6.8178   524.2    4.643      44.342
2014   11       15    14  16    6.8175   524.1    4.642      44.307
2014   11       15    14  21    6.8173   523.9    4.642      44.273
2014   11       15    14  26    6.8171   523.7    4.641      44.239
2014   11       15    14  31    6.8169   523.6    4.641      44.204
2014   11       15    14  36    6.8167   523.4    4.641      44.170
2014   11       15    14  41    6.8166   523.2    4.640      44.136
2014   11       15    14  46    6.8165   523.1    4.640      44.102
2014   11       15    14  51    6.8164   522.9    4.640      44.069
2014   11       15    14  56    6.8163   522.7    4.640      44.036
2014   11       15    15   1    6.8163   522.5    4.639      44.003
2014   11       15    15   6    6.8163   522.4    4.639      43.970
2014   11       15    15  11    6.8164   522.2    4.639      43.938
2014   11       15    15  16    6.8164   522.0    4.639      43.905
2014   11       15    15  21    6.8165   521.8    4.639      43.874
2014   11       15    15  26    6.8167   521.7    4.639      43.842
2014   11       15    15  31    6.8168   521.5    4.639      43.811
2014   11       15    15  36    6.8170   521.3    4.640      43.780
2014   11       15    15  41    6.8172   521.1    4.640      43.750
2014   11       15    15  46    6.8175   520.9    4.640      43.720
2014   11       15    15  51    6.8178   520.7    4.641      43.690
2014   11       15    15  56    6.8181   520.6    4.641      43.661
2014   11       15    16   1    6.8185   520.4    4.642      43.632
2014   11       15    16   6    6.8189   520.2    4.643      43.604
2014   11       15    16  11    6.8193   520.0    4.644      43.576
2014   11       15    16  16    6.8198   519.8    4.645      43.548
2014   11       15    16  21    6.8203   519.6    4.646      43.521
2014   11       15    16  25    6.8209   519.4    4.647      43.495
2014   11       15    16  30    6.8214   519.2    4.649      43.469
2014   11       15    16  35    6.8221   519.0    4.650      43.444
2014   11       15    16  40    6.8227   518.8    4.652      43.419
2014   11       15    16  45    6.8234   518.7    4.654      43.395
2014   11       15    16  50    6.8242   518.5    4.655      43.372
2014   11       15    16  55    6.8250   518.3    4.657      43.349
2014   11       15    17   0    6.8258   518.1    4.660      43.327
2014   11       15    17   5    6.8266   517.9    4.662      43.305
2014   11       15    17  10    6.8275   517.7    4.664      43.284
2014   11       15    17  15    6.8284   517.5    4.667      43.263
2014   11       15    17  20    6.8294   517.3    4.669      43.244
2014   11       15    17  25    6.8304   517.1    4.672      43.225
2014   11       15    17  30    6.8314   516.9    4.674      43.207
2014   11       15    17  35    6.8325   516.7    4.677      43.190
2014   11       15    17  40    6.8336   516.5    4.680      43.173
2014   11       15    17  45    6.8347   516.3    4.682      43.156
2014   11       15    17  50    6.8358   516.1    4.685      43.139
2014   11       15    17  55    6.8370   515.9    4.687      43.123
2014   11       15    18   0    6.8381   515.7    4.690      43.106
2014   11       15    18   5    6.8393   515.5    4.693      43.089
2014   11       15    18  10    6.8405   515.3    4.695      43.072
2014   11       15    18  15    6.8417   515.1    4.698      43.054
2014   11       15    18  20    6.8430   514.9    4.700      43.036
2014   11       15    18  25    6.8442   514.7    4.702      43.018
2014   11       15    18  29    6.8455   514.5    4.704      42.999
2014   11       15    18  34    6.8467   514.3    4.707      42.978
2014   11       15    18  39    6.8480   514.1    4.709      42.957
2014   11       15    18  44    6.8493   513.9    4.711      42.936
2014   11       15    18  49    6.8506   513.7    4.713      42.913
2014   11       15    18  54    6.8520   513.5    4.715      42.890
2014   11       15    18  59    6.8533   513.2    4.717      42.866
2014   11       15    19   4    6.8547   513.0    4.719      42.841
2014   11       15    19   9    6.8562   512.8    4.721      42.816
2014   11       15    19  14    6.8577   512.6    4.723      42.790
2014   11       15    19  19    6.8592   512.3    4.725      42.763
2014   11       15    19  24    6.8608   512.1    4.727      42.737
2014   11       15    19  29    6.8625   511.9    4.730      42.710
2014   11       15    19  34    6.8642   511.6    4.732      42.683
2014   11       15    19  39    6.8660   511.4    4.735      42.656
2014   11       15    19  44    6.8679   511.1    4.737      42.629
2014   11       15    19  49    6.8698   510.9    4.740      42.602
2014   11       15    19  54    6.8719   510.7    4.743      42.576
2014   11       15    19  59    6.8741   510.4    4.746      42.551
2014   11       15    20   4    6.8764   510.2    4.750      42.527
2014   11       15    20   9    6.8788   509.9    4.753      42.503
2014   11       15    20  14    6.8813   509.7    4.757      42.481
2014   11       15    20  19    6.8839   509.4    4.762      42.460
2014   11       15    20  24    6.8866   509.2    4.766      42.440
2014   11       15    20  29    6.8894   509.0    4.771      42.422
2014   11       15    20  34    6.8924   508.7    4.777      42.405
2014   11       15    20  38    6.8955   508.5    4.783      42.391
2014   11       15    20  43    6.8987   508.2    4.789      42.379
2014   11       15    20  48    6.9021   508.0    4.795      42.369
2014   11       15    20  53    6.9056   507.8    4.802      42.359
2014   11       15    20  58    6.9092   507.5    4.810      42.352
2014   11       15    21   3    6.9130   507.3    4.818      42.346
2014   11       15    21   8    6.9169   507.1    4.827      42.344
2014   11       15    21  13    6.9209   506.8    4.835      42.345
2014   11       15    21  18    6.9250   506.6    4.845      42.349
2014   11       15    21  23    6.9293   506.4    4.854      42.356
2014   11       15    21  28    6.9335   506.2    4.863      42.366
2014   11       15    21  33    6.9379   506.0    4.872      42.378
2014   11       15    21  38    6.9423   505.9    4.882      42.392
2014   11       15    21  43    6.9467   505.7    4.891      42.407
2014   11       15    21  48    6.9512   505.5    4.900      42.423
2014   11       15    21  53    6.9558   505.3    4.909      42.440
2014   11       15    21  58    6.9603   505.1    4.918      42.457
2014   11       15    22   3    6.9649   505.0    4.926      42.475
2014   11       15    22   8    6.9694   504.8    4.934      42.493
2014   11       15    22  13    6.9740   504.7    4.942      42.513
2014   11       15    22  18    6.9786   504.5    4.949      42.532
2014   11       15    22  23    6.9832   504.4    4.956      42.550
2014   11       15    22  28    6.9877   504.2    4.963      42.567
2014   11       15    22  33    6.9923   504.1    4.969      42.582
2014   11       15    22  38    6.9969   503.9    4.975      42.596
2014   11       15    22  43    7.0015   503.8    4.981      42.609
2014   11       15    22  47    7.0060   503.6    4.986      42.620
2014   11       15    22  52    7.0107   503.5    4.991      42.631
2014   11       15    22  57    7.0152   503.3    4.996      42.640
2014   11       15    23   2    7.0199   503.2    5.001      42.649
2014   11       15    23   7    7.0245   503.0    5.005      42.656
2014   11       15    23  12    7.0292   502.9    5.009      42.662
2014   11       15    23  17    7.0338   502.8    5.013      42.667
2014   11       15    23  22    7.0385   502.6    5.017      42.671
2014   11       15    23  27    7.0432   502.5    5.021      42.674
2014   11       15    23  32    7.0480   502.3    5.024      42.677
2014   11       15    23  37    7.0527   502.2    5.028      42.678
2014   11       15    23  42    7.0575   502.0    5.031      42.679
2014   11       15    23  47    7.0623   501.9    5.034      42.679
2014   11       15    23  52    7.0671   501.8    5.037      42.679
2014   11       15    23  57    7.0720   501.6    5.040      42.678
2014   11       16     0   2    7.0769   501.5    5.043      42.676
