year    month   day   hour  minute  B_enl V_enl   n_enl       T_enl
[year] [month] [day] [hour][minute] [nT]  [km/s]  [cm-3]      [kK]
2014   11        7     0   4    6.9012   578.1    4.570      57.676
2014   11        7     0   9    6.8981   578.2    4.567      57.657
2014   11        7     0  14    6.8950   578.3    4.564      57.639
2014   11        7     0  19    6.8919   578.4    4.560      57.622
2014   11        7     0  24    6.8889   578.4    4.557      57.605
2014   11        7     0  29    6.8858   578.5    4.554      57.587
2014   11        7     0  34    6.8828   578.6    4.551      57.571
2014   11        7     0  39    6.8798   578.6    4.548      57.554
2014   11        7     0  44    6.8768   578.7    4.545      57.538
2014   11        7     0  49    6.8737   578.8    4.542      57.522
2014   11        7     0  54    6.8708   578.8    4.539      57.506
2014   11        7     0  59    6.8678   578.9    4.536      57.489
2014   11        7     1   4    6.8648   578.9    4.533      57.473
2014   11        7     1   9    6.8618   579.0    4.529      57.456
2014   11        7     1  14    6.8589   579.0    4.526      57.439
2014   11        7     1  19    6.8560   579.1    4.523      57.421
2014   11        7     1  24    6.8531   579.1    4.520      57.402
2014   11        7     1  29    6.8502   579.2    4.517      57.383
2014   11        7     1  34    6.8474   579.2    4.514      57.364
2014   11        7     1  39    6.8445   579.3    4.510      57.344
2014   11        7     1  44    6.8417   579.3    4.507      57.324
2014   11        7     1  48    6.8389   579.4    4.504      57.303
2014   11        7     1  53    6.8361   579.4    4.500      57.281
2014   11        7     1  58    6.8334   579.5    4.497      57.259
2014   11        7     2   3    6.8307   579.5    4.494      57.236
2014   11        7     2   8    6.8280   579.5    4.491      57.213
2014   11        7     2  13    6.8254   579.6    4.487      57.190
2014   11        7     2  18    6.8227   579.6    4.484      57.166
2014   11        7     2  23    6.8202   579.7    4.481      57.142
2014   11        7     2  28    6.8176   579.7    4.478      57.118
2014   11        7     2  33    6.8151   579.7    4.475      57.095
2014   11        7     2  38    6.8126   579.8    4.472      57.071
2014   11        7     2  43    6.8102   579.8    4.469      57.047
2014   11        7     2  48    6.8078   579.8    4.466      57.023
2014   11        7     2  53    6.8055   579.9    4.464      56.999
2014   11        7     2  58    6.8033   579.9    4.461      56.976
2014   11        7     3   3    6.8009   579.9    4.459      56.954
2014   11        7     3   8    6.7986   580.0    4.456      56.931
2014   11        7     3  13    6.7964   580.0    4.454      56.910
2014   11        7     3  18    6.7942   580.0    4.451      56.889
2014   11        7     3  23    6.7921   580.1    4.449      56.868
2014   11        7     3  28    6.7900   580.1    4.446      56.847
2014   11        7     3  33    6.7878   580.1    4.444      56.826
2014   11        7     3  38    6.7856   580.2    4.441      56.806
2014   11        7     3  42    6.7835   580.2    4.439      56.785
2014   11        7     3  47    6.7814   580.3    4.436      56.765
2014   11        7     3  52    6.7792   580.3    4.434      56.744
2014   11        7     3  57    6.7771   580.3    4.431      56.722
2014   11        7     4   2    6.7750   580.4    4.428      56.701
2014   11        7     4   7    6.7728   580.4    4.426      56.679
2014   11        7     4  12    6.7707   580.4    4.423      56.657
2014   11        7     4  17    6.7685   580.4    4.420      56.634
2014   11        7     4  22    6.7663   580.5    4.417      56.610
2014   11        7     4  27    6.7644   580.5    4.414      56.586
2014   11        7     4  32    6.7620   580.5    4.411      56.561
2014   11        7     4  37    6.7600   580.6    4.408      56.536
2014   11        7     4  42    6.7577   580.6    4.405      56.510
2014   11        7     4  47    6.7555   580.6    4.402      56.484
2014   11        7     4  52    6.7535   580.6    4.399      56.457
2014   11        7     4  57    6.7511   580.7    4.396      56.430
2014   11        7     5   2    6.7490   580.7    4.393      56.403
2014   11        7     5   7    6.7468   580.7    4.389      56.375
2014   11        7     5  12    6.7448   580.7    4.386      56.347
2014   11        7     5  17    6.7425   580.7    4.383      56.318
2014   11        7     5  22    6.7403   580.8    4.380      56.289
2014   11        7     5  27    6.7382   580.8    4.377      56.260
2014   11        7     5  32    6.7362   580.8    4.374      56.230
2014   11        7     5  36    6.7338   580.8    4.371      56.200
2014   11        7     5  41    6.7317   580.8    4.368      56.170
2014   11        7     5  46    6.7295   580.8    4.365      56.140
2014   11        7     5  51    6.7276   580.9    4.362      56.109
2014   11        7     5  56    6.7252   580.9    4.359      56.079
2014   11        7     6   1    6.7231   580.9    4.356      56.048
2014   11        7     6   6    6.7210   580.9    4.353      56.018
2014   11        7     6  11    6.7189   580.9    4.350      55.987
2014   11        7     6  16    6.7168   580.9    4.348      55.957
2014   11        7     6  21    6.7146   580.9    4.345      55.927
2014   11        7     6  26    6.7126   580.9    4.343      55.897
2014   11        7     6  31    6.7105   580.9    4.340      55.868
2014   11        7     6  36    6.7084   580.9    4.338      55.840
2014   11        7     6  41    6.7064   580.9    4.336      55.812
2014   11        7     6  46    6.7045   580.9    4.334      55.785
2014   11        7     6  51    6.7023   580.9    4.332      55.759
2014   11        7     6  56    6.7005   580.9    4.331      55.733
2014   11        7     7   1    6.6986   580.9    4.329      55.709
2014   11        7     7   6    6.6965   580.9    4.328      55.686
2014   11        7     7  11    6.6947   580.9    4.327      55.664
2014   11        7     7  16    6.6927   580.9    4.326      55.643
2014   11        7     7  21    6.6908   580.9    4.325      55.624
2014   11        7     7  25    6.6890   580.9    4.325      55.607
2014   11        7     7  30    6.6872   580.8    4.324      55.591
2014   11        7     7  35    6.6854   580.8    4.323      55.576
2014   11        7     7  40    6.6836   580.8    4.323      55.563
2014   11        7     7  45    6.6819   580.8    4.323      55.550
2014   11        7     7  50    6.6802   580.8    4.322      55.539
2014   11        7     7  55    6.6785   580.8    4.322      55.527
2014   11        7     8   0    6.6768   580.8    4.321      55.516
2014   11        7     8   5    6.6751   580.8    4.321      55.505
2014   11        7     8  10    6.6735   580.8    4.321      55.495
2014   11        7     8  15    6.6719   580.8    4.320      55.484
2014   11        7     8  20    6.6702   580.8    4.320      55.472
2014   11        7     8  25    6.6686   580.8    4.319      55.462
2014   11        7     8  30    6.6670   580.8    4.318      55.450
2014   11        7     8  35    6.6654   580.8    4.318      55.438
2014   11        7     8  40    6.6638   580.8    4.317      55.425
2014   11        7     8  45    6.6622   580.8    4.316      55.411
2014   11        7     8  50    6.6606   580.7    4.316      55.397
2014   11        7     8  55    6.6591   580.7    4.315      55.382
2014   11        7     9   0    6.6575   580.7    4.314      55.367
2014   11        7     9   5    6.6560   580.7    4.313      55.352
2014   11        7     9  10    6.6544   580.7    4.313      55.336
2014   11        7     9  14    6.6529   580.7    4.312      55.320
2014   11        7     9  19    6.6515   580.7    4.311      55.304
2014   11        7     9  24    6.6500   580.7    4.311      55.288
2014   11        7     9  29    6.6486   580.6    4.310      55.271
2014   11        7     9  34    6.6471   580.6    4.309      55.255
2014   11        7     9  39    6.6457   580.6    4.309      55.239
2014   11        7     9  44    6.6443   580.6    4.308      55.222
2014   11        7     9  49    6.6429   580.6    4.307      55.206
2014   11        7     9  54    6.6416   580.6    4.307      55.190
2014   11        7     9  59    6.6403   580.6    4.306      55.174
2014   11        7    10   4    6.6390   580.6    4.306      55.159
2014   11        7    10   9    6.6378   580.5    4.305      55.144
2014   11        7    10  14    6.6364   580.5    4.305      55.130
2014   11        7    10  19    6.6352   580.5    4.304      55.116
2014   11        7    10  24    6.6341   580.5    4.304      55.102
2014   11        7    10  29    6.6328   580.5    4.303      55.089
2014   11        7    10  34    6.6315   580.5    4.303      55.075
2014   11        7    10  39    6.6304   580.5    4.302      55.061
2014   11        7    10  44    6.6292   580.5    4.302      55.048
2014   11        7    10  49    6.6280   580.5    4.301      55.034
2014   11        7    10  54    6.6269   580.5    4.300      55.021
2014   11        7    10  59    6.6256   580.5    4.300      55.008
2014   11        7    11   4    6.6245   580.5    4.299      54.994
2014   11        7    11   8    6.6233   580.5    4.298      54.980
2014   11        7    11  13    6.6221   580.5    4.298      54.966
2014   11        7    11  18    6.6209   580.5    4.297      54.952
2014   11        7    11  23    6.6197   580.5    4.296      54.937
2014   11        7    11  28    6.6186   580.5    4.295      54.923
2014   11        7    11  33    6.6174   580.5    4.295      54.908
2014   11        7    11  38    6.6162   580.5    4.294      54.893
2014   11        7    11  43    6.6150   580.5    4.293      54.879
2014   11        7    11  48    6.6139   580.5    4.292      54.864
2014   11        7    11  53    6.6128   580.5    4.292      54.849
2014   11        7    11  58    6.6115   580.5    4.291      54.834
2014   11        7    12   3    6.6103   580.5    4.290      54.819
2014   11        7    12   8    6.6092   580.5    4.289      54.804
2014   11        7    12  13    6.6079   580.5    4.289      54.788
2014   11        7    12  18    6.6067   580.5    4.288      54.773
2014   11        7    12  23    6.6055   580.5    4.287      54.757
2014   11        7    12  28    6.6043   580.5    4.287      54.742
2014   11        7    12  33    6.6032   580.4    4.286      54.726
2014   11        7    12  38    6.6020   580.4    4.285      54.710
2014   11        7    12  43    6.6008   580.4    4.285      54.694
2014   11        7    12  48    6.5996   580.4    4.284      54.678
2014   11        7    12  53    6.5984   580.4    4.283      54.662
2014   11        7    12  58    6.5972   580.4    4.283      54.646
2014   11        7    13   2    6.5960   580.4    4.282      54.630
2014   11        7    13   7    6.5948   580.4    4.281      54.613
2014   11        7    13  12    6.5935   580.4    4.280      54.597
2014   11        7    13  17    6.5924   580.4    4.280      54.580
2014   11        7    13  22    6.5911   580.4    4.279      54.564
2014   11        7    13  27    6.5899   580.4    4.278      54.547
2014   11        7    13  32    6.5886   580.4    4.278      54.530
2014   11        7    13  37    6.5874   580.4    4.277      54.513
2014   11        7    13  42    6.5861   580.4    4.276      54.496
2014   11        7    13  47    6.5849   580.4    4.276      54.480
2014   11        7    13  52    6.5836   580.4    4.275      54.463
2014   11        7    13  57    6.5825   580.3    4.275      54.446
2014   11        7    14   2    6.5812   580.3    4.274      54.430
2014   11        7    14   7    6.5799   580.3    4.273      54.413
2014   11        7    14  12    6.5786   580.3    4.273      54.397
2014   11        7    14  17    6.5774   580.3    4.272      54.381
2014   11        7    14  22    6.5762   580.3    4.272      54.365
2014   11        7    14  27    6.5749   580.3    4.271      54.349
2014   11        7    14  32    6.5736   580.3    4.271      54.334
2014   11        7    14  37    6.5724   580.2    4.270      54.318
2014   11        7    14  42    6.5711   580.2    4.270      54.303
2014   11        7    14  47    6.5700   580.2    4.269      54.288
2014   11        7    14  51    6.5687   580.2    4.268      54.273
2014   11        7    14  56    6.5675   580.2    4.268      54.258
2014   11        7    15   1    6.5662   580.2    4.267      54.244
2014   11        7    15   6    6.5650   580.2    4.267      54.230
2014   11        7    15  11    6.5638   580.1    4.266      54.216
2014   11        7    15  16    6.5626   580.1    4.266      54.202
2014   11        7    15  21    6.5615   580.1    4.265      54.188
2014   11        7    15  26    6.5603   580.1    4.264      54.174
2014   11        7    15  31    6.5591   580.1    4.264      54.160
2014   11        7    15  36    6.5580   580.0    4.263      54.146
2014   11        7    15  41    6.5568   580.0    4.262      54.132
2014   11        7    15  46    6.5557   580.0    4.262      54.118
2014   11        7    15  51    6.5546   580.0    4.261      54.103
2014   11        7    15  56    6.5534   580.0    4.260      54.088
2014   11        7    16   1    6.5523   579.9    4.259      54.073
2014   11        7    16   6    6.5512   579.9    4.258      54.058
2014   11        7    16  11    6.5501   579.9    4.258      54.042
2014   11        7    16  16    6.5491   579.9    4.257      54.027
2014   11        7    16  21    6.5480   579.9    4.256      54.010
2014   11        7    16  26    6.5470   579.8    4.255      53.994
2014   11        7    16  31    6.5459   579.8    4.254      53.977
2014   11        7    16  36    6.5449   579.8    4.253      53.960
2014   11        7    16  40    6.5438   579.8    4.252      53.943
2014   11        7    16  45    6.5429   579.7    4.251      53.925
2014   11        7    16  50    6.5419   579.7    4.250      53.907
2014   11        7    16  55    6.5409   579.7    4.249      53.889
2014   11        7    17   0    6.5399   579.7    4.248      53.871
2014   11        7    17   5    6.5390   579.6    4.247      53.853
2014   11        7    17  10    6.5381   579.6    4.246      53.834
2014   11        7    17  15    6.5371   579.6    4.245      53.816
2014   11        7    17  20    6.5362   579.5    4.244      53.797
2014   11        7    17  25    6.5353   579.5    4.243      53.779
2014   11        7    17  30    6.5345   579.5    4.242      53.760
2014   11        7    17  35    6.5336   579.5    4.241      53.741
2014   11        7    17  40    6.5328   579.4    4.240      53.723
2014   11        7    17  45    6.5319   579.4    4.239      53.704
2014   11        7    17  50    6.5312   579.4    4.238      53.686
2014   11        7    17  55    6.5303   579.4    4.237      53.667
2014   11        7    18   0    6.5295   579.3    4.236      53.649
2014   11        7    18   5    6.5287   579.3    4.235      53.632
2014   11        7    18  10    6.5279   579.3    4.234      53.614
2014   11        7    18  15    6.5271   579.2    4.233      53.596
2014   11        7    18  20    6.5264   579.2    4.233      53.579
2014   11        7    18  25    6.5256   579.2    4.232      53.562
2014   11        7    18  30    6.5248   579.2    4.231      53.545
2014   11        7    18  34    6.5241   579.1    4.231      53.528
2014   11        7    18  39    6.5233   579.1    4.230      53.512
2014   11        7    18  44    6.5226   579.1    4.230      53.496
2014   11        7    18  49    6.5218   579.1    4.229      53.480
2014   11        7    18  54    6.5211   579.0    4.229      53.464
2014   11        7    18  59    6.5204   579.0    4.228      53.449
2014   11        7    19   4    6.5196   579.0    4.228      53.433
2014   11        7    19   9    6.5189   579.0    4.227      53.418
2014   11        7    19  14    6.5182   579.0    4.227      53.403
2014   11        7    19  19    6.5174   578.9    4.227      53.389
2014   11        7    19  24    6.5167   578.9    4.226      53.374
2014   11        7    19  29    6.5159   578.9    4.226      53.360
2014   11        7    19  34    6.5152   578.9    4.226      53.346
2014   11        7    19  39    6.5145   578.8    4.226      53.332
2014   11        7    19  44    6.5137   578.8    4.226      53.318
2014   11        7    19  49    6.5130   578.8    4.226      53.304
2014   11        7    19  54    6.5122   578.8    4.226      53.291
2014   11        7    19  59    6.5114   578.8    4.226      53.277
2014   11        7    20   4    6.5107   578.7    4.226      53.264
2014   11        7    20   9    6.5099   578.7    4.226      53.251
2014   11        7    20  14    6.5091   578.7    4.226      53.237
2014   11        7    20  19    6.5083   578.7    4.227      53.224
2014   11        7    20  23    6.5075   578.7    4.227      53.211
2014   11        7    20  28    6.5067   578.6    4.227      53.198
2014   11        7    20  33    6.5058   578.6    4.227      53.186
2014   11        7    20  38    6.5050   578.6    4.228      53.173
2014   11        7    20  43    6.5042   578.6    4.228      53.160
2014   11        7    20  48    6.5033   578.5    4.228      53.148
2014   11        7    20  53    6.5024   578.5    4.229      53.136
2014   11        7    20  58    6.5016   578.5    4.229      53.124
2014   11        7    21   3    6.5007   578.5    4.229      53.111
2014   11        7    21   8    6.4998   578.5    4.230      53.099
2014   11        7    21  13    6.4990   578.4    4.230      53.088
2014   11        7    21  18    6.4981   578.4    4.230      53.076
2014   11        7    21  23    6.4972   578.4    4.231      53.064
2014   11        7    21  28    6.4963   578.4    4.231      53.052
2014   11        7    21  33    6.4954   578.3    4.231      53.040
2014   11        7    21  38    6.4945   578.3    4.232      53.028
2014   11        7    21  43    6.4936   578.3    4.232      53.016
2014   11        7    21  48    6.4927   578.3    4.232      53.003
2014   11        7    21  53    6.4918   578.2    4.232      52.991
2014   11        7    21  58    6.4909   578.2    4.233      52.979
2014   11        7    22   3    6.4900   578.2    4.233      52.967
2014   11        7    22   8    6.4890   578.1    4.233      52.954
2014   11        7    22  13    6.4882   578.1    4.233      52.942
2014   11        7    22  17    6.4873   578.1    4.233      52.929
2014   11        7    22  22    6.4864   578.0    4.233      52.917
2014   11        7    22  27    6.4855   578.0    4.233      52.904
2014   11        7    22  32    6.4846   578.0    4.233      52.891
2014   11        7    22  37    6.4837   577.9    4.232      52.878
2014   11        7    22  42    6.4829   577.9    4.232      52.865
2014   11        7    22  47    6.4820   577.9    4.232      52.851
2014   11        7    22  52    6.4812   577.8    4.232      52.838
2014   11        7    22  57    6.4803   577.8    4.231      52.824
2014   11        7    23   2    6.4795   577.8    4.231      52.809
2014   11        7    23   7    6.4787   577.7    4.230      52.795
2014   11        7    23  12    6.4778   577.7    4.230      52.780
2014   11        7    23  17    6.4770   577.7    4.229      52.764
2014   11        7    23  22    6.4763   577.6    4.229      52.749
2014   11        7    23  27    6.4755   577.6    4.228      52.733
2014   11        7    23  32    6.4747   577.6    4.228      52.717
2014   11        7    23  37    6.4739   577.5    4.227      52.700
2014   11        7    23  42    6.4733   577.5    4.226      52.683
2014   11        7    23  47    6.4725   577.4    4.225      52.666
2014   11        7    23  52    6.4718   577.4    4.225      52.649
2014   11        7    23  57    6.4710   577.3    4.224      52.631
2014   11        8     0   1    6.4703   577.3    4.223      52.614
2014   11        8     0   6    6.4697   577.3    4.222      52.596
2014   11        8     0  11    6.4690   577.2    4.221      52.577
2014   11        8     0  16    6.4684   577.2    4.221      52.559
2014   11        8     0  21    6.4677   577.1    4.220      52.540
2014   11        8     0  26    6.4670   577.1    4.219      52.522
2014   11        8     0  31    6.4664   577.0    4.218      52.503
2014   11        8     0  36    6.4658   577.0    4.217      52.484
2014   11        8     0  41    6.4652   577.0    4.216      52.464
2014   11        8     0  46    6.4646   576.9    4.215      52.445
2014   11        8     0  51    6.4640   576.9    4.214      52.426
2014   11        8     0  56    6.4634   576.8    4.213      52.406
2014   11        8     1   1    6.4629   576.8    4.212      52.387
2014   11        8     1   6    6.4623   576.7    4.211      52.367
2014   11        8     1  11    6.4617   576.7    4.211      52.348
2014   11        8     1  16    6.4611   576.6    4.210      52.328
2014   11        8     1  21    6.4606   576.6    4.209      52.309
2014   11        8     1  26    6.4601   576.5    4.208      52.289
2014   11        8     1  31    6.4595   576.5    4.207      52.270
2014   11        8     1  36    6.4590   576.4    4.206      52.251
2014   11        8     1  41    6.4585   576.4    4.205      52.232
2014   11        8     1  46    6.4580   576.3    4.205      52.213
2014   11        8     1  50    6.4575   576.3    4.204      52.194
2014   11        8     1  55    6.4570   576.2    4.203      52.175
2014   11        8     2   0    6.4564   576.2    4.203      52.157
2014   11        8     2   5    6.4559   576.1    4.202      52.139
2014   11        8     2  10    6.4554   576.1    4.201      52.121
2014   11        8     2  15    6.4550   576.0    4.201      52.104
2014   11        8     2  20    6.4545   576.0    4.200      52.087
2014   11        8     2  25    6.4540   575.9    4.200      52.070
2014   11        8     2  30    6.4535   575.9    4.200      52.054
2014   11        8     2  35    6.4531   575.9    4.200      52.038
2014   11        8     2  40    6.4526   575.8    4.199      52.022
2014   11        8     2  45    6.4521   575.8    4.199      52.007
2014   11        8     2  50    6.4517   575.7    4.199      51.992
2014   11        8     2  55    6.4512   575.7    4.199      51.977
2014   11        8     3   0    6.4508   575.6    4.199      51.963
2014   11        8     3   5    6.4503   575.6    4.199      51.949
2014   11        8     3  10    6.4498   575.5    4.199      51.935
2014   11        8     3  15    6.4494   575.5    4.200      51.921
2014   11        8     3  20    6.4489   575.4    4.200      51.908
2014   11        8     3  25    6.4484   575.4    4.200      51.894
2014   11        8     3  30    6.4479   575.3    4.200      51.881
2014   11        8     3  35    6.4474   575.3    4.201      51.868
2014   11        8     3  39    6.4468   575.3    4.201      51.855
2014   11        8     3  44    6.4463   575.2    4.202      51.842
2014   11        8     3  49    6.4457   575.2    4.202      51.829
2014   11        8     3  54    6.4452   575.1    4.203      51.815
2014   11        8     3  59    6.4446   575.1    4.203      51.802
2014   11        8     4   4    6.4440   575.0    4.204      51.789
2014   11        8     4   9    6.4435   575.0    4.204      51.775
2014   11        8     4  14    6.4429   574.9    4.205      51.762
2014   11        8     4  19    6.4423   574.9    4.205      51.748
2014   11        8     4  24    6.4417   574.8    4.206      51.734
2014   11        8     4  29    6.4411   574.8    4.206      51.721
2014   11        8     4  34    6.4405   574.7    4.207      51.707
2014   11        8     4  39    6.4399   574.6    4.207      51.693
2014   11        8     4  44    6.4394   574.6    4.208      51.679
2014   11        8     4  49    6.4388   574.5    4.208      51.665
2014   11        8     4  54    6.4383   574.5    4.209      51.651
2014   11        8     4  59    6.4377   574.4    4.210      51.637
2014   11        8     5   4    6.4372   574.4    4.210      51.623
2014   11        8     5   9    6.4366   574.3    4.211      51.609
2014   11        8     5  14    6.4361   574.3    4.212      51.596
2014   11        8     5  19    6.4356   574.2    4.213      51.582
2014   11        8     5  24    6.4351   574.1    4.213      51.568
2014   11        8     5  28    6.4345   574.1    4.214      51.554
2014   11        8     5  33    6.4340   574.0    4.215      51.540
2014   11        8     5  38    6.4335   574.0    4.216      51.527
2014   11        8     5  43    6.4330   573.9    4.216      51.513
2014   11        8     5  48    6.4325   573.8    4.217      51.499
2014   11        8     5  53    6.4320   573.8    4.218      51.486
2014   11        8     5  58    6.4315   573.7    4.219      51.472
2014   11        8     6   3    6.4310   573.7    4.219      51.459
2014   11        8     6   8    6.4305   573.6    4.220      51.445
2014   11        8     6  13    6.4300   573.6    4.221      51.432
2014   11        8     6  18    6.4295   573.5    4.221      51.418
2014   11        8     6  23    6.4290   573.4    4.222      51.405
2014   11        8     6  28    6.4285   573.4    4.223      51.391
2014   11        8     6  33    6.4280   573.3    4.223      51.377
2014   11        8     6  38    6.4275   573.2    4.223      51.363
2014   11        8     6  43    6.4270   573.2    4.224      51.349
2014   11        8     6  48    6.4265   573.1    4.224      51.334
2014   11        8     6  53    6.4260   573.0    4.225      51.320
2014   11        8     6  58    6.4255   573.0    4.225      51.305
2014   11        8     7   3    6.4251   572.9    4.225      51.290
2014   11        8     7   7    6.4246   572.9    4.225      51.275
2014   11        8     7  12    6.4242   572.8    4.225      51.259
2014   11        8     7  17    6.4237   572.7    4.226      51.243
2014   11        8     7  22    6.4233   572.6    4.226      51.227
2014   11        8     7  27    6.4229   572.6    4.226      51.211
2014   11        8     7  32    6.4224   572.5    4.226      51.195
2014   11        8     7  37    6.4220   572.4    4.226      51.178
2014   11        8     7  42    6.4216   572.4    4.226      51.161
2014   11        8     7  47    6.4212   572.3    4.226      51.144
2014   11        8     7  52    6.4209   572.2    4.226      51.127
2014   11        8     7  57    6.4205   572.1    4.225      51.109
2014   11        8     8   2    6.4202   572.1    4.225      51.092
2014   11        8     8   7    6.4199   572.0    4.225      51.074
2014   11        8     8  12    6.4195   571.9    4.225      51.056
2014   11        8     8  17    6.4192   571.8    4.225      51.038
2014   11        8     8  22    6.4189   571.8    4.225      51.020
2014   11        8     8  27    6.4187   571.7    4.225      51.002
2014   11        8     8  32    6.4184   571.6    4.224      50.983
2014   11        8     8  37    6.4182   571.5    4.224      50.965
2014   11        8     8  42    6.4179   571.4    4.224      50.947
2014   11        8     8  46    6.4177   571.4    4.224      50.928
2014   11        8     8  51    6.4175   571.3    4.224      50.910
2014   11        8     8  56    6.4173   571.2    4.224      50.891
2014   11        8     9   1    6.4171   571.1    4.224      50.873
2014   11        8     9   6    6.4169   571.0    4.224      50.855
2014   11        8     9  11    6.4168   571.0    4.224      50.836
2014   11        8     9  16    6.4166   570.9    4.224      50.818
2014   11        8     9  21    6.4165   570.8    4.224      50.800
2014   11        8     9  26    6.4163   570.7    4.224      50.782
2014   11        8     9  31    6.4162   570.6    4.224      50.764
2014   11        8     9  36    6.4160   570.5    4.224      50.746
2014   11        8     9  41    6.4159   570.5    4.224      50.729
2014   11        8     9  46    6.4158   570.4    4.224      50.711
2014   11        8     9  51    6.4157   570.3    4.225      50.694
2014   11        8     9  56    6.4155   570.2    4.225      50.677
2014   11        8    10   1    6.4154   570.1    4.225      50.660
2014   11        8    10   6    6.4154   570.0    4.226      50.643
2014   11        8    10  11    6.4152   570.0    4.226      50.627
2014   11        8    10  16    6.4151   569.9    4.227      50.610
2014   11        8    10  20    6.4150   569.8    4.227      50.594
2014   11        8    10  25    6.4150   569.7    4.228      50.579
2014   11        8    10  30    6.4149   569.6    4.229      50.563
2014   11        8    10  35    6.4148   569.5    4.229      50.548
2014   11        8    10  40    6.4147   569.5    4.230      50.533
2014   11        8    10  45    6.4146   569.4    4.231      50.519
2014   11        8    10  50    6.4146   569.3    4.232      50.504
2014   11        8    10  55    6.4145   569.2    4.233      50.491
2014   11        8    11   0    6.4145   569.1    4.234      50.477
2014   11        8    11   5    6.4145   569.0    4.235      50.464
2014   11        8    11  10    6.4144   569.0    4.236      50.451
2014   11        8    11  15    6.4144   568.9    4.237      50.439
2014   11        8    11  20    6.4144   568.8    4.239      50.427
2014   11        8    11  25    6.4145   568.7    4.240      50.415
2014   11        8    11  30    6.4145   568.6    4.242      50.404
2014   11        8    11  35    6.4145   568.5    4.243      50.393
2014   11        8    11  40    6.4146   568.4    4.245      50.383
2014   11        8    11  45    6.4146   568.4    4.246      50.373
2014   11        8    11  50    6.4147   568.3    4.248      50.363
2014   11        8    11  55    6.4149   568.2    4.250      50.354
2014   11        8    11  59    6.4151   568.1    4.252      50.346
2014   11        8    12   4    6.4152   568.0    4.253      50.337
2014   11        8    12   9    6.4153   567.9    4.255      50.330
2014   11        8    12  14    6.4156   567.8    4.257      50.322
2014   11        8    12  19    6.4158   567.8    4.259      50.316
2014   11        8    12  24    6.4160   567.7    4.261      50.309
2014   11        8    12  29    6.4163   567.6    4.263      50.302
2014   11        8    12  34    6.4166   567.5    4.265      50.296
2014   11        8    12  39    6.4169   567.4    4.267      50.289
2014   11        8    12  44    6.4172   567.3    4.269      50.283
2014   11        8    12  49    6.4175   567.3    4.271      50.277
2014   11        8    12  54    6.4178   567.2    4.273      50.270
2014   11        8    12  59    6.4182   567.1    4.275      50.264
2014   11        8    13   4    6.4185   567.0    4.277      50.258
2014   11        8    13   9    6.4189   566.9    4.278      50.251
2014   11        8    13  14    6.4193   566.9    4.280      50.244
2014   11        8    13  19    6.4196   566.8    4.282      50.237
2014   11        8    13  24    6.4200   566.7    4.284      50.230
2014   11        8    13  29    6.4204   566.6    4.286      50.222
2014   11        8    13  34    6.4208   566.5    4.287      50.215
2014   11        8    13  38    6.4212   566.4    4.289      50.207
2014   11        8    13  43    6.4216   566.4    4.291      50.199
2014   11        8    13  48    6.4220   566.3    4.292      50.191
2014   11        8    13  53    6.4225   566.2    4.294      50.182
2014   11        8    13  58    6.4229   566.1    4.295      50.173
2014   11        8    14   3    6.4233   566.0    4.297      50.164
2014   11        8    14   8    6.4238   565.9    4.298      50.155
2014   11        8    14  13    6.4242   565.9    4.300      50.145
2014   11        8    14  18    6.4247   565.8    4.301      50.136
2014   11        8    14  23    6.4252   565.7    4.302      50.125
2014   11        8    14  28    6.4257   565.6    4.304      50.115
2014   11        8    14  33    6.4262   565.5    4.305      50.105
2014   11        8    14  38    6.4268   565.4    4.306      50.094
2014   11        8    14  43    6.4273   565.4    4.307      50.083
2014   11        8    14  48    6.4279   565.3    4.309      50.071
2014   11        8    14  53    6.4285   565.2    4.310      50.060
2014   11        8    14  58    6.4291   565.1    4.311      50.048
2014   11        8    15   3    6.4297   565.0    4.312      50.036
2014   11        8    15   8    6.4303   564.9    4.313      50.024
2014   11        8    15  12    6.4309   564.9    4.314      50.012
2014   11        8    15  17    6.4316   564.8    4.315      50.000
2014   11        8    15  22    6.4322   564.7    4.316      49.988
2014   11        8    15  27    6.4330   564.6    4.317      49.975
2014   11        8    15  32    6.4336   564.5    4.318      49.963
2014   11        8    15  37    6.4343   564.4    4.319      49.950
2014   11        8    15  42    6.4352   564.4    4.320      49.938
2014   11        8    15  47    6.4359   564.3    4.321      49.925
2014   11        8    15  52    6.4367   564.2    4.322      49.912
2014   11        8    15  57    6.4373   564.1    4.323      49.900
2014   11        8    16   2    6.4382   564.0    4.324      49.887
2014   11        8    16   7    6.4390   563.9    4.325      49.874
2014   11        8    16  12    6.4397   563.9    4.326      49.862
2014   11        8    16  17    6.4405   563.8    4.327      49.849
2014   11        8    16  22    6.4413   563.7    4.328      49.837
2014   11        8    16  27    6.4421   563.6    4.329      49.824
2014   11        8    16  32    6.4429   563.5    4.330      49.812
2014   11        8    16  37    6.4438   563.4    4.331      49.800
2014   11        8    16  42    6.4446   563.4    4.333      49.787
2014   11        8    16  47    6.4455   563.3    4.334      49.776
2014   11        8    16  52    6.4463   563.2    4.335      49.764
2014   11        8    16  56    6.4472   563.1    4.336      49.752
2014   11        8    17   1    6.4481   563.0    4.337      49.741
2014   11        8    17   6    6.4489   563.0    4.338      49.729
2014   11        8    17  11    6.4498   562.9    4.339      49.718
2014   11        8    17  16    6.4507   562.8    4.340      49.708
2014   11        8    17  21    6.4517   562.7    4.342      49.697
2014   11        8    17  26    6.4526   562.6    4.343      49.687
2014   11        8    17  31    6.4535   562.5    4.344      49.677
2014   11        8    17  36    6.4545   562.5    4.345      49.668
2014   11        8    17  41    6.4554   562.4    4.347      49.659
2014   11        8    17  46    6.4564   562.3    4.348      49.650
2014   11        8    17  51    6.4576   562.2    4.350      49.642
2014   11        8    17  56    6.4584   562.1    4.351      49.634
2014   11        8    18   1    6.4596   562.1    4.353      49.626
2014   11        8    18   6    6.4605   562.0    4.355      49.619
2014   11        8    18  11    6.4615   561.9    4.356      49.612
2014   11        8    18  16    6.4626   561.8    4.358      49.606
2014   11        8    18  21    6.4637   561.8    4.360      49.600
2014   11        8    18  26    6.4648   561.7    4.362      49.595
2014   11        8    18  31    6.4660   561.6    4.364      49.590
2014   11        8    18  35    6.4671   561.5    4.365      49.586
2014   11        8    18  40    6.4683   561.5    4.368      49.582
2014   11        8    18  45    6.4695   561.4    4.370      49.579
2014   11        8    18  50    6.4707   561.3    4.372      49.576
2014   11        8    18  55    6.4720   561.2    4.374      49.573
2014   11        8    19   0    6.4733   561.2    4.376      49.571
2014   11        8    19   5    6.4746   561.1    4.378      49.569
2014   11        8    19  10    6.4761   561.0    4.381      49.568
2014   11        8    19  15    6.4773   560.9    4.383      49.567
2014   11        8    19  20    6.4787   560.9    4.386      49.567
2014   11        8    19  25    6.4801   560.8    4.388      49.567
2014   11        8    19  30    6.4816   560.7    4.391      49.568
2014   11        8    19  35    6.4830   560.7    4.393      49.569
2014   11        8    19  40    6.4845   560.6    4.396      49.570
2014   11        8    19  45    6.4860   560.5    4.398      49.572
2014   11        8    19  50    6.4876   560.5    4.401      49.574
2014   11        8    19  55    6.4892   560.4    4.404      49.576
2014   11        8    20   0    6.4908   560.3    4.406      49.579
2014   11        8    20   5    6.4924   560.3    4.409      49.582
2014   11        8    20  10    6.4941   560.2    4.411      49.584
2014   11        8    20  15    6.4958   560.1    4.414      49.587
2014   11        8    20  19    6.4975   560.1    4.417      49.590
2014   11        8    20  24    6.4992   560.0    4.419      49.593
2014   11        8    20  29    6.5011   559.9    4.422      49.596
2014   11        8    20  34    6.5027   559.9    4.424      49.600
2014   11        8    20  39    6.5045   559.8    4.427      49.603
2014   11        8    20  44    6.5062   559.7    4.429      49.606
2014   11        8    20  49    6.5080   559.7    4.432      49.609
2014   11        8    20  54    6.5098   559.6    4.435      49.612
2014   11        8    20  59    6.5116   559.6    4.437      49.615
2014   11        8    21   4    6.5134   559.5    4.440      49.618
2014   11        8    21   9    6.5153   559.4    4.442      49.621
2014   11        8    21  14    6.5171   559.4    4.445      49.624
2014   11        8    21  19    6.5191   559.3    4.447      49.627
2014   11        8    21  24    6.5207   559.3    4.450      49.629
2014   11        8    21  29    6.5225   559.2    4.452      49.632
2014   11        8    21  34    6.5244   559.2    4.454      49.635
2014   11        8    21  39    6.5262   559.1    4.457      49.638
2014   11        8    21  44    6.5280   559.1    4.459      49.641
2014   11        8    21  49    6.5298   559.0    4.462      49.644
2014   11        8    21  54    6.5317   559.0    4.464      49.648
2014   11        8    21  59    6.5335   558.9    4.466      49.651
2014   11        8    22   3    6.5353   558.9    4.469      49.655
2014   11        8    22   8    6.5371   558.8    4.471      49.658
2014   11        8    22  13    6.5390   558.8    4.473      49.663
2014   11        8    22  18    6.5408   558.7    4.475      49.667
2014   11        8    22  23    6.5426   558.7    4.478      49.671
2014   11        8    22  28    6.5445   558.6    4.480      49.676
2014   11        8    22  33    6.5463   558.6    4.482      49.680
2014   11        8    22  38    6.5481   558.5    4.484      49.685
2014   11        8    22  43    6.5500   558.5    4.486      49.690
2014   11        8    22  48    6.5518   558.5    4.488      49.695
2014   11        8    22  53    6.5536   558.4    4.490      49.700
2014   11        8    22  58    6.5556   558.4    4.492      49.705
2014   11        8    23   3    6.5573   558.3    4.494      49.710
2014   11        8    23   8    6.5591   558.3    4.495      49.714
2014   11        8    23  13    6.5611   558.3    4.497      49.719
2014   11        8    23  18    6.5628   558.2    4.499      49.724
2014   11        8    23  23    6.5647   558.2    4.501      49.729
2014   11        8    23  28    6.5665   558.1    4.502      49.734
2014   11        8    23  33    6.5683   558.1    4.504      49.738
2014   11        8    23  38    6.5701   558.1    4.506      49.743
2014   11        8    23  42    6.5720   558.0    4.507      49.748
2014   11        8    23  47    6.5738   558.0    4.509      49.753
2014   11        8    23  52    6.5756   558.0    4.510      49.757
2014   11        8    23  57    6.5775   557.9    4.512      49.762
2014   11        9     0   2    6.5793   557.9    4.514      49.767
2014   11        9     0   7    6.5812   557.9    4.515      49.772
2014   11        9     0  12    6.5830   557.8    4.517      49.777
2014   11        9     0  17    6.5848   557.8    4.518      49.782
2014   11        9     0  22    6.5866   557.8    4.520      49.786
2014   11        9     0  27    6.5885   557.7    4.521      49.792
2014   11        9     0  32    6.5903   557.7    4.523      49.797
2014   11        9     0  37    6.5922   557.7    4.524      49.802
2014   11        9     0  42    6.5940   557.6    4.525      49.807
2014   11        9     0  47    6.5959   557.6    4.527      49.813
2014   11        9     0  52    6.5977   557.6    4.528      49.818
2014   11        9     0  57    6.5996   557.5    4.530      49.824
2014   11        9     1   2    6.6014   557.5    4.531      49.830
2014   11        9     1   7    6.6033   557.5    4.533      49.836
2014   11        9     1  12    6.6052   557.5    4.534      49.842
2014   11        9     1  17    6.6071   557.4    4.536      49.849
2014   11        9     1  22    6.6089   557.4    4.537      49.855
2014   11        9     1  27    6.6108   557.4    4.539      49.862
2014   11        9     1  31    6.6127   557.4    4.541      49.869
2014   11        9     1  36    6.6146   557.3    4.542      49.876
2014   11        9     1  41    6.6166   557.3    4.544      49.883
2014   11        9     1  46    6.6185   557.3    4.545      49.891
2014   11        9     1  51    6.6204   557.3    4.547      49.899
2014   11        9     1  56    6.6223   557.3    4.549      49.907
2014   11        9     2   1    6.6243   557.2    4.550      49.915
2014   11        9     2   6    6.6262   557.2    4.552      49.924
2014   11        9     2  11    6.6282   557.2    4.554      49.933
2014   11        9     2  16    6.6302   557.2    4.555      49.942
2014   11        9     2  21    6.6321   557.2    4.557      49.951
2014   11        9     2  26    6.6341   557.2    4.559      49.961
2014   11        9     2  31    6.6361   557.1    4.561      49.970
2014   11        9     2  36    6.6381   557.1    4.563      49.980
2014   11        9     2  41    6.6401   557.1    4.564      49.991
2014   11        9     2  46    6.6421   557.1    4.566      50.001
2014   11        9     2  51    6.6441   557.1    4.568      50.012
2014   11        9     2  56    6.6461   557.1    4.570      50.023
2014   11        9     3   1    6.6482   557.1    4.572      50.035
2014   11        9     3   6    6.6502   557.1    4.574      50.046
2014   11        9     3  11    6.6522   557.1    4.576      50.058
2014   11        9     3  15    6.6542   557.1    4.578      50.069
2014   11        9     3  20    6.6562   557.1    4.580      50.081
2014   11        9     3  25    6.6582   557.0    4.581      50.093
2014   11        9     3  30    6.6602   557.0    4.583      50.106
2014   11        9     3  35    6.6622   557.0    4.585      50.118
2014   11        9     3  40    6.6642   557.0    4.587      50.131
2014   11        9     3  45    6.6662   557.0    4.589      50.144
2014   11        9     3  50    6.6682   557.0    4.591      50.156
2014   11        9     3  55    6.6701   557.0    4.593      50.169
2014   11        9     4   0    6.6721   557.0    4.595      50.182
2014   11        9     4   5    6.6740   557.0    4.597      50.195
2014   11        9     4  10    6.6760   557.0    4.599      50.209
2014   11        9     4  15    6.6779   557.0    4.601      50.222
2014   11        9     4  20    6.6797   557.0    4.603      50.235
2014   11        9     4  25    6.6817   557.0    4.606      50.249
2014   11        9     4  30    6.6835   557.0    4.608      50.263
2014   11        9     4  35    6.6854   557.0    4.610      50.277
2014   11        9     4  40    6.6872   557.0    4.612      50.291
2014   11        9     4  45    6.6891   557.0    4.614      50.305
2014   11        9     4  50    6.6909   557.0    4.616      50.320
2014   11        9     4  55    6.6927   557.0    4.618      50.335
2014   11        9     4  59    6.6945   557.0    4.620      50.350
2014   11        9     5   4    6.6963   557.0    4.622      50.365
2014   11        9     5   9    6.6981   557.0    4.624      50.381
2014   11        9     5  14    6.6999   557.0    4.626      50.397
2014   11        9     5  19    6.7016   557.0    4.629      50.413
2014   11        9     5  24    6.7034   557.1    4.631      50.429
2014   11        9     5  29    6.7051   557.1    4.633      50.446
2014   11        9     5  34    6.7069   557.1    4.635      50.463
2014   11        9     5  39    6.7087   557.1    4.637      50.480
2014   11        9     5  44    6.7104   557.1    4.640      50.498
2014   11        9     5  49    6.7122   557.1    4.642      50.516
2014   11        9     5  54    6.7139   557.1    4.644      50.534
2014   11        9     5  59    6.7157   557.1    4.646      50.553
2014   11        9     6   4    6.7174   557.1    4.648      50.573
2014   11        9     6   9    6.7192   557.1    4.650      50.593
2014   11        9     6  14    6.7209   557.1    4.653      50.614
2014   11        9     6  19    6.7227   557.1    4.655      50.636
2014   11        9     6  24    6.7244   557.1    4.657      50.658
2014   11        9     6  29    6.7262   557.1    4.658      50.680
2014   11        9     6  34    6.7280   557.2    4.660      50.703
2014   11        9     6  39    6.7298   557.2    4.662      50.725
2014   11        9     6  43    6.7315   557.2    4.664      50.748
2014   11        9     6  48    6.7333   557.2    4.665      50.771
2014   11        9     6  53    6.7350   557.2    4.667      50.794
2014   11        9     6  58    6.7368   557.2    4.668      50.817
2014   11        9     7   3    6.7385   557.2    4.670      50.839
2014   11        9     7   8    6.7402   557.3    4.671      50.862
2014   11        9     7  13    6.7419   557.3    4.672      50.883
2014   11        9     7  18    6.7436   557.3    4.674      50.904
2014   11        9     7  23    6.7453   557.3    4.675      50.925
2014   11        9     7  28    6.7470   557.3    4.676      50.946
2014   11        9     7  33    6.7487   557.4    4.677      50.966
2014   11        9     7  38    6.7504   557.4    4.678      50.985
2014   11        9     7  43    6.7520   557.4    4.678      51.004
2014   11        9     7  48    6.7537   557.4    4.679      51.023
2014   11        9     7  53    6.7553   557.5    4.680      51.041
2014   11        9     7  58    6.7569   557.5    4.680      51.058
2014   11        9     8   3    6.7585   557.5    4.681      51.076
2014   11        9     8   8    6.7602   557.5    4.682      51.093
2014   11        9     8  13    6.7618   557.5    4.682      51.109
2014   11        9     8  18    6.7633   557.6    4.682      51.125
2014   11        9     8  23    6.7649   557.6    4.683      51.141
2014   11        9     8  28    6.7664   557.6    4.683      51.156
2014   11        9     8  32    6.7681   557.7    4.683      51.171
2014   11        9     8  37    6.7696   557.7    4.684      51.186
2014   11        9     8  42    6.7712   557.7    4.684      51.200
2014   11        9     8  47    6.7727   557.7    4.684      51.214
2014   11        9     8  52    6.7742   557.8    4.684      51.228
2014   11        9     8  57    6.7758   557.8    4.684      51.242
2014   11        9     9   2    6.7773   557.8    4.684      51.255
2014   11        9     9   7    6.7788   557.9    4.684      51.269
2014   11        9     9  12    6.7803   557.9    4.684      51.282
2014   11        9     9  17    6.7818   557.9    4.684      51.294
2014   11        9     9  22    6.7833   557.9    4.684      51.307
2014   11        9     9  27    6.7848   558.0    4.684      51.320
2014   11        9     9  32    6.7862   558.0    4.684      51.332
2014   11        9     9  37    6.7877   558.0    4.684      51.345
2014   11        9     9  42    6.7892   558.1    4.684      51.357
2014   11        9     9  47    6.7906   558.1    4.684      51.369
2014   11        9     9  52    6.7921   558.1    4.684      51.381
2014   11        9     9  57    6.7935   558.2    4.684      51.393
2014   11        9    10   2    6.7950   558.2    4.683      51.406
2014   11        9    10   7    6.7964   558.3    4.683      51.417
2014   11        9    10  12    6.7978   558.3    4.683      51.429
2014   11        9    10  17    6.7992   558.3    4.683      51.442
2014   11        9    10  21    6.8006   558.4    4.683      51.454
2014   11        9    10  26    6.8019   558.4    4.682      51.466
2014   11        9    10  31    6.8032   558.4    4.682      51.478
2014   11        9    10  36    6.8046   558.5    4.682      51.490
2014   11        9    10  41    6.8060   558.5    4.682      51.502
2014   11        9    10  46    6.8073   558.6    4.682      51.514
2014   11        9    10  51    6.8086   558.6    4.682      51.526
2014   11        9    10  56    6.8099   558.6    4.681      51.538
2014   11        9    11   1    6.8111   558.7    4.681      51.551
2014   11        9    11   6    6.8125   558.7    4.681      51.563
2014   11        9    11  11    6.8137   558.8    4.681      51.576
2014   11        9    11  16    6.8149   558.8    4.681      51.589
2014   11        9    11  21    6.8162   558.8    4.681      51.601
2014   11        9    11  26    6.8174   558.9    4.681      51.614
2014   11        9    11  31    6.8186   558.9    4.681      51.628
2014   11        9    11  36    6.8198   559.0    4.681      51.641
2014   11        9    11  41    6.8209   559.0    4.681      51.655
2014   11        9    11  46    6.8221   559.0    4.681      51.668
2014   11        9    11  51    6.8233   559.1    4.681      51.682
2014   11        9    11  56    6.8244   559.1    4.681      51.697
2014   11        9    12   1    6.8255   559.2    4.681      51.712
2014   11        9    12   5    6.8267   559.2    4.682      51.727
2014   11        9    12  10    6.8278   559.2    4.682      51.742
2014   11        9    12  15    6.8289   559.3    4.682      51.758
2014   11        9    12  20    6.8300   559.3    4.683      51.774
2014   11        9    12  25    6.8310   559.4    4.684      51.791
2014   11        9    12  30    6.8322   559.4    4.684      51.808
2014   11        9    12  35    6.8332   559.4    4.685      51.825
2014   11        9    12  40    6.8342   559.5    4.686      51.843
2014   11        9    12  45    6.8354   559.5    4.687      51.862
2014   11        9    12  50    6.8365   559.6    4.688      51.881
2014   11        9    12  55    6.8375   559.6    4.690      51.900
2014   11        9    13   0    6.8386   559.6    4.691      51.921
2014   11        9    13   5    6.8396   559.7    4.693      51.942
2014   11        9    13  10    6.8407   559.7    4.694      51.964
2014   11        9    13  15    6.8418   559.8    4.696      51.987
2014   11        9    13  20    6.8429   559.8    4.697      52.010
2014   11        9    13  25    6.8440   559.8    4.699      52.035
2014   11        9    13  30    6.8451   559.9    4.701      52.060
2014   11        9    13  35    6.8462   559.9    4.703      52.086
2014   11        9    13  40    6.8473   560.0    4.705      52.113
2014   11        9    13  45    6.8484   560.0    4.707      52.142
2014   11        9    13  49    6.8495   560.1    4.708      52.171
2014   11        9    13  54    6.8506   560.1    4.710      52.201
2014   11        9    13  59    6.8517   560.2    4.712      52.232
2014   11        9    14   4    6.8528   560.2    4.714      52.263
2014   11        9    14   9    6.8540   560.3    4.715      52.294
2014   11        9    14  14    6.8551   560.3    4.717      52.325
2014   11        9    14  19    6.8562   560.4    4.718      52.356
2014   11        9    14  24    6.8573   560.4    4.719      52.386
2014   11        9    14  29    6.8583   560.5    4.720      52.417
2014   11        9    14  34    6.8594   560.5    4.721      52.446
2014   11        9    14  39    6.8605   560.5    4.722      52.475
2014   11        9    14  44    6.8616   560.6    4.723      52.504
2014   11        9    14  49    6.8626   560.6    4.724      52.531
2014   11        9    14  54    6.8636   560.7    4.725      52.557
2014   11        9    14  59    6.8646   560.7    4.725      52.583
2014   11        9    15   4    6.8657   560.8    4.726      52.608
2014   11        9    15   9    6.8667   560.8    4.726      52.632
2014   11        9    15  14    6.8677   560.9    4.726      52.656
2014   11        9    15  19    6.8686   560.9    4.727      52.678
2014   11        9    15  24    6.8696   561.0    4.727      52.700
2014   11        9    15  29    6.8706   561.0    4.727      52.722
2014   11        9    15  34    6.8715   561.1    4.727      52.743
2014   11        9    15  38    6.8725   561.1    4.727      52.764
2014   11        9    15  43    6.8734   561.2    4.727      52.785
2014   11        9    15  48    6.8743   561.2    4.727      52.805
2014   11        9    15  53    6.8752   561.3    4.727      52.824
2014   11        9    15  58    6.8761   561.4    4.727      52.843
2014   11        9    16   3    6.8770   561.4    4.726      52.862
2014   11        9    16   8    6.8779   561.5    4.726      52.880
2014   11        9    16  13    6.8788   561.5    4.725      52.898
2014   11        9    16  18    6.8796   561.6    4.725      52.915
2014   11        9    16  23    6.8804   561.6    4.725      52.932
2014   11        9    16  28    6.8812   561.7    4.724      52.949
2014   11        9    16  33    6.8821   561.8    4.723      52.965
2014   11        9    16  38    6.8830   561.8    4.723      52.980
2014   11        9    16  43    6.8838   561.9    4.722      52.996
2014   11        9    16  48    6.8846   561.9    4.721      53.011
2014   11        9    16  53    6.8855   562.0    4.721      53.026
2014   11        9    16  58    6.8863   562.1    4.720      53.041
2014   11        9    17   3    6.8872   562.1    4.719      53.056
2014   11        9    17   8    6.8881   562.2    4.718      53.071
2014   11        9    17  13    6.8890   562.3    4.717      53.086
2014   11        9    17  18    6.8900   562.3    4.716      53.100
2014   11        9    17  23    6.8910   562.4    4.716      53.115
2014   11        9    17  27    6.8921   562.5    4.715      53.130
2014   11        9    17  32    6.8932   562.6    4.714      53.146
2014   11        9    17  37    6.8943   562.6    4.713      53.162
2014   11        9    17  42    6.8956   562.7    4.713      53.179
2014   11        9    17  47    6.8970   562.8    4.712      53.198
2014   11        9    17  52    6.8985   562.9    4.711      53.218
2014   11        9    17  57    6.9002   563.0    4.711      53.242
2014   11        9    18   2    6.9021   563.0    4.711      53.269
2014   11        9    18   7    6.9043   563.1    4.711      53.300
2014   11        9    18  12    6.9069   563.2    4.712      53.339
2014   11        9    18  17    6.9100   563.4    4.713      53.385
2014   11        9    18  22    6.9136   563.5    4.715      53.443
2014   11        9    18  27    6.9180   563.6    4.717      53.516
2014   11        9    18  32    6.9233   563.8    4.720      53.608
2014   11        9    18  37    6.9299   564.0    4.725      53.725
2014   11        9    18  42    6.9380   564.2    4.731      53.874
2014   11        9    18  47    6.9478   564.5    4.740      54.065
2014   11        9    18  52    6.9598   564.8    4.750      54.310
2014   11        9    18  57    6.9750   565.2    4.764      54.625
2014   11        9    19   2    6.9934   565.7    4.782      55.029
2014   11        9    19   7    7.0167   566.3    4.804      55.549
2014   11        9    19  11    7.0448   567.0    4.831      56.215
2014   11        9    19  16    7.0805   567.9    4.866      57.066
2014   11        9    19  21    7.1236   569.0    4.909      58.150
2014   11        9    19  26    7.1779   570.4    4.962      59.522
2014   11        9    19  31    7.2468   572.0    5.027      61.249
2014   11        9    19  36    7.3299   574.0    5.106      63.406
2014   11        9    19  41    7.4238   576.5    5.201      66.071
2014   11        9    19  46    7.5459   579.3    5.316      69.329
2014   11        9    19  51    7.6916   582.7    5.454      73.264
2014   11        9    19  56    7.8722   586.7    5.618      77.946
2014   11        9    20   1    8.0831   591.3    5.811      83.421
2014   11        9    20   6    8.3320   596.4    6.036      89.761
2014   11        9    20  11    8.6124   602.1    6.298      96.953
2014   11        9    20  16    8.9311   608.2    6.601     104.938
2014   11        9    20  21    9.2918   614.8    6.945     113.686
2014   11        9    20  26    9.6789   621.8    7.335     123.323
2014   11        9    20  31   10.0870   628.9    7.778     133.354
2014   11        9    20  36   10.5289   636.3    8.271     143.533
2014   11        9    20  41   10.9809   643.6    8.815     153.602
2014   11        9    20  46   11.4371   650.9    9.406     163.341
2014   11        9    20  51   11.8902   657.9   10.041     172.711
2014   11        9    20  55   12.3352   664.4   10.721     181.807
2014   11        9    21   0   12.7682   670.7   11.443     190.244
2014   11        9    21   5   13.1777   676.7   12.198     197.915
2014   11        9    21  10   13.5601   682.3   12.978     204.627
2014   11        9    21  15   13.9082   687.5   13.772     210.395
2014   11        9    21  20   14.2223   692.3   14.568     215.319
2014   11        9    21  25   14.4987   696.5   15.362     219.583
2014   11        9    21  30   14.7409   700.4   16.148     223.169
2014   11        9    21  35   14.9452   704.0   16.919     226.104
2014   11        9    21  40   15.1171   707.3   17.667     228.298
2014   11        9    21  45   15.2518   710.3   18.381     229.878
2014   11        9    21  50   15.3561   713.0   19.055     230.950
2014   11        9    21  55   15.4296   715.5   19.688     231.587
2014   11        9    22   0   15.4783   717.6   20.279     231.854
2014   11        9    22   5   15.5013   719.6   20.827     231.791
2014   11        9    22  10   15.5027   721.4   21.330     231.439
2014   11        9    22  15   15.4824   723.0   21.788     230.823
2014   11        9    22  20   15.4440   724.5   22.199     230.007
2014   11        9    22  25   15.3876   725.8   22.567     229.037
2014   11        9    22  30   15.3159   727.0   22.894     227.957
2014   11        9    22  35   15.2289   728.1   23.182     226.794
2014   11        9    22  40   15.1236   729.1   23.433     225.574
2014   11        9    22  45   15.0102   730.0   23.649     224.330
2014   11        9    22  49   14.8807   730.8   23.832     223.075
2014   11        9    22  54   14.7395   731.6   23.985     221.821
2014   11        9    22  59   14.5875   732.3   24.110     220.579
2014   11        9    23   4   14.4254   732.9   24.209     219.363
2014   11        9    23   9   14.2555   733.5   24.285     218.171
2014   11        9    23  14   14.0793   734.1   24.339     216.999
2014   11        9    23  19   13.8976   734.5   24.374     215.842
2014   11        9    23  24   13.7123   735.0   24.392     214.690
2014   11        9    23  29   13.5254   735.4   24.395     213.534
2014   11        9    23  34   13.3385   735.7   24.384     212.360
2014   11        9    23  39   13.1520   736.0   24.361     211.161
2014   11        9    23  44   12.9671   736.3   24.328     209.926
2014   11        9    23  49   12.7840   736.6   24.286     208.641
2014   11        9    23  54   12.6050   736.8   24.236     207.293
2014   11        9    23  59   12.4292   737.0   24.180     205.872
2014   11       10     0   4   12.2577   737.1   24.117     204.374
2014   11       10     0   9   12.0897   737.2   24.048     202.790
2014   11       10     0  14   11.9261   737.4   23.973     201.117
2014   11       10     0  19   11.7660   737.5   23.893     199.351
2014   11       10     0  24   11.6099   737.6   23.806     197.494
2014   11       10     0  29   11.4565   737.7   23.712     195.542
2014   11       10     0  34   11.3063   737.7   23.611     193.495
2014   11       10     0  38   11.1584   737.8   23.502     191.354
2014   11       10     0  43   11.0137   737.9   23.383     189.122
2014   11       10     0  48   10.8703   738.0   23.253     186.798
2014   11       10     0  53   10.7285   738.0   23.111     184.385
2014   11       10     0  58   10.5879   738.1   22.955     181.881
2014   11       10     1   3   10.4483   738.1   22.784     179.286
2014   11       10     1   8   10.3096   738.2   22.598     176.600
2014   11       10     1  13   10.1720   738.2   22.393     173.827
2014   11       10     1  18   10.0361   738.3   22.169     170.949
2014   11       10     1  23    9.9019   738.3   21.924     167.968
2014   11       10     1  28    9.7705   738.3   21.657     164.896
2014   11       10     1  33    9.6417   738.3   21.368     161.748
2014   11       10     1  38    9.5165   738.4   21.053     158.521
2014   11       10     1  43    9.3950   738.4   20.713     155.237
2014   11       10     1  48    9.2782   738.4   20.346     151.921
2014   11       10     1  53    9.1659   738.5   19.952     148.578
2014   11       10     1  58    9.0588   738.6   19.527     145.255
2014   11       10     2   3    8.9567   738.6   19.073     141.977
2014   11       10     2   8    8.8601   738.7   18.591     138.771
2014   11       10     2  13    8.7688   738.8   18.084     135.645
2014   11       10     2  18    8.6830   738.9   17.553     132.596
2014   11       10     2  22    8.6024   739.0   17.001     129.646
2014   11       10     2  27    8.5271   739.1   16.429     126.820
2014   11       10     2  32    8.4569   739.3   15.841     124.136
2014   11       10     2  37    8.3916   739.5   15.241     121.583
2014   11       10     2  42    8.3309   739.6   14.634     119.165
2014   11       10     2  47    8.2731   739.8   14.026     116.860
2014   11       10     2  52    8.2222   740.0   13.422     114.642
2014   11       10     2  57    8.1735   740.2   12.824     112.514
2014   11       10     3   2    8.1280   740.4   12.235     110.469
2014   11       10     3   7    8.0856   740.7   11.658     108.517
2014   11       10     3  12    8.0457   741.0   11.095     106.637
2014   11       10     3  17    8.0082   741.2   10.550     104.797
2014   11       10     3  22    7.9724   741.5   10.026     102.978
2014   11       10     3  27    7.9384   741.8    9.524     101.167
2014   11       10     3  32    7.9056   742.1    9.043      99.361
2014   11       10     3  37    7.8742   742.4    8.583      97.559
2014   11       10     3  42    7.8432   742.8    8.145      95.755
2014   11       10     3  47    7.8134   743.1    7.729      93.946
2014   11       10     3  52    7.7838   743.4    7.334      92.115
2014   11       10     3  57    7.7527   743.7    6.961      90.263
2014   11       10     4   2    7.7262   744.1    6.609      88.393
2014   11       10     4   7    7.6981   744.4    6.276      86.507
2014   11       10     4  11    7.6698   744.7    5.961      84.607
2014   11       10     4  16    7.6421   745.0    5.665      82.694
2014   11       10     4  21    7.6142   745.3    5.386      80.771
2014   11       10     4  26    7.5869   745.6    5.123      78.840
2014   11       10     4  31    7.5593   745.9    4.876      76.904
2014   11       10     4  36    7.5323   746.2    4.644      74.967
2014   11       10     4  41    7.5050   746.4    4.426      73.031
2014   11       10     4  46    7.4782   746.7    4.221      71.101
2014   11       10     4  51    7.4484   746.9    4.029      69.179
2014   11       10     4  56    7.4247   747.2    3.849      67.269
2014   11       10     5   1    7.3980   747.4    3.680      65.376
2014   11       10     5   6    7.3719   747.5    3.522      63.502
2014   11       10     5  11    7.3457   747.7    3.374      61.653
2014   11       10     5  16    7.3200   747.8    3.236      59.833
2014   11       10     5  21    7.2942   747.9    3.107      58.044
2014   11       10     5  26    7.2690   748.0    2.986      56.291
2014   11       10     5  31    7.2438   748.0    2.873      54.578
2014   11       10     5  36    7.2190   748.0    2.768      52.907
2014   11       10     5  41    7.1944   748.0    2.669      51.282
2014   11       10     5  46    7.1681   748.0    2.578      49.706
2014   11       10     5  51    7.1462   747.9    2.492      48.181
2014   11       10     5  56    7.1226   747.8    2.413      46.709
2014   11       10     6   0    7.0993   747.6    2.338      45.291
2014   11       10     6   5    7.0746   747.4    2.269      43.931
2014   11       10     6  10    7.0537   747.2    2.205      42.627
2014   11       10     6  15    7.0315   746.9    2.145      41.382
2014   11       10     6  20    7.0097   746.6    2.089      40.195
2014   11       10     6  25    6.9882   746.3    2.037      39.066
2014   11       10     6  30    6.9673   745.9    1.988      37.995
2014   11       10     6  35    6.9467   745.5    1.943      36.980
2014   11       10     6  40    6.9265   745.1    1.901      36.021
2014   11       10     6  45    6.9068   744.6    1.862      35.117
2014   11       10     6  50    6.8876   744.1    1.825      34.266
2014   11       10     6  55    6.8687   743.6    1.791      33.466
2014   11       10     7   0    6.8504   743.1    1.759      32.715
2014   11       10     7   5    6.8324   742.5    1.729      32.012
2014   11       10     7  10    6.8151   741.9    1.702      31.354
2014   11       10     7  15    6.7979   741.3    1.676      30.738
2014   11       10     7  20    6.7815   740.7    1.651      30.164
2014   11       10     7  25    6.7652   740.1    1.629      29.629
2014   11       10     7  30    6.7496   739.4    1.607      29.130
2014   11       10     7  35    6.7342   738.8    1.587      28.665
2014   11       10     7  40    6.7195   738.1    1.568      28.233
2014   11       10     7  45    6.7049   737.4    1.551      27.831
2014   11       10     7  49    6.6909   736.7    1.534      27.458
2014   11       10     7  54    6.6772   736.0    1.518      27.111
2014   11       10     7  59    6.6640   735.2    1.504      26.789
2014   11       10     8   4    6.6510   734.5    1.490      26.489
2014   11       10     8   9    6.6386   733.8    1.476      26.211
2014   11       10     8  14    6.6262   733.0    1.464      25.952
2014   11       10     8  19    6.6145   732.3    1.452      25.712
2014   11       10     8  24    6.6029   731.5    1.441      25.488
2014   11       10     8  29    6.5918   730.8    1.430      25.281
2014   11       10     8  34    6.5808   730.0    1.419      25.087
2014   11       10     8  39    6.5703   729.3    1.410      24.907
2014   11       10     8  44    6.5600   728.5    1.400      24.738
2014   11       10     8  49    6.5500   727.7    1.391      24.581
2014   11       10     8  54    6.5402   727.0    1.383      24.435
2014   11       10     8  59    6.5309   726.2    1.374      24.298
2014   11       10     9   4    6.5216   725.5    1.366      24.169
2014   11       10     9   9    6.5126   724.7    1.359      24.049
2014   11       10     9  14    6.5038   723.9    1.351      23.936
2014   11       10     9  19    6.4954   723.2    1.344      23.829
2014   11       10     9  24    6.4870   722.4    1.337      23.729
2014   11       10     9  29    6.4790   721.7    1.330      23.634
2014   11       10     9  33    6.4710   720.9    1.324      23.544
2014   11       10     9  38    6.4634   720.2    1.317      23.459
2014   11       10     9  43    6.4558   719.4    1.311      23.379
2014   11       10     9  48    6.4485   718.7    1.305      23.303
2014   11       10     9  53    6.4413   717.9    1.299      23.230
2014   11       10     9  58    6.4343   717.2    1.293      23.162
2014   11       10    10   3    6.4274   716.5    1.287      23.096
2014   11       10    10   8    6.4208   715.7    1.282      23.033
2014   11       10    10  13    6.4142   715.0    1.276      22.974
2014   11       10    10  18    6.4078   714.3    1.271      22.917
2014   11       10    10  23    6.4015   713.6    1.266      22.863
2014   11       10    10  28    6.3954   712.9    1.261      22.812
2014   11       10    10  33    6.3894   712.1    1.256      22.764
2014   11       10    10  38    6.3835   711.4    1.251      22.718
2014   11       10    10  43    6.3784   710.7    1.246      22.674
2014   11       10    10  48    6.3721   710.0    1.241      22.634
2014   11       10    10  53    6.3672   709.4    1.236      22.596
2014   11       10    10  58    6.3611   708.7    1.231      22.560
2014   11       10    11   3    6.3557   708.0    1.226      22.526
2014   11       10    11   8    6.3511   707.3    1.222      22.495
2014   11       10    11  13    6.3452   706.6    1.217      22.466
2014   11       10    11  18    6.3402   706.0    1.213      22.439
2014   11       10    11  22    6.3351   705.3    1.208      22.414
2014   11       10    11  27    6.3303   704.6    1.204      22.392
2014   11       10    11  32    6.3254   704.0    1.199      22.370
2014   11       10    11  37    6.3207   703.3    1.195      22.351
2014   11       10    11  42    6.3167   702.6    1.191      22.334
2014   11       10    11  47    6.3114   702.0    1.186      22.318
2014   11       10    11  52    6.3075   701.3    1.182      22.303
2014   11       10    11  57    6.3024   700.7    1.178      22.290
2014   11       10    12   2    6.2979   700.1    1.174      22.278
2014   11       10    12   7    6.2943   699.4    1.170      22.267
2014   11       10    12  12    6.2893   698.8    1.166      22.258
2014   11       10    12  17    6.2851   698.2    1.162      22.249
2014   11       10    12  22    6.2809   697.5    1.158      22.242
2014   11       10    12  27    6.2768   696.9    1.154      22.235
2014   11       10    12  32    6.2728   696.3    1.150      22.230
2014   11       10    12  37    6.2688   695.7    1.146      22.226
2014   11       10    12  42    6.2648   695.0    1.142      22.223
2014   11       10    12  47    6.2610   694.4    1.138      22.221
2014   11       10    12  52    6.2577   693.8    1.135      22.221
2014   11       10    12  57    6.2533   693.2    1.131      22.221
2014   11       10    13   2    6.2496   692.6    1.127      22.222
2014   11       10    13   7    6.2459   692.0    1.124      22.225
2014   11       10    13  11    6.2422   691.4    1.120      22.228
2014   11       10    13  16    6.2386   690.8    1.116      22.233
2014   11       10    13  21    6.2351   690.2    1.113      22.238
2014   11       10    13  26    6.2315   689.6    1.109      22.245
2014   11       10    13  31    6.2280   689.0    1.106      22.252
2014   11       10    13  36    6.2246   688.4    1.102      22.261
2014   11       10    13  41    6.2218   687.9    1.099      22.271
2014   11       10    13  46    6.2179   687.3    1.096      22.281
2014   11       10    13  51    6.2145   686.7    1.092      22.293
2014   11       10    13  56    6.2112   686.1    1.089      22.305
2014   11       10    14   1    6.2079   685.6    1.086      22.319
2014   11       10    14   6    6.2047   685.0    1.083      22.333
2014   11       10    14  11    6.2015   684.4    1.079      22.348
2014   11       10    14  16    6.1983   683.8    1.076      22.364
2014   11       10    14  21    6.1951   683.2    1.073      22.381
2014   11       10    14  26    6.1925   682.6    1.070      22.399
2014   11       10    14  31    6.1889   682.0    1.067      22.418
2014   11       10    14  36    6.1858   681.4    1.064      22.438
2014   11       10    14  41    6.1828   680.8    1.061      22.460
2014   11       10    14  46    6.1797   680.2    1.058      22.483
2014   11       10    14  51    6.1767   679.6    1.056      22.508
2014   11       10    14  56    6.1738   679.0    1.053      22.535
2014   11       10    15   0    6.1708   678.3    1.050      22.564
2014   11       10    15   5    6.1679   677.7    1.048      22.596
2014   11       10    15  10    6.1650   677.0    1.046      22.630
2014   11       10    15  15    6.1621   676.4    1.044      22.668
2014   11       10    15  20    6.1593   675.7    1.042      22.708
2014   11       10    15  25    6.1570   675.1    1.040      22.753
2014   11       10    15  30    6.1537   674.4    1.039      22.802
2014   11       10    15  35    6.1510   673.7    1.037      22.854
2014   11       10    15  40    6.1482   673.1    1.036      22.911
2014   11       10    15  45    6.1456   672.4    1.036      22.973
2014   11       10    15  50    6.1429   671.7    1.035      23.040
2014   11       10    15  55    6.1403   671.1    1.035      23.111
2014   11       10    16   0    6.1376   670.4    1.035      23.188
2014   11       10    16   5    6.1351   669.8    1.036      23.270
2014   11       10    16  10    6.1325   669.1    1.036      23.357
2014   11       10    16  15    6.1299   668.4    1.038      23.449
2014   11       10    16  20    6.1278   667.8    1.039      23.547
2014   11       10    16  25    6.1249   667.1    1.041      23.649
2014   11       10    16  30    6.1224   666.5    1.043      23.757
2014   11       10    16  35    6.1199   665.8    1.046      23.870
2014   11       10    16  40    6.1174   665.2    1.049      23.988
2014   11       10    16  45    6.1149   664.6    1.052      24.110
2014   11       10    16  49    6.1124   663.9    1.056      24.237
2014   11       10    16  54    6.1100   663.3    1.060      24.368
2014   11       10    16  59    6.1079   662.7    1.065      24.503
2014   11       10    17   4    6.1051   662.1    1.070      24.643
2014   11       10    17   9    6.1027   661.5    1.075      24.785
2014   11       10    17  14    6.1003   660.9    1.081      24.931
2014   11       10    17  19    6.0979   660.4    1.087      25.081
2014   11       10    17  24    6.0956   659.8    1.094      25.232
2014   11       10    17  29    6.0932   659.2    1.101      25.386
2014   11       10    17  34    6.0908   658.7    1.108      25.542
2014   11       10    17  39    6.0885   658.2    1.116      25.699
2014   11       10    17  44    6.0861   657.6    1.124      25.858
2014   11       10    17  49    6.0838   657.1    1.133      26.018
2014   11       10    17  54    6.0815   656.6    1.142      26.178
2014   11       10    17  59    6.0792   656.1    1.151      26.338
2014   11       10    18   4    6.0771   655.7    1.161      26.498
2014   11       10    18   9    6.0745   655.2    1.171      26.658
2014   11       10    18  14    6.0722   654.7    1.181      26.817
2014   11       10    18  19    6.0699   654.3    1.191      26.975
2014   11       10    18  24    6.0676   653.8    1.202      27.131
2014   11       10    18  29    6.0653   653.4    1.213      27.285
2014   11       10    18  33    6.0630   652.9    1.224      27.438
2014   11       10    18  38    6.0608   652.5    1.235      27.587
2014   11       10    18  43    6.0585   652.1    1.247      27.735
2014   11       10    18  48    6.0562   651.6    1.258      27.880
2014   11       10    18  53    6.0540   651.2    1.270      28.022
2014   11       10    18  58    6.0517   650.8    1.282      28.162
2014   11       10    19   3    6.0495   650.3    1.294      28.298
2014   11       10    19   8    6.0472   649.9    1.306      28.432
2014   11       10    19  13    6.0450   649.4    1.318      28.563
2014   11       10    19  18    6.0428   649.0    1.331      28.691
2014   11       10    19  23    6.0406   648.6    1.343      28.816
2014   11       10    19  28    6.0384   648.1    1.355      28.939
2014   11       10    19  33    6.0363   647.7    1.368      29.060
2014   11       10    19  38    6.0341   647.2    1.380      29.178
2014   11       10    19  43    6.0320   646.8    1.393      29.294
2014   11       10    19  48    6.0299   646.3    1.405      29.408
2014   11       10    19  53    6.0278   645.9    1.418      29.520
2014   11       10    19  58    6.0257   645.5    1.430      29.630
2014   11       10    20   3    6.0236   645.0    1.443      29.738
2014   11       10    20   8    6.0215   644.6    1.456      29.844
2014   11       10    20  13    6.0195   644.2    1.468      29.949
2014   11       10    20  18    6.0176   643.7    1.481      30.052
2014   11       10    20  23    6.0154   643.3    1.493      30.153
2014   11       10    20  27    6.0134   642.9    1.506      30.252
2014   11       10    20  32    6.0114   642.4    1.518      30.350
2014   11       10    20  37    6.0095   642.0    1.531      30.446
2014   11       10    20  42    6.0075   641.5    1.543      30.541
2014   11       10    20  47    6.0055   641.1    1.556      30.634
2014   11       10    20  52    6.0036   640.7    1.568      30.726
2014   11       10    20  57    6.0016   640.2    1.580      30.817
2014   11       10    21   2    5.9997   639.8    1.593      30.906
2014   11       10    21   7    5.9979   639.4    1.605      30.993
2014   11       10    21  12    5.9959   638.9    1.617      31.080
2014   11       10    21  17    5.9941   638.5    1.629      31.165
2014   11       10    21  22    5.9921   638.1    1.642      31.248
2014   11       10    21  27    5.9902   637.6    1.654      31.331
2014   11       10    21  32    5.9884   637.2    1.666      31.413
2014   11       10    21  37    5.9866   636.8    1.678      31.493
2014   11       10    21  42    5.9847   636.3    1.690      31.572
2014   11       10    21  47    5.9829   635.9    1.702      31.650
2014   11       10    21  52    5.9810   635.5    1.714      31.727
2014   11       10    21  57    5.9792   635.0    1.726      31.803
2014   11       10    22   2    5.9773   634.6    1.738      31.878
2014   11       10    22   7    5.9755   634.2    1.750      31.953
2014   11       10    22  12    5.9737   633.7    1.762      32.026
2014   11       10    22  16    5.9719   633.3    1.773      32.099
2014   11       10    22  21    5.9702   632.9    1.785      32.171
2014   11       10    22  26    5.9684   632.4    1.797      32.243
2014   11       10    22  31    5.9666   632.0    1.809      32.314
2014   11       10    22  36    5.9649   631.6    1.821      32.385
2014   11       10    22  41    5.9631   631.1    1.833      32.455
2014   11       10    22  46    5.9614   630.7    1.845      32.525
2014   11       10    22  51    5.9597   630.3    1.856      32.594
2014   11       10    22  56    5.9579   629.8    1.868      32.664
2014   11       10    23   1    5.9562   629.4    1.880      32.733
2014   11       10    23   6    5.9545   629.0    1.892      32.802
2014   11       10    23  11    5.9528   628.5    1.904      32.871
2014   11       10    23  16    5.9511   628.1    1.916      32.940
2014   11       10    23  21    5.9494   627.7    1.928      33.009
2014   11       10    23  26    5.9477   627.2    1.940      33.078
2014   11       10    23  31    5.9460   626.8    1.952      33.148
2014   11       10    23  36    5.9443   626.4    1.964      33.217
2014   11       10    23  41    5.9427   626.0    1.976      33.287
2014   11       10    23  46    5.9410   625.5    1.989      33.357
2014   11       10    23  51    5.9394   625.1    2.001      33.427
2014   11       10    23  56    5.9377   624.7    2.013      33.497
2014   11       11     0   1    5.9361   624.3    2.025      33.567
2014   11       11     0   5    5.9344   623.9    2.037      33.638
2014   11       11     0  10    5.9328   623.5    2.050      33.709
2014   11       11     0  15    5.9311   623.0    2.062      33.780
2014   11       11     0  20    5.9295   622.6    2.074      33.851
2014   11       11     0  25    5.9279   622.2    2.087      33.923
2014   11       11     0  30    5.9262   621.8    2.099      33.995
2014   11       11     0  35    5.9246   621.4    2.111      34.066
2014   11       11     0  40    5.9230   621.0    2.124      34.139
2014   11       11     0  45    5.9214   620.6    2.136      34.211
2014   11       11     0  50    5.9198   620.1    2.148      34.284
2014   11       11     0  55    5.9181   619.7    2.161      34.356
2014   11       11     1   0    5.9165   619.3    2.173      34.429
2014   11       11     1   5    5.9149   618.9    2.186      34.503
2014   11       11     1  10    5.9133   618.5    2.198      34.576
2014   11       11     1  15    5.9117   618.1    2.210      34.650
2014   11       11     1  20    5.9101   617.7    2.223      34.723
2014   11       11     1  25    5.9085   617.3    2.235      34.797
2014   11       11     1  30    5.9069   616.9    2.248      34.871
2014   11       11     1  35    5.9053   616.5    2.260      34.946
2014   11       11     1  40    5.9037   616.1    2.273      35.020
2014   11       11     1  45    5.9022   615.7    2.285      35.095
2014   11       11     1  49    5.9006   615.3    2.298      35.170
2014   11       11     1  54    5.8990   614.9    2.310      35.245
2014   11       11     1  59    5.8975   614.5    2.323      35.320
2014   11       11     2   4    5.8959   614.1    2.335      35.396
2014   11       11     2   9    5.8943   613.7    2.348      35.471
2014   11       11     2  14    5.8928   613.3    2.361      35.547
2014   11       11     2  19    5.8912   612.9    2.373      35.623
2014   11       11     2  24    5.8897   612.5    2.386      35.700
2014   11       11     2  29    5.8881   612.1    2.398      35.776
2014   11       11     2  34    5.8866   611.7    2.411      35.852
2014   11       11     2  39    5.8851   611.3    2.424      35.929
2014   11       11     2  44    5.8835   610.9    2.436      36.006
2014   11       11     2  49    5.8820   610.5    2.449      36.083
2014   11       11     2  54    5.8806   610.2    2.462      36.160
2014   11       11     2  59    5.8790   609.8    2.474      36.238
2014   11       11     3   4    5.8776   609.4    2.487      36.315
2014   11       11     3   9    5.8761   609.0    2.500      36.393
2014   11       11     3  14    5.8746   608.6    2.512      36.471
2014   11       11     3  19    5.8731   608.2    2.525      36.548
2014   11       11     3  24    5.8717   607.9    2.538      36.626
2014   11       11     3  29    5.8702   607.5    2.550      36.703
2014   11       11     3  34    5.8688   607.1    2.563      36.781
2014   11       11     3  38    5.8673   606.7    2.576      36.858
2014   11       11     3  43    5.8659   606.4    2.588      36.935
2014   11       11     3  48    5.8645   606.0    2.601      37.012
2014   11       11     3  53    5.8631   605.6    2.614      37.089
2014   11       11     3  58    5.8617   605.2    2.626      37.165
2014   11       11     4   3    5.8603   604.9    2.639      37.241
2014   11       11     4   8    5.8590   604.5    2.651      37.317
2014   11       11     4  13    5.8576   604.1    2.664      37.394
2014   11       11     4  18    5.8563   603.7    2.676      37.470
2014   11       11     4  23    5.8549   603.4    2.689      37.546
2014   11       11     4  28    5.8536   603.0    2.701      37.621
2014   11       11     4  33    5.8524   602.6    2.713      37.697
2014   11       11     4  38    5.8511   602.3    2.726      37.771
2014   11       11     4  43    5.8498   601.9    2.738      37.846
2014   11       11     4  48    5.8486   601.5    2.750      37.919
2014   11       11     4  53    5.8474   601.2    2.762      37.991
2014   11       11     4  58    5.8462   600.8    2.774      38.062
2014   11       11     5   3    5.8450   600.4    2.786      38.132
2014   11       11     5   8    5.8438   600.1    2.798      38.201
2014   11       11     5  13    5.8427   599.7    2.809      38.269
2014   11       11     5  18    5.8416   599.4    2.821      38.336
2014   11       11     5  23    5.8405   599.0    2.833      38.401
2014   11       11     5  28    5.8394   598.6    2.844      38.465
2014   11       11     5  32    5.8384   598.3    2.855      38.527
2014   11       11     5  37    5.8373   597.9    2.867      38.588
2014   11       11     5  42    5.8363   597.6    2.878      38.647
2014   11       11     5  47    5.8353   597.2    2.889      38.705
2014   11       11     5  52    5.8343   596.9    2.900      38.762
2014   11       11     5  57    5.8333   596.5    2.911      38.817
2014   11       11     6   2    5.8324   596.2    2.922      38.871
2014   11       11     6   7    5.8315   595.9    2.932      38.924
2014   11       11     6  12    5.8306   595.5    2.943      38.975
2014   11       11     6  17    5.8297   595.2    2.953      39.026
2014   11       11     6  22    5.8288   594.8    2.964      39.075
2014   11       11     6  27    5.8280   594.5    2.974      39.122
2014   11       11     6  32    5.8271   594.1    2.985      39.168
2014   11       11     6  37    5.8263   593.8    2.995      39.213
2014   11       11     6  42    5.8255   593.4    3.005      39.257
2014   11       11     6  47    5.8248   593.1    3.015      39.299
2014   11       11     6  52    5.8240   592.8    3.025      39.340
2014   11       11     6  57    5.8233   592.4    3.035      39.380
2014   11       11     7   2    5.8226   592.1    3.044      39.418
2014   11       11     7   7    5.8219   591.8    3.054      39.455
2014   11       11     7  12    5.8212   591.4    3.064      39.490
2014   11       11     7  17    5.8206   591.1    3.073      39.524
2014   11       11     7  21    5.8199   590.8    3.083      39.557
2014   11       11     7  26    5.8193   590.4    3.092      39.589
2014   11       11     7  31    5.8187   590.1    3.101      39.619
2014   11       11     7  36    5.8182   589.8    3.110      39.648
2014   11       11     7  41    5.8176   589.4    3.119      39.675
2014   11       11     7  46    5.8171   589.1    3.128      39.702
2014   11       11     7  51    5.8166   588.8    3.137      39.727
2014   11       11     7  56    5.8160   588.5    3.146      39.751
2014   11       11     8   1    5.8156   588.1    3.155      39.774
2014   11       11     8   6    5.8151   587.8    3.164      39.796
2014   11       11     8  11    5.8147   587.5    3.172      39.816
2014   11       11     8  16    5.8142   587.2    3.181      39.836
2014   11       11     8  21    5.8139   586.9    3.190      39.854
2014   11       11     8  26    5.8134   586.5    3.198      39.871
2014   11       11     8  31    5.8130   586.2    3.206      39.887
2014   11       11     8  36    5.8127   585.9    3.215      39.903
2014   11       11     8  41    5.8124   585.6    3.223      39.917
2014   11       11     8  46    5.8120   585.3    3.231      39.930
2014   11       11     8  51    5.8116   585.0    3.239      39.942
2014   11       11     8  56    5.8113   584.7    3.247      39.954
2014   11       11     9   1    5.8110   584.3    3.255      39.964
2014   11       11     9   5    5.8108   584.0    3.263      39.974
2014   11       11     9  10    5.8105   583.7    3.271      39.982
2014   11       11     9  15    5.8103   583.4    3.278      39.990
2014   11       11     9  20    5.8101   583.1    3.286      39.997
2014   11       11     9  25    5.8098   582.8    3.294      40.003
2014   11       11     9  30    5.8096   582.5    3.301      40.008
2014   11       11     9  35    5.8094   582.2    3.309      40.013
2014   11       11     9  40    5.8092   581.9    3.316      40.016
2014   11       11     9  45    5.8091   581.6    3.324      40.019
2014   11       11     9  50    5.8089   581.3    3.331      40.022
2014   11       11     9  55    5.8088   581.0    3.338      40.023
2014   11       11    10   0    5.8087   580.7    3.346      40.024
2014   11       11    10   5    5.8086   580.4    3.353      40.024
2014   11       11    10  10    5.8085   580.1    3.360      40.023
2014   11       11    10  15    5.8085   579.8    3.367      40.022
2014   11       11    10  20    5.8084   579.5    3.374      40.019
2014   11       11    10  25    5.8084   579.2    3.381      40.017
2014   11       11    10  30    5.8085   578.9    3.388      40.013
2014   11       11    10  35    5.8084   578.6    3.395      40.009
2014   11       11    10  40    5.8085   578.3    3.402      40.004
2014   11       11    10  45    5.8085   578.0    3.409      39.999
2014   11       11    10  50    5.8086   577.7    3.415      39.993
2014   11       11    10  54    5.8087   577.4    3.422      39.986
2014   11       11    10  59    5.8087   577.1    3.429      39.979
2014   11       11    11   4    5.8088   576.8    3.436      39.971
2014   11       11    11   9    5.8089   576.5    3.442      39.962
2014   11       11    11  14    5.8091   576.2    3.449      39.953
2014   11       11    11  19    5.8092   575.9    3.456      39.943
2014   11       11    11  24    5.8093   575.6    3.462      39.933
2014   11       11    11  29    5.8095   575.3    3.469      39.922
2014   11       11    11  34    5.8097   575.0    3.476      39.911
2014   11       11    11  39    5.8098   574.8    3.482      39.899
2014   11       11    11  44    5.8100   574.5    3.489      39.887
2014   11       11    11  49    5.8102   574.2    3.495      39.875
2014   11       11    11  54    5.8104   573.9    3.502      39.862
2014   11       11    11  59    5.8106   573.6    3.508      39.848
2014   11       11    12   4    5.8109   573.3    3.515      39.835
2014   11       11    12   9    5.8111   573.0    3.521      39.821
2014   11       11    12  14    5.8113   572.7    3.528      39.807
2014   11       11    12  19    5.8115   572.5    3.534      39.793
2014   11       11    12  24    5.8118   572.2    3.540      39.778
2014   11       11    12  29    5.8120   571.9    3.547      39.764
2014   11       11    12  34    5.8123   571.6    3.553      39.749
2014   11       11    12  39    5.8125   571.3    3.560      39.735
2014   11       11    12  44    5.8128   571.0    3.566      39.720
2014   11       11    12  48    5.8131   570.8    3.573      39.706
2014   11       11    12  53    5.8135   570.5    3.579      39.691
2014   11       11    12  58    5.8137   570.2    3.586      39.676
2014   11       11    13   3    5.8140   569.9    3.592      39.662
2014   11       11    13   8    5.8143   569.7    3.599      39.648
2014   11       11    13  13    5.8147   569.4    3.605      39.633
2014   11       11    13  18    5.8148   569.1    3.612      39.619
2014   11       11    13  23    5.8152   568.9    3.618      39.605
2014   11       11    13  28    5.8154   568.6    3.624      39.590
2014   11       11    13  33    5.8157   568.3    3.631      39.576
2014   11       11    13  38    5.8160   568.1    3.637      39.561
2014   11       11    13  43    5.8164   567.8    3.643      39.547
2014   11       11    13  48    5.8167   567.6    3.649      39.532
2014   11       11    13  53    5.8168   567.3    3.655      39.516
2014   11       11    13  58    5.8172   567.0    3.661      39.501
2014   11       11    14   3    5.8174   566.8    3.667      39.486
2014   11       11    14   8    5.8176   566.5    3.673      39.470
2014   11       11    14  13    5.8179   566.3    3.679      39.454
2014   11       11    14  18    5.8182   566.0    3.684      39.437
2014   11       11    14  23    5.8185   565.8    3.690      39.421
2014   11       11    14  28    5.8186   565.5    3.695      39.404
2014   11       11    14  33    5.8189   565.3    3.701      39.386
2014   11       11    14  37    5.8191   565.0    3.706      39.369
2014   11       11    14  42    5.8195   564.8    3.711      39.351
2014   11       11    14  47    5.8197   564.5    3.717      39.333
2014   11       11    14  52    5.8199   564.3    3.722      39.315
2014   11       11    14  57    5.8201   564.0    3.727      39.297
2014   11       11    15   2    5.8204   563.8    3.732      39.278
2014   11       11    15   7    5.8207   563.5    3.737      39.260
2014   11       11    15  12    5.8208   563.3    3.742      39.241
2014   11       11    15  17    5.8211   563.0    3.747      39.222
2014   11       11    15  22    5.8213   562.8    3.752      39.203
2014   11       11    15  27    5.8216   562.5    3.756      39.184
2014   11       11    15  32    5.8218   562.3    3.761      39.165
2014   11       11    15  37    5.8221   562.1    3.766      39.146
2014   11       11    15  42    5.8224   561.8    3.770      39.127
2014   11       11    15  47    5.8226   561.6    3.775      39.107
2014   11       11    15  52    5.8229   561.3    3.779      39.088
2014   11       11    15  57    5.8234   561.1    3.784      39.068
2014   11       11    16   2    5.8235   560.8    3.788      39.048
2014   11       11    16   7    5.8238   560.6    3.793      39.028
2014   11       11    16  12    5.8241   560.3    3.797      39.007
2014   11       11    16  17    5.8244   560.1    3.801      38.987
2014   11       11    16  21    5.8248   559.8    3.806      38.966
2014   11       11    16  26    5.8251   559.6    3.810      38.945
2014   11       11    16  31    5.8257   559.3    3.814      38.923
2014   11       11    16  36    5.8259   559.1    3.818      38.902
2014   11       11    16  41    5.8263   558.8    3.822      38.880
2014   11       11    16  46    5.8267   558.6    3.827      38.858
2014   11       11    16  51    5.8272   558.3    3.831      38.835
2014   11       11    16  56    5.8277   558.1    3.835      38.812
2014   11       11    17   1    5.8282   557.8    3.839      38.789
2014   11       11    17   6    5.8289   557.6    3.843      38.766
2014   11       11    17  11    5.8292   557.3    3.847      38.742
2014   11       11    17  16    5.8300   557.1    3.851      38.718
2014   11       11    17  21    5.8304   556.8    3.855      38.694
2014   11       11    17  26    5.8312   556.6    3.859      38.669
2014   11       11    17  31    5.8317   556.3    3.864      38.645
2014   11       11    17  36    5.8324   556.0    3.868      38.620
2014   11       11    17  41    5.8331   555.8    3.872      38.595
2014   11       11    17  46    5.8339   555.5    3.876      38.570
2014   11       11    17  51    5.8347   555.3    3.880      38.544
2014   11       11    17  56    5.8356   555.0    3.885      38.519
2014   11       11    18   1    5.8367   554.7    3.889      38.493
2014   11       11    18   6    5.8374   554.5    3.894      38.467
2014   11       11    18  10    5.8387   554.2    3.898      38.441
2014   11       11    18  15    5.8395   553.9    3.903      38.415
2014   11       11    18  20    5.8406   553.7    3.907      38.389
2014   11       11    18  25    5.8418   553.4    3.912      38.362
2014   11       11    18  30    5.8430   553.1    3.917      38.335
2014   11       11    18  35    5.8445   552.9    3.921      38.309
2014   11       11    18  40    5.8457   552.6    3.926      38.282
2014   11       11    18  45    5.8471   552.3    3.931      38.256
2014   11       11    18  50    5.8486   552.1    3.936      38.229
2014   11       11    18  55    5.8501   551.8    3.941      38.202
2014   11       11    19   0    5.8517   551.6    3.945      38.175
2014   11       11    19   5    5.8533   551.3    3.950      38.148
2014   11       11    19  10    5.8551   551.1    3.955      38.120
2014   11       11    19  15    5.8569   550.8    3.960      38.093
2014   11       11    19  20    5.8587   550.5    3.965      38.065
2014   11       11    19  25    5.8606   550.3    3.969      38.036
2014   11       11    19  30    5.8625   550.0    3.974      38.008
2014   11       11    19  35    5.8645   549.8    3.979      37.978
2014   11       11    19  40    5.8665   549.6    3.983      37.949
2014   11       11    19  45    5.8685   549.3    3.988      37.920
2014   11       11    19  50    5.8706   549.1    3.992      37.890
2014   11       11    19  55    5.8727   548.8    3.997      37.860
2014   11       11    20   0    5.8749   548.6    4.001      37.830
2014   11       11    20   4    5.8770   548.3    4.006      37.799
2014   11       11    20   9    5.8792   548.1    4.010      37.768
2014   11       11    20  14    5.8814   547.8    4.014      37.737
2014   11       11    20  19    5.8837   547.6    4.019      37.706
2014   11       11    20  24    5.8859   547.4    4.023      37.675
2014   11       11    20  29    5.8882   547.1    4.027      37.644
2014   11       11    20  34    5.8905   546.9    4.031      37.613
2014   11       11    20  39    5.8928   546.7    4.035      37.582
2014   11       11    20  44    5.8951   546.4    4.039      37.550
2014   11       11    20  49    5.8975   546.2    4.043      37.519
2014   11       11    20  54    5.8998   546.0    4.047      37.488
2014   11       11    20  59    5.9022   545.7    4.051      37.456
2014   11       11    21   4    5.9045   545.5    4.055      37.425
2014   11       11    21   9    5.9069   545.3    4.059      37.394
2014   11       11    21  14    5.9093   545.0    4.063      37.362
2014   11       11    21  19    5.9117   544.8    4.067      37.331
2014   11       11    21  24    5.9141   544.6    4.071      37.300
2014   11       11    21  29    5.9166   544.4    4.075      37.269
2014   11       11    21  34    5.9190   544.2    4.079      37.238
2014   11       11    21  39    5.9215   543.9    4.083      37.207
2014   11       11    21  44    5.9239   543.7    4.087      37.177
2014   11       11    21  49    5.9264   543.5    4.091      37.146
2014   11       11    21  53    5.9289   543.3    4.095      37.116
2014   11       11    21  58    5.9314   543.1    4.099      37.086
2014   11       11    22   3    5.9339   542.9    4.103      37.057
2014   11       11    22   8    5.9365   542.7    4.107      37.027
2014   11       11    22  13    5.9390   542.4    4.111      36.998
2014   11       11    22  18    5.9416   542.2    4.115      36.970
2014   11       11    22  23    5.9442   542.0    4.120      36.942
2014   11       11    22  28    5.9468   541.8    4.124      36.914
2014   11       11    22  33    5.9494   541.6    4.128      36.887
2014   11       11    22  38    5.9520   541.4    4.133      36.860
2014   11       11    22  43    5.9547   541.2    4.137      36.834
2014   11       11    22  48    5.9577   541.0    4.142      36.808
2014   11       11    22  53    5.9600   540.7    4.146      36.783
2014   11       11    22  58    5.9627   540.5    4.151      36.758
2014   11       11    23   3    5.9654   540.3    4.156      36.733
2014   11       11    23   8    5.9686   540.1    4.160      36.709
2014   11       11    23  13    5.9710   539.9    4.165      36.685
2014   11       11    23  18    5.9738   539.7    4.170      36.661
2014   11       11    23  23    5.9766   539.5    4.175      36.637
2014   11       11    23  28    5.9794   539.3    4.180      36.614
2014   11       11    23  33    5.9823   539.1    4.185      36.591
2014   11       11    23  37    5.9852   538.9    4.190      36.568
2014   11       11    23  42    5.9881   538.7    4.195      36.546
2014   11       11    23  47    5.9911   538.5    4.200      36.523
2014   11       11    23  52    5.9944   538.3    4.205      36.502
2014   11       11    23  57    5.9970   538.1    4.211      36.480
2014   11       12     0   2    6.0000   537.9    4.216      36.460
2014   11       12     0   7    6.0031   537.7    4.222      36.440
2014   11       12     0  12    6.0062   537.5    4.227      36.420
2014   11       12     0  17    6.0093   537.3    4.233      36.401
2014   11       12     0  22    6.0125   537.1    4.239      36.382
2014   11       12     0  27    6.0157   536.9    4.245      36.365
2014   11       12     0  32    6.0189   536.7    4.251      36.348
2014   11       12     0  37    6.0225   536.5    4.257      36.332
2014   11       12     0  42    6.0255   536.3    4.264      36.316
2014   11       12     0  47    6.0292   536.1    4.270      36.301
2014   11       12     0  52    6.0322   535.9    4.277      36.288
2014   11       12     0  57    6.0357   535.8    4.284      36.275
2014   11       12     1   2    6.0395   535.6    4.290      36.263
2014   11       12     1   7    6.0427   535.4    4.297      36.252
2014   11       12     1  12    6.0466   535.2    4.304      36.240
2014   11       12     1  17    6.0499   535.0    4.311      36.230
2014   11       12     1  22    6.0535   534.8    4.318      36.219
2014   11       12     1  26    6.0572   534.7    4.325      36.209
2014   11       12     1  31    6.0610   534.5    4.333      36.199
2014   11       12     1  36    6.0648   534.3    4.340      36.188
2014   11       12     1  41    6.0686   534.1    4.347      36.178
2014   11       12     1  46    6.0725   534.0    4.354      36.166
2014   11       12     1  51    6.0763   533.8    4.360      36.155
2014   11       12     1  56    6.0803   533.6    4.367      36.144
2014   11       12     2   1    6.0842   533.5    4.374      36.132
2014   11       12     2   6    6.0882   533.3    4.381      36.120
2014   11       12     2  11    6.0922   533.1    4.388      36.107
2014   11       12     2  16    6.0963   533.0    4.394      36.094
2014   11       12     2  21    6.1007   532.8    4.401      36.080
2014   11       12     2  26    6.1045   532.6    4.408      36.066
2014   11       12     2  31    6.1086   532.5    4.414      36.053
2014   11       12     2  36    6.1128   532.3    4.421      36.039
2014   11       12     2  41    6.1169   532.1    4.427      36.025
2014   11       12     2  46    6.1211   532.0    4.434      36.011
2014   11       12     2  51    6.1254   531.8    4.441      35.997
2014   11       12     2  56    6.1296   531.6    4.447      35.983
2014   11       12     3   1    6.1339   531.5    4.454      35.970
2014   11       12     3   6    6.1382   531.3    4.461      35.957
2014   11       12     3  11    6.1426   531.2    4.468      35.944
2014   11       12     3  16    6.1470   531.0    4.475      35.932
2014   11       12     3  20    6.1514   530.8    4.483      35.920
2014   11       12     3  25    6.1559   530.7    4.490      35.909
2014   11       12     3  30    6.1603   530.5    4.498      35.898
2014   11       12     3  35    6.1649   530.4    4.505      35.889
2014   11       12     3  40    6.1695   530.2    4.513      35.880
2014   11       12     3  45    6.1741   530.1    4.521      35.871
2014   11       12     3  50    6.1788   529.9    4.530      35.864
2014   11       12     3  55    6.1835   529.8    4.538      35.857
2014   11       12     4   0    6.1883   529.6    4.547      35.853
2014   11       12     4   5    6.1931   529.5    4.555      35.850
2014   11       12     4  10    6.1979   529.3    4.564      35.849
2014   11       12     4  15    6.2028   529.2    4.573      35.850
2014   11       12     4  20    6.2077   529.1    4.582      35.852
2014   11       12     4  25    6.2126   528.9    4.591      35.856
2014   11       12     4  30    6.2176   528.8    4.600      35.860
2014   11       12     4  35    6.2229   528.7    4.609      35.865
2014   11       12     4  40    6.2276   528.6    4.617      35.871
2014   11       12     4  45    6.2330   528.4    4.626      35.878
2014   11       12     4  50    6.2376   528.3    4.635      35.885
2014   11       12     4  55    6.2431   528.2    4.643      35.893
2014   11       12     5   0    6.2481   528.1    4.652      35.902
2014   11       12     5   5    6.2528   528.0    4.660      35.911
2014   11       12     5   9    6.2579   527.9    4.668      35.920
2014   11       12     5  14    6.2630   527.8    4.677      35.928
2014   11       12     5  19    6.2680   527.7    4.685      35.937
2014   11       12     5  24    6.2735   527.6    4.692      35.945
2014   11       12     5  29    6.2782   527.5    4.700      35.953
2014   11       12     5  34    6.2833   527.4    4.708      35.960
2014   11       12     5  39    6.2884   527.3    4.715      35.967
2014   11       12     5  44    6.2935   527.2    4.723      35.974
2014   11       12     5  49    6.2986   527.2    4.730      35.981
2014   11       12     5  54    6.3038   527.1    4.737      35.987
2014   11       12     5  59    6.3089   527.0    4.744      35.993
2014   11       12     6   4    6.3140   526.9    4.751      35.998
2014   11       12     6   9    6.3191   526.9    4.758      36.003
2014   11       12     6  14    6.3242   526.8    4.765      36.007
2014   11       12     6  19    6.3293   526.7    4.771      36.010
2014   11       12     6  24    6.3344   526.6    4.777      36.013
2014   11       12     6  29    6.3395   526.6    4.783      36.015
2014   11       12     6  34    6.3446   526.5    4.789      36.016
2014   11       12     6  39    6.3497   526.4    4.795      36.017
2014   11       12     6  44    6.3548   526.4    4.801      36.017
2014   11       12     6  49    6.3599   526.3    4.806      36.016
2014   11       12     6  53    6.3650   526.2    4.812      36.015
2014   11       12     6  58    6.3701   526.2    4.817      36.013
2014   11       12     7   3    6.3752   526.1    4.822      36.010
2014   11       12     7   8    6.3803   526.1    4.827      36.007
2014   11       12     7  13    6.3854   526.0    4.833      36.004
2014   11       12     7  18    6.3905   525.9    4.837      36.000
2014   11       12     7  23    6.3956   525.9    4.842      35.996
2014   11       12     7  28    6.4007   525.8    4.847      35.992
2014   11       12     7  33    6.4061   525.8    4.852      35.988
2014   11       12     7  38    6.4109   525.7    4.856      35.983
2014   11       12     7  43    6.4161   525.7    4.861      35.978
2014   11       12     7  48    6.4212   525.6    4.865      35.973
2014   11       12     7  53    6.4263   525.5    4.870      35.968
2014   11       12     7  58    6.4314   525.5    4.874      35.963
2014   11       12     8   3    6.4365   525.4    4.878      35.957
2014   11       12     8   8    6.4416   525.4    4.882      35.951
2014   11       12     8  13    6.4468   525.3    4.886      35.945
2014   11       12     8  18    6.4519   525.3    4.891      35.939
2014   11       12     8  23    6.4570   525.2    4.895      35.933
2014   11       12     8  28    6.4622   525.2    4.899      35.927
2014   11       12     8  33    6.4673   525.1    4.903      35.920
2014   11       12     8  38    6.4724   525.0    4.907      35.914
2014   11       12     8  42    6.4776   525.0    4.912      35.907
2014   11       12     8  47    6.4827   524.9    4.916      35.901
2014   11       12     8  52    6.4879   524.8    4.921      35.894
2014   11       12     8  57    6.4931   524.8    4.925      35.888
2014   11       12     9   2    6.4984   524.7    4.930      35.882
2014   11       12     9   7    6.5035   524.6    4.935      35.877
2014   11       12     9  12    6.5088   524.6    4.940      35.871
2014   11       12     9  17    6.5140   524.5    4.946      35.867
2014   11       12     9  22    6.5192   524.5    4.951      35.863
2014   11       12     9  27    6.5246   524.4    4.957      35.860
2014   11       12     9  32    6.5299   524.3    4.963      35.858
2014   11       12     9  37    6.5352   524.3    4.970      35.856
2014   11       12     9  42    6.5407   524.2    4.977      35.855
2014   11       12     9  47    6.5461   524.1    4.985      35.855
2014   11       12     9  52    6.5517   524.1    4.992      35.857
2014   11       12     9  57    6.5573   524.0    5.001      35.862
2014   11       12    10   2    6.5629   524.0    5.009      35.868
2014   11       12    10   7    6.5686   523.9    5.018      35.876
2014   11       12    10  12    6.5743   523.9    5.027      35.886
2014   11       12    10  17    6.5799   523.9    5.036      35.898
2014   11       12    10  22    6.5857   523.8    5.045      35.911
2014   11       12    10  27    6.5915   523.8    5.054      35.926
2014   11       12    10  32    6.5973   523.8    5.064      35.941
2014   11       12    10  36    6.6032   523.7    5.073      35.957
2014   11       12    10  41    6.6090   523.7    5.083      35.974
2014   11       12    10  46    6.6149   523.7    5.093      35.992
2014   11       12    10  51    6.6208   523.7    5.102      36.013
2014   11       12    10  56    6.6266   523.7    5.111      36.034
2014   11       12    11   1    6.6325   523.7    5.120      36.056
2014   11       12    11   6    6.6383   523.7    5.129      36.078
2014   11       12    11  11    6.6441   523.7    5.138      36.101
2014   11       12    11  16    6.6500   523.7    5.146      36.125
2014   11       12    11  21    6.6558   523.7    5.154      36.149
2014   11       12    11  26    6.6615   523.7    5.162      36.173
2014   11       12    11  31    6.6673   523.7    5.170      36.197
2014   11       12    11  36    6.6730   523.7    5.178      36.221
2014   11       12    11  41    6.6788   523.7    5.185      36.245
2014   11       12    11  46    6.6845   523.7    5.192      36.270
2014   11       12    11  51    6.6901   523.7    5.198      36.295
2014   11       12    11  56    6.6958   523.8    5.204      36.320
2014   11       12    12   1    6.7014   523.8    5.211      36.345
2014   11       12    12   6    6.7070   523.8    5.216      36.369
2014   11       12    12  11    6.7126   523.8    5.222      36.393
2014   11       12    12  16    6.7182   523.8    5.227      36.416
2014   11       12    12  20    6.7238   523.8    5.232      36.439
2014   11       12    12  25    6.7293   523.8    5.237      36.462
2014   11       12    12  30    6.7348   523.8    5.241      36.484
2014   11       12    12  35    6.7403   523.8    5.246      36.505
2014   11       12    12  40    6.7458   523.9    5.250      36.527
2014   11       12    12  45    6.7513   523.9    5.254      36.548
2014   11       12    12  50    6.7568   523.9    5.258      36.568
2014   11       12    12  55    6.7622   523.9    5.261      36.588
2014   11       12    13   0    6.7676   523.9    5.265      36.608
2014   11       12    13   5    6.7731   523.9    5.268      36.628
2014   11       12    13  10    6.7785   524.0    5.272      36.647
2014   11       12    13  15    6.7839   524.0    5.275      36.666
2014   11       12    13  20    6.7892   524.0    5.277      36.684
2014   11       12    13  25    6.7946   524.0    5.280      36.702
2014   11       12    13  30    6.7999   524.0    5.283      36.720
2014   11       12    13  35    6.8053   524.1    5.285      36.737
2014   11       12    13  40    6.8106   524.1    5.287      36.754
2014   11       12    13  45    6.8159   524.1    5.290      36.770
2014   11       12    13  50    6.8212   524.1    5.292      36.786
2014   11       12    13  55    6.8265   524.2    5.293      36.802
2014   11       12    14   0    6.8317   524.2    5.295      36.818
2014   11       12    14   4    6.8369   524.2    5.297      36.833
2014   11       12    14   9    6.8422   524.3    5.298      36.848
2014   11       12    14  14    6.8474   524.3    5.300      36.863
2014   11       12    14  19    6.8526   524.3    5.301      36.877
2014   11       12    14  24    6.8578   524.4    5.302      36.891
2014   11       12    14  29    6.8630   524.4    5.303      36.906
2014   11       12    14  34    6.8681   524.4    5.304      36.920
2014   11       12    14  39    6.8733   524.4    5.305      36.934
2014   11       12    14  44    6.8785   524.5    5.306      36.949
2014   11       12    14  49    6.8836   524.5    5.307      36.963
2014   11       12    14  54    6.8887   524.5    5.308      36.978
2014   11       12    14  59    6.8938   524.6    5.309      36.993
2014   11       12    15   4    6.8990   524.6    5.310      37.008
2014   11       12    15   9    6.9041   524.6    5.312      37.023
2014   11       12    15  14    6.9092   524.7    5.313      37.038
2014   11       12    15  19    6.9142   524.7    5.314      37.054
2014   11       12    15  24    6.9193   524.7    5.315      37.069
2014   11       12    15  29    6.9243   524.8    5.317      37.086
2014   11       12    15  34    6.9294   524.8    5.318      37.102
2014   11       12    15  39    6.9343   524.8    5.320      37.118
2014   11       12    15  44    6.9394   524.9    5.322      37.135
2014   11       12    15  49    6.9444   524.9    5.324      37.152
2014   11       12    15  54    6.9493   524.9    5.326      37.170
2014   11       12    15  58    6.9544   524.9    5.329      37.188
2014   11       12    16   3    6.9594   525.0    5.332      37.207
2014   11       12    16   8    6.9644   525.0    5.335      37.226
2014   11       12    16  13    6.9694   525.0    5.339      37.245
2014   11       12    16  18    6.9744   525.0    5.342      37.266
2014   11       12    16  23    6.9794   525.1    5.347      37.287
2014   11       12    16  28    6.9843   525.1    5.351      37.309
2014   11       12    16  33    6.9894   525.1    5.356      37.333
2014   11       12    16  38    6.9944   525.2    5.362      37.358
2014   11       12    16  43    6.9994   525.2    5.368      37.383
2014   11       12    16  48    7.0045   525.2    5.375      37.409
2014   11       12    16  53    7.0096   525.2    5.382      37.437
2014   11       12    16  58    7.0148   525.3    5.390      37.467
2014   11       12    17   3    7.0200   525.3    5.399      37.500
2014   11       12    17   8    7.0252   525.4    5.407      37.536
2014   11       12    17  13    7.0305   525.4    5.416      37.573
2014   11       12    17  18    7.0358   525.5    5.425      37.613
2014   11       12    17  23    7.0412   525.6    5.434      37.654
2014   11       12    17  28    7.0466   525.6    5.443      37.697
2014   11       12    17  33    7.0520   525.7    5.452      37.740
2014   11       12    17  38    7.0573   525.8    5.461      37.784
2014   11       12    17  43    7.0627   525.9    5.469      37.828
2014   11       12    17  47    7.0681   526.0    5.477      37.873
2014   11       12    17  52    7.0734   526.1    5.485      37.918
2014   11       12    17  57    7.0787   526.2    5.493      37.962
2014   11       12    18   2    7.0840   526.3    5.499      38.006
2014   11       12    18   7    7.0892   526.4    5.506      38.049
2014   11       12    18  12    7.0944   526.5    5.512      38.090
2014   11       12    18  17    7.0995   526.6    5.518      38.130
2014   11       12    18  22    7.1045   526.7    5.523      38.169
2014   11       12    18  27    7.1095   526.8    5.528      38.207
2014   11       12    18  32    7.1145   526.9    5.532      38.243
2014   11       12    18  37    7.1194   527.0    5.536      38.279
2014   11       12    18  42    7.1243   527.0    5.539      38.313
2014   11       12    18  47    7.1291   527.1    5.543      38.346
2014   11       12    18  52    7.1340   527.2    5.545      38.379
2014   11       12    18  57    7.1388   527.4    5.548      38.410
2014   11       12    19   2    7.1435   527.5    5.550      38.440
2014   11       12    19   7    7.1482   527.6    5.552      38.470
2014   11       12    19  12    7.1529   527.7    5.554      38.499
2014   11       12    19  17    7.1576   527.8    5.555      38.528
2014   11       12    19  22    7.1622   527.9    5.556      38.556
2014   11       12    19  27    7.1668   528.0    5.556      38.583
2014   11       12    19  32    7.1714   528.1    5.557      38.610
2014   11       12    19  36    7.1760   528.2    5.557      38.637
2014   11       12    19  41    7.1805   528.3    5.557      38.663
2014   11       12    19  46    7.1851   528.4    5.557      38.690
2014   11       12    19  51    7.1896   528.5    5.556      38.716
2014   11       12    19  56    7.1941   528.6    5.555      38.742
2014   11       12    20   1    7.1985   528.7    5.555      38.767
2014   11       12    20   6    7.2030   528.8    5.553      38.793
2014   11       12    20  11    7.2074   528.9    5.552      38.818
2014   11       12    20  16    7.2119   529.0    5.551      38.844
2014   11       12    20  21    7.2163   529.1    5.549      38.869
2014   11       12    20  26    7.2207   529.2    5.548      38.894
2014   11       12    20  31    7.2251   529.3    5.546      38.919
2014   11       12    20  36    7.2295   529.4    5.544      38.944
2014   11       12    20  41    7.2339   529.5    5.542      38.968
2014   11       12    20  46    7.2383   529.6    5.540      38.993
2014   11       12    20  51    7.2427   529.8    5.538      39.018
2014   11       12    20  56    7.2470   529.9    5.536      39.042
2014   11       12    21   1    7.2514   530.0    5.534      39.067
2014   11       12    21   6    7.2558   530.1    5.531      39.092
2014   11       12    21  11    7.2601   530.2    5.529      39.116
2014   11       12    21  16    7.2645   530.3    5.527      39.141
2014   11       12    21  20    7.2688   530.4    5.524      39.166
2014   11       12    21  25    7.2732   530.5    5.522      39.191
2014   11       12    21  30    7.2775   530.6    5.520      39.217
2014   11       12    21  35    7.2818   530.7    5.517      39.243
2014   11       12    21  40    7.2862   530.8    5.515      39.269
2014   11       12    21  45    7.2905   530.9    5.512      39.295
2014   11       12    21  50    7.2948   531.0    5.510      39.322
2014   11       12    21  55    7.2991   531.1    5.508      39.349
2014   11       12    22   0    7.3034   531.2    5.506      39.377
2014   11       12    22   5    7.3077   531.3    5.504      39.405
2014   11       12    22  10    7.3120   531.4    5.501      39.434
2014   11       12    22  15    7.3162   531.6    5.499      39.462
2014   11       12    22  20    7.3205   531.7    5.498      39.492
2014   11       12    22  25    7.3247   531.8    5.496      39.522
2014   11       12    22  30    7.3289   531.9    5.494      39.552
2014   11       12    22  35    7.3331   532.0    5.493      39.583
2014   11       12    22  40    7.3373   532.1    5.492      39.615
2014   11       12    22  45    7.3415   532.2    5.491      39.647
2014   11       12    22  50    7.3456   532.3    5.490      39.680
2014   11       12    22  55    7.3497   532.4    5.489      39.713
2014   11       12    23   0    7.3538   532.5    5.489      39.747
2014   11       12    23   5    7.3579   532.6    5.488      39.782
2014   11       12    23  10    7.3619   532.7    5.489      39.818
2014   11       12    23  14    7.3659   532.7    5.489      39.854
2014   11       12    23  19    7.3699   532.8    5.490      39.892
2014   11       12    23  24    7.3739   532.9    5.491      39.930
2014   11       12    23  29    7.3778   533.0    5.493      39.969
2014   11       12    23  34    7.3818   533.1    5.494      40.010
2014   11       12    23  39    7.3856   533.2    5.497      40.053
2014   11       12    23  44    7.3897   533.3    5.500      40.097
2014   11       12    23  49    7.3937   533.4    5.503      40.141
2014   11       12    23  54    7.3976   533.5    5.507      40.187
2014   11       12    23  59    7.4017   533.5    5.512      40.235
2014   11       13     0   4    7.4055   533.6    5.517      40.286
2014   11       13     0   9    7.4097   533.7    5.522      40.340
2014   11       13     0  14    7.4139   533.8    5.528      40.396
2014   11       13     0  19    7.4180   533.9    5.535      40.453
2014   11       13     0  24    7.4222   534.0    5.542      40.514
2014   11       13     0  29    7.4265   534.1    5.549      40.578
2014   11       13     0  34    7.4309   534.2    5.556      40.644
2014   11       13     0  39    7.4353   534.4    5.563      40.712
2014   11       13     0  44    7.4397   534.5    5.571      40.781
2014   11       13     0  49    7.4442   534.6    5.578      40.851
2014   11       13     0  54    7.4487   534.7    5.585      40.922
2014   11       13     0  59    7.4531   534.9    5.592      40.994
2014   11       13     1   3    7.4576   535.0    5.598      41.066
2014   11       13     1   8    7.4620   535.1    5.605      41.138
2014   11       13     1  13    7.4663   535.3    5.611      41.208
2014   11       13     1  18    7.4708   535.4    5.616      41.278
2014   11       13     1  23    7.4751   535.6    5.621      41.347
2014   11       13     1  28    7.4794   535.7    5.626      41.416
2014   11       13     1  33    7.4834   535.9    5.631      41.483
2014   11       13     1  38    7.4878   536.0    5.635      41.549
2014   11       13     1  43    7.4918   536.2    5.638      41.613
2014   11       13     1  48    7.4958   536.4    5.641      41.676
2014   11       13     1  53    7.4997   536.5    5.644      41.738
2014   11       13     1  58    7.5036   536.7    5.647      41.798
2014   11       13     2   3    7.5074   536.8    5.649      41.858
2014   11       13     2   8    7.5112   537.0    5.650      41.916
2014   11       13     2  13    7.5149   537.2    5.652      41.973
2014   11       13     2  18    7.5186   537.4    5.653      42.029
2014   11       13     2  23    7.5220   537.5    5.654      42.083
2014   11       13     2  28    7.5257   537.7    5.654      42.137
2014   11       13     2  33    7.5292   537.9    5.654      42.189
2014   11       13     2  38    7.5325   538.0    5.654      42.240
2014   11       13     2  43    7.5361   538.2    5.654      42.291
2014   11       13     2  48    7.5393   538.4    5.653      42.340
2014   11       13     2  53    7.5429   538.6    5.652      42.388
2014   11       13     2  57    7.5462   538.7    5.651      42.436
2014   11       13     3   2    7.5495   538.9    5.650      42.483
2014   11       13     3   7    7.5527   539.1    5.649      42.528
2014   11       13     3  12    7.5560   539.3    5.647      42.574
2014   11       13     3  17    7.5592   539.4    5.645      42.618
2014   11       13     3  22    7.5624   539.6    5.644      42.662
2014   11       13     3  27    7.5655   539.8    5.642      42.706
2014   11       13     3  32    7.5687   540.0    5.640      42.749
2014   11       13     3  37    7.5718   540.1    5.638      42.792
2014   11       13     3  42    7.5749   540.3    5.636      42.835
2014   11       13     3  47    7.5780   540.5    5.634      42.877
2014   11       13     3  52    7.5810   540.6    5.632      42.920
2014   11       13     3  57    7.5842   540.8    5.630      42.962
2014   11       13     4   2    7.5873   541.0    5.628      43.004
2014   11       13     4   7    7.5904   541.2    5.626      43.047
2014   11       13     4  12    7.5936   541.3    5.624      43.089
2014   11       13     4  17    7.5967   541.5    5.622      43.132
2014   11       13     4  22    7.5999   541.7    5.621      43.176
2014   11       13     4  27    7.6031   541.9    5.619      43.220
2014   11       13     4  32    7.6063   542.0    5.618      43.265
2014   11       13     4  36    7.6097   542.2    5.617      43.310
2014   11       13     4  41    7.6130   542.4    5.617      43.355
2014   11       13     4  46    7.6165   542.6    5.616      43.404
2014   11       13     4  51    7.6199   542.8    5.616      43.455
2014   11       13     4  56    7.6233   543.0    5.616      43.508
2014   11       13     5   1    7.6268   543.2    5.616      43.563
2014   11       13     5   6    7.6304   543.4    5.616      43.620
2014   11       13     5  11    7.6338   543.6    5.616      43.678
2014   11       13     5  16    7.6373   543.8    5.616      43.738
2014   11       13     5  21    7.6409   544.0    5.616      43.799
2014   11       13     5  26    7.6443   544.2    5.616      43.860
2014   11       13     5  31    7.6477   544.4    5.616      43.922
2014   11       13     5  36    7.6510   544.6    5.615      43.984
2014   11       13     5  41    7.6543   544.9    5.615      44.047
2014   11       13     5  46    7.6575   545.1    5.614      44.109
2014   11       13     5  51    7.6605   545.3    5.612      44.171
2014   11       13     5  56    7.6637   545.6    5.611      44.231
2014   11       13     6   1    7.6667   545.8    5.610      44.291
2014   11       13     6   6    7.6697   546.0    5.608      44.349
2014   11       13     6  11    7.6726   546.2    5.606      44.407
2014   11       13     6  16    7.6756   546.4    5.604      44.464
2014   11       13     6  21    7.6785   546.6    5.602      44.520
2014   11       13     6  26    7.6813   546.9    5.601      44.576
2014   11       13     6  30    7.6842   547.1    5.599      44.632
2014   11       13     6  35    7.6871   547.3    5.597      44.688
2014   11       13     6  40    7.6899   547.5    5.595      44.744
2014   11       13     6  45    7.6927   547.7    5.593      44.800
2014   11       13     6  50    7.6956   548.0    5.591      44.857
2014   11       13     6  55    7.6984   548.2    5.589      44.915
2014   11       13     7   0    7.7012   548.4    5.588      44.972
2014   11       13     7   5    7.7040   548.6    5.586      45.031
2014   11       13     7  10    7.7069   548.8    5.584      45.090
2014   11       13     7  15    7.7097   549.0    5.583      45.149
2014   11       13     7  20    7.7125   549.3    5.582      45.209
2014   11       13     7  25    7.7153   549.5    5.580      45.268
2014   11       13     7  30    7.7181   549.7    5.579      45.329
2014   11       13     7  35    7.7209   549.9    5.578      45.391
2014   11       13     7  40    7.7238   550.1    5.577      45.454
2014   11       13     7  45    7.7266   550.3    5.577      45.518
2014   11       13     7  50    7.7295   550.6    5.576      45.583
2014   11       13     7  55    7.7323   550.8    5.575      45.648
2014   11       13     8   0    7.7352   551.0    5.574      45.715
2014   11       13     8   5    7.7380   551.2    5.573      45.781
2014   11       13     8  10    7.7408   551.5    5.572      45.848
2014   11       13     8  15    7.7436   551.7    5.571      45.915
2014   11       13     8  20    7.7464   551.9    5.570      45.982
2014   11       13     8  24    7.7491   552.2    5.568      46.049
2014   11       13     8  29    7.7517   552.4    5.567      46.116
2014   11       13     8  34    7.7543   552.6    5.565      46.182
2014   11       13     8  39    7.7569   552.9    5.563      46.249
2014   11       13     8  44    7.7594   553.1    5.561      46.315
2014   11       13     8  49    7.7619   553.4    5.559      46.380
2014   11       13     8  54    7.7643   553.6    5.556      46.445
2014   11       13     8  59    7.7666   553.9    5.554      46.508
2014   11       13     9   4    7.7689   554.1    5.551      46.571
2014   11       13     9   9    7.7711   554.4    5.548      46.633
2014   11       13     9  14    7.7733   554.6    5.545      46.695
2014   11       13     9  19    7.7754   554.9    5.541      46.755
2014   11       13     9  24    7.7774   555.1    5.538      46.815
2014   11       13     9  29    7.7794   555.4    5.534      46.874
2014   11       13     9  34    7.7814   555.6    5.531      46.932
2014   11       13     9  39    7.7832   555.9    5.527      46.989
2014   11       13     9  44    7.7852   556.1    5.523      47.046
2014   11       13     9  49    7.7870   556.4    5.519      47.101
2014   11       13     9  54    7.7888   556.6    5.515      47.156
2014   11       13     9  59    7.7906   556.9    5.511      47.211
2014   11       13    10   4    7.7923   557.2    5.507      47.264
2014   11       13    10   9    7.7939   557.4    5.503      47.316
2014   11       13    10  13    7.7954   557.7    5.499      47.368
2014   11       13    10  18    7.7971   557.9    5.495      47.420
2014   11       13    10  23    7.7986   558.2    5.491      47.470
2014   11       13    10  28    7.8001   558.4    5.487      47.520
2014   11       13    10  33    7.8016   558.7    5.483      47.570
2014   11       13    10  38    7.8030   559.0    5.479      47.620
2014   11       13    10  43    7.8044   559.2    5.475      47.669
2014   11       13    10  48    7.8057   559.5    5.472      47.718
2014   11       13    10  53    7.8071   559.7    5.468      47.767
2014   11       13    10  58    7.8085   560.0    5.465      47.817
2014   11       13    11   3    7.8098   560.2    5.462      47.868
2014   11       13    11   8    7.8112   560.5    5.459      47.919
2014   11       13    11  13    7.8126   560.7    5.457      47.971
2014   11       13    11  18    7.8140   561.0    5.455      48.023
2014   11       13    11  23    7.8155   561.2    5.453      48.078
2014   11       13    11  28    7.8171   561.5    5.452      48.137
2014   11       13    11  33    7.8184   561.7    5.451      48.198
2014   11       13    11  38    7.8204   562.0    5.450      48.261
2014   11       13    11  43    7.8222   562.3    5.450      48.326
2014   11       13    11  48    7.8240   562.5    5.450      48.395
2014   11       13    11  53    7.8258   562.8    5.450      48.467
2014   11       13    11  57    7.8276   563.1    5.450      48.542
2014   11       13    12   2    7.8290   563.4    5.450      48.619
2014   11       13    12   7    7.8307   563.7    5.451      48.698
2014   11       13    12  12    7.8327   564.0    5.451      48.779
2014   11       13    12  17    7.8342   564.4    5.450      48.863
2014   11       13    12  22    7.8357   564.7    5.450      48.947
2014   11       13    12  27    7.8370   565.0    5.449      49.030
2014   11       13    12  32    7.8382   565.3    5.447      49.111
2014   11       13    12  37    7.8392   565.7    5.446      49.192
2014   11       13    12  42    7.8401   566.0    5.443      49.271
2014   11       13    12  47    7.8408   566.4    5.440      49.350
2014   11       13    12  52    7.8410   566.7    5.437      49.426
2014   11       13    12  57    7.8418   567.0    5.433      49.501
2014   11       13    13   2    7.8422   567.4    5.429      49.572
2014   11       13    13   7    7.8425   567.7    5.425      49.641
2014   11       13    13  12    7.8427   568.1    5.420      49.708
2014   11       13    13  17    7.8428   568.4    5.415      49.773
2014   11       13    13  22    7.8429   568.7    5.410      49.836
2014   11       13    13  27    7.8429   569.0    5.404      49.897
2014   11       13    13  32    7.8430   569.4    5.398      49.957
2014   11       13    13  37    7.8429   569.7    5.393      50.016
2014   11       13    13  42    7.8429   570.0    5.387      50.074
2014   11       13    13  46    7.8428   570.3    5.381      50.131
2014   11       13    13  51    7.8427   570.7    5.375      50.188
2014   11       13    13  56    7.8426   571.0    5.368      50.245
2014   11       13    14   1    7.8425   571.3    5.362      50.303
2014   11       13    14   6    7.8419   571.6    5.356      50.361
2014   11       13    14  11    7.8420   572.0    5.349      50.418
2014   11       13    14  16    7.8417   572.3    5.342      50.475
2014   11       13    14  21    7.8414   572.6    5.335      50.532
2014   11       13    14  26    7.8410   572.9    5.328      50.589
2014   11       13    14  31    7.8405   573.3    5.320      50.646
2014   11       13    14  36    7.8399   573.6    5.313      50.702
2014   11       13    14  41    7.8392   574.0    5.305      50.758
2014   11       13    14  46    7.8384   574.3    5.297      50.813
2014   11       13    14  51    7.8376   574.6    5.288      50.867
2014   11       13    14  56    7.8366   575.0    5.280      50.919
2014   11       13    15   1    7.8356   575.3    5.271      50.970
2014   11       13    15   6    7.8344   575.7    5.262      51.019
2014   11       13    15  11    7.8333   576.0    5.253      51.066
2014   11       13    15  16    7.8320   576.3    5.244      51.112
2014   11       13    15  21    7.8307   576.6    5.235      51.157
2014   11       13    15  26    7.8293   576.9    5.226      51.201
2014   11       13    15  31    7.8280   577.2    5.217      51.245
2014   11       13    15  36    7.8266   577.5    5.208      51.289
2014   11       13    15  40    7.8248   577.8    5.199      51.333
2014   11       13    15  45    7.8237   578.1    5.191      51.378
2014   11       13    15  50    7.8223   578.5    5.182      51.424
2014   11       13    15  55    7.8209   578.8    5.173      51.470
2014   11       13    16   0    7.8191   579.1    5.165      51.517
2014   11       13    16   5    7.8179   579.4    5.156      51.565
2014   11       13    16  10    7.8164   579.8    5.148      51.612
2014   11       13    16  15    7.8148   580.1    5.139      51.660
2014   11       13    16  20    7.8132   580.4    5.131      51.706
2014   11       13    16  25    7.8115   580.8    5.122      51.752
2014   11       13    16  30    7.8093   581.1    5.114      51.797
2014   11       13    16  35    7.8078   581.5    5.105      51.841
2014   11       13    16  40    7.8059   581.8    5.096      51.883
2014   11       13    16  45    7.8038   582.2    5.087      51.923
2014   11       13    16  50    7.8017   582.5    5.079      51.962
2014   11       13    16  55    7.7994   582.8    5.070      52.000
2014   11       13    17   0    7.7966   583.2    5.061      52.036
2014   11       13    17   5    7.7946   583.5    5.052      52.072
2014   11       13    17  10    7.7922   583.8    5.043      52.106
2014   11       13    17  15    7.7896   584.1    5.034      52.139
2014   11       13    17  20    7.7870   584.5    5.025      52.172
2014   11       13    17  25    7.7842   584.8    5.016      52.204
2014   11       13    17  29    7.7815   585.1    5.007      52.235
2014   11       13    17  34    7.7786   585.4    4.998      52.265
2014   11       13    17  39    7.7758   585.7    4.989      52.294
2014   11       13    17  44    7.7729   586.1    4.980      52.323
2014   11       13    17  49    7.7695   586.4    4.972      52.351
2014   11       13    17  54    7.7665   586.7    4.963      52.379
2014   11       13    17  59    7.7640   587.0    4.955      52.406
2014   11       13    18   4    7.7605   587.3    4.946      52.433
2014   11       13    18   9    7.7575   587.6    4.938      52.461
2014   11       13    18  14    7.7550   587.9    4.931      52.489
2014   11       13    18  19    7.7520   588.2    4.923      52.517
2014   11       13    18  24    7.7490   588.5    4.916      52.546
2014   11       13    18  29    7.7461   588.8    4.909      52.577
2014   11       13    18  34    7.7431   589.1    4.902      52.611
2014   11       13    18  39    7.7401   589.4    4.895      52.648
2014   11       13    18  44    7.7370   589.7    4.888      52.688
2014   11       13    18  49    7.7340   590.1    4.881      52.729
2014   11       13    18  54    7.7308   590.4    4.874      52.772
2014   11       13    18  59    7.7276   590.7    4.867      52.816
2014   11       13    19   4    7.7237   591.0    4.860      52.860
2014   11       13    19   9    7.7209   591.4    4.853      52.904
2014   11       13    19  13    7.7174   591.7    4.845      52.948
2014   11       13    19  18    7.7138   592.0    4.837      52.992
2014   11       13    19  23    7.7101   592.3    4.829      53.036
2014   11       13    19  28    7.7063   592.7    4.821      53.079
2014   11       13    19  33    7.7019   593.0    4.813      53.120
2014   11       13    19  38    7.6984   593.3    4.804      53.159
2014   11       13    19  43    7.6943   593.6    4.795      53.195
2014   11       13    19  48    7.6901   593.9    4.786      53.229
2014   11       13    19  53    7.6859   594.2    4.777      53.261
2014   11       13    19  58    7.6816   594.5    4.767      53.291
2014   11       13    20   3    7.6773   594.8    4.758      53.320
2014   11       13    20   8    7.6730   595.1    4.748      53.347
2014   11       13    20  13    7.6686   595.3    4.739      53.372
2014   11       13    20  18    7.6642   595.6    4.729      53.396
2014   11       13    20  23    7.6598   595.9    4.720      53.418
2014   11       13    20  28    7.6554   596.1    4.711      53.440
2014   11       13    20  33    7.6510   596.4    4.701      53.461
2014   11       13    20  38    7.6467   596.6    4.692      53.482
2014   11       13    20  43    7.6422   596.9    4.683      53.502
2014   11       13    20  48    7.6379   597.1    4.674      53.523
2014   11       13    20  53    7.6334   597.4    4.665      53.543
2014   11       13    20  58    7.6290   597.6    4.656      53.564
2014   11       13    21   3    7.6246   597.8    4.647      53.586
2014   11       13    21   7    7.6201   598.1    4.638      53.608
2014   11       13    21  12    7.6155   598.3    4.629      53.630
2014   11       13    21  17    7.6110   598.6    4.620      53.653
2014   11       13    21  22    7.6064   598.8    4.612      53.676
2014   11       13    21  27    7.6017   599.0    4.603      53.699
2014   11       13    21  32    7.5970   599.3    4.594      53.722
2014   11       13    21  37    7.5922   599.6    4.585      53.744
2014   11       13    21  42    7.5872   599.8    4.576      53.766
2014   11       13    21  47    7.5823   600.1    4.567      53.787
2014   11       13    21  52    7.5772   600.3    4.557      53.807
2014   11       13    21  57    7.5716   600.6    4.548      53.826
2014   11       13    22   2    7.5668   600.8    4.539      53.842
2014   11       13    22   7    7.5616   601.1    4.529      53.857
2014   11       13    22  12    7.5563   601.3    4.520      53.869
2014   11       13    22  17    7.5509   601.5    4.511      53.880
2014   11       13    22  22    7.5455   601.7    4.502      53.889
2014   11       13    22  27    7.5401   601.9    4.493      53.898
2014   11       13    22  32    7.5346   602.1    4.484      53.905
2014   11       13    22  37    7.5292   602.3    4.475      53.913
2014   11       13    22  42    7.5237   602.5    4.466      53.922
2014   11       13    22  47    7.5183   602.7    4.458      53.931
2014   11       13    22  52    7.5129   602.9    4.450      53.942
2014   11       13    22  56    7.5075   603.1    4.442      53.953
2014   11       13    23   1    7.5020   603.3    4.434      53.965
2014   11       13    23   6    7.4966   603.5    4.426      53.976
2014   11       13    23  11    7.4911   603.7    4.418      53.988
2014   11       13    23  16    7.4855   604.0    4.411      53.999
2014   11       13    23  21    7.4799   604.2    4.403      54.009
2014   11       13    23  26    7.4743   604.4    4.396      54.018
2014   11       13    23  31    7.4686   604.6    4.388      54.026
2014   11       13    23  36    7.4629   604.9    4.381      54.031
2014   11       13    23  41    7.4571   605.1    4.373      54.035
2014   11       13    23  46    7.4512   605.3    4.366      54.037
2014   11       13    23  51    7.4453   605.5    4.358      54.037
2014   11       13    23  56    7.4394   605.7    4.351      54.036
2014   11       14     0   1    7.4329   605.9    4.343      54.033
2014   11       14     0   6    7.4269   606.1    4.336      54.029
2014   11       14     0  11    7.4212   606.3    4.329      54.023
2014   11       14     0  16    7.4151   606.4    4.321      54.017
2014   11       14     0  21    7.4086   606.6    4.314      54.010
2014   11       14     0  26    7.4029   606.8    4.307      54.001
2014   11       14     0  31    7.3967   607.0    4.300      53.991
2014   11       14     0  36    7.3903   607.1    4.293      53.980
2014   11       14     0  41    7.3846   607.3    4.287      53.968
2014   11       14     0  45    7.3782   607.4    4.280      53.956
2014   11       14     0  50    7.3725   607.5    4.274      53.944
2014   11       14     0  55    7.3666   607.7    4.268      53.931
2014   11       14     1   0    7.3607   607.8    4.262      53.918
2014   11       14     1   5    7.3548   607.9    4.256      53.906
2014   11       14     1  10    7.3490   608.1    4.250      53.894
2014   11       14     1  15    7.3433   608.2    4.244      53.882
2014   11       14     1  20    7.3375   608.4    4.238      53.871
2014   11       14     1  25    7.3317   608.5    4.233      53.861
2014   11       14     1  30    7.3260   608.7    4.227      53.850
2014   11       14     1  35    7.3202   608.8    4.221      53.841
2014   11       14     1  40    7.3144   609.0    4.216      53.832
2014   11       14     1  45    7.3086   609.1    4.210      53.823
2014   11       14     1  50    7.3026   609.3    4.204      53.813
2014   11       14     1  55    7.2967   609.5    4.198      53.803
2014   11       14     2   0    7.2905   609.6    4.191      53.791
2014   11       14     2   5    7.2847   609.8    4.185      53.779
2014   11       14     2  10    7.2786   609.9    4.178      53.766
2014   11       14     2  15    7.2725   610.0    4.172      53.751
2014   11       14     2  20    7.2664   610.2    4.165      53.735
2014   11       14     2  25    7.2603   610.3    4.158      53.718
2014   11       14     2  30    7.2541   610.4    4.151      53.700
2014   11       14     2  34    7.2480   610.5    4.144      53.681
2014   11       14     2  39    7.2419   610.6    4.137      53.661
2014   11       14     2  44    7.2358   610.7    4.130      53.640
2014   11       14     2  49    7.2298   610.8    4.123      53.617
2014   11       14     2  54    7.2238   610.9    4.116      53.595
2014   11       14     2  59    7.2178   610.9    4.109      53.572
2014   11       14     3   4    7.2119   611.0    4.102      53.548
2014   11       14     3   9    7.2060   611.1    4.095      53.523
2014   11       14     3  14    7.2001   611.1    4.089      53.499
2014   11       14     3  19    7.1943   611.2    4.082      53.474
2014   11       14     3  24    7.1885   611.2    4.075      53.450
2014   11       14     3  29    7.1827   611.3    4.068      53.426
2014   11       14     3  34    7.1770   611.3    4.062      53.402
2014   11       14     3  39    7.1712   611.4    4.055      53.378
2014   11       14     3  44    7.1655   611.4    4.048      53.355
2014   11       14     3  49    7.1598   611.5    4.042      53.332
2014   11       14     3  54    7.1541   611.5    4.035      53.310
2014   11       14     3  59    7.1484   611.6    4.029      53.288
2014   11       14     4   4    7.1427   611.6    4.022      53.266
2014   11       14     4   9    7.1369   611.7    4.016      53.244
2014   11       14     4  14    7.1312   611.7    4.010      53.222
2014   11       14     4  19    7.1255   611.8    4.003      53.200
2014   11       14     4  23    7.1197   611.8    3.997      53.177
2014   11       14     4  28    7.1140   611.9    3.990      53.154
2014   11       14     4  33    7.1082   611.9    3.984      53.131
2014   11       14     4  38    7.1024   612.0    3.978      53.107
2014   11       14     4  43    7.0966   612.0    3.971      53.083
2014   11       14     4  48    7.0908   612.1    3.965      53.057
2014   11       14     4  53    7.0850   612.1    3.959      53.031
2014   11       14     4  58    7.0791   612.1    3.952      53.004
2014   11       14     5   3    7.0732   612.2    3.946      52.976
2014   11       14     5   8    7.0674   612.2    3.939      52.947
2014   11       14     5  13    7.0615   612.2    3.933      52.918
2014   11       14     5  18    7.0556   612.2    3.927      52.888
2014   11       14     5  23    7.0497   612.3    3.921      52.858
2014   11       14     5  28    7.0438   612.3    3.914      52.827
2014   11       14     5  33    7.0379   612.3    3.908      52.795
2014   11       14     5  38    7.0320   612.3    3.902      52.764
2014   11       14     5  43    7.0260   612.3    3.896      52.731
2014   11       14     5  48    7.0201   612.4    3.890      52.699
2014   11       14     5  53    7.0142   612.4    3.884      52.665
2014   11       14     5  58    7.0083   612.4    3.878      52.632
2014   11       14     6   3    7.0024   612.4    3.872      52.598
2014   11       14     6   8    6.9965   612.4    3.867      52.564
2014   11       14     6  13    6.9906   612.4    3.861      52.529
2014   11       14     6  17    6.9846   612.4    3.856      52.495
2014   11       14     6  22    6.9787   612.4    3.850      52.459
2014   11       14     6  27    6.9728   612.4    3.845      52.424
2014   11       14     6  32    6.9669   612.4    3.840      52.389
2014   11       14     6  37    6.9610   612.4    3.835      52.353
2014   11       14     6  42    6.9551   612.4    3.830      52.317
2014   11       14     6  47    6.9493   612.4    3.825      52.281
2014   11       14     6  52    6.9435   612.3    3.820      52.245
2014   11       14     6  57    6.9377   612.3    3.816      52.209
2014   11       14     7   2    6.9320   612.3    3.812      52.173
2014   11       14     7   7    6.9263   612.3    3.807      52.138
2014   11       14     7  12    6.9207   612.2    3.803      52.102
2014   11       14     7  17    6.9152   612.2    3.800      52.066
2014   11       14     7  22    6.9097   612.1    3.796      52.031
2014   11       14     7  27    6.9041   612.1    3.793      51.996
2014   11       14     7  32    6.8987   612.1    3.790      51.961
2014   11       14     7  37    6.8933   612.0    3.787      51.926
2014   11       14     7  42    6.8880   612.0    3.784      51.892
2014   11       14     7  47    6.8828   611.9    3.781      51.858
2014   11       14     7  52    6.8777   611.8    3.779      51.826
2014   11       14     7  57    6.8726   611.8    3.777      51.795
2014   11       14     8   2    6.8676   611.7    3.775      51.764
2014   11       14     8   6    6.8627   611.7    3.774      51.735
2014   11       14     8  11    6.8578   611.6    3.772      51.706
2014   11       14     8  16    6.8529   611.6    3.771      51.678
2014   11       14     8  21    6.8481   611.5    3.770      51.651
2014   11       14     8  26    6.8433   611.4    3.769      51.625
2014   11       14     8  31    6.8385   611.4    3.768      51.600
2014   11       14     8  36    6.8338   611.3    3.767      51.575
2014   11       14     8  41    6.8291   611.3    3.767      51.552
2014   11       14     8  46    6.8244   611.2    3.766      51.529
2014   11       14     8  51    6.8199   611.2    3.766      51.506
2014   11       14     8  56    6.8151   611.1    3.765      51.484
2014   11       14     9   1    6.8104   611.0    3.765      51.463
2014   11       14     9   6    6.8058   611.0    3.764      51.443
2014   11       14     9  11    6.8011   610.9    3.764      51.423
2014   11       14     9  16    6.7965   610.9    3.763      51.403
2014   11       14     9  21    6.7919   610.8    3.763      51.384
2014   11       14     9  26    6.7872   610.8    3.762      51.365
2014   11       14     9  31    6.7828   610.7    3.761      51.346
2014   11       14     9  36    6.7779   610.7    3.761      51.327
2014   11       14     9  41    6.7732   610.6    3.760      51.307
2014   11       14     9  46    6.7686   610.6    3.759      51.287
2014   11       14     9  50    6.7639   610.6    3.757      51.266
2014   11       14     9  55    6.7592   610.5    3.756      51.244
2014   11       14    10   0    6.7546   610.5    3.755      51.222
2014   11       14    10   5    6.7499   610.4    3.753      51.199
2014   11       14    10  10    6.7452   610.4    3.751      51.175
2014   11       14    10  15    6.7405   610.3    3.749      51.149
2014   11       14    10  20    6.7358   610.3    3.747      51.122
2014   11       14    10  25    6.7311   610.2    3.745      51.093
2014   11       14    10  30    6.7264   610.2    3.742      51.064
2014   11       14    10  35    6.7217   610.1    3.740      51.033
2014   11       14    10  40    6.7170   610.1    3.737      51.001
2014   11       14    10  45    6.7123   610.0    3.734      50.967
2014   11       14    10  50    6.7075   610.0    3.731      50.933
2014   11       14    10  55    6.7031   609.9    3.728      50.898
2014   11       14    11   0    6.6981   609.9    3.725      50.861
2014   11       14    11   5    6.6934   609.8    3.722      50.823
2014   11       14    11  10    6.6887   609.7    3.718      50.785
2014   11       14    11  15    6.6841   609.7    3.715      50.745
2014   11       14    11  20    6.6794   609.6    3.711      50.704
2014   11       14    11  25    6.6747   609.5    3.708      50.663
2014   11       14    11  30    6.6700   609.5    3.704      50.620
2014   11       14    11  35    6.6653   609.4    3.700      50.577
2014   11       14    11  40    6.6607   609.3    3.697      50.533
2014   11       14    11  44    6.6560   609.3    3.693      50.488
2014   11       14    11  49    6.6514   609.2    3.689      50.443
2014   11       14    11  54    6.6467   609.1    3.685      50.397
2014   11       14    11  59    6.6421   609.0    3.681      50.350
2014   11       14    12   4    6.6375   608.9    3.677      50.302
2014   11       14    12   9    6.6329   608.9    3.673      50.254
2014   11       14    12  14    6.6284   608.8    3.669      50.206
2014   11       14    12  19    6.6238   608.7    3.665      50.157
2014   11       14    12  24    6.6193   608.6    3.661      50.107
2014   11       14    12  29    6.6151   608.5    3.657      50.057
2014   11       14    12  34    6.6103   608.4    3.653      50.007
2014   11       14    12  39    6.6059   608.3    3.649      49.956
2014   11       14    12  44    6.6015   608.2    3.645      49.905
2014   11       14    12  49    6.5974   608.1    3.641      49.853
2014   11       14    12  54    6.5927   608.0    3.637      49.801
2014   11       14    12  59    6.5884   607.9    3.633      49.749
2014   11       14    13   4    6.5844   607.8    3.629      49.697
2014   11       14    13   9    6.5798   607.7    3.625      49.645
2014   11       14    13  14    6.5756   607.6    3.621      49.592
2014   11       14    13  19    6.5714   607.4    3.617      49.539
2014   11       14    13  24    6.5672   607.3    3.613      49.486
2014   11       14    13  29    6.5631   607.2    3.609      49.433
2014   11       14    13  34    6.5590   607.1    3.606      49.380
2014   11       14    13  38    6.5549   607.0    3.602      49.327
2014   11       14    13  43    6.5509   606.8    3.598      49.273
2014   11       14    13  48    6.5468   606.7    3.595      49.220
2014   11       14    13  53    6.5428   606.6    3.591      49.167
2014   11       14    13  58    6.5389   606.4    3.588      49.114
2014   11       14    14   3    6.5350   606.3    3.585      49.062
2014   11       14    14   8    6.5311   606.2    3.581      49.010
2014   11       14    14  13    6.5273   606.0    3.578      48.958
2014   11       14    14  18    6.5234   605.9    3.575      48.907
2014   11       14    14  23    6.5197   605.7    3.572      48.855
2014   11       14    14  28    6.5159   605.6    3.570      48.805
2014   11       14    14  33    6.5122   605.5    3.567      48.755
2014   11       14    14  38    6.5085   605.3    3.564      48.705
2014   11       14    14  43    6.5049   605.2    3.562      48.657
2014   11       14    14  48    6.5013   605.0    3.560      48.608
2014   11       14    14  53    6.4977   604.9    3.557      48.561
2014   11       14    14  58    6.4941   604.8    3.555      48.514
2014   11       14    15   3    6.4905   604.6    3.553      48.468
2014   11       14    15   8    6.4870   604.5    3.551      48.423
2014   11       14    15  13    6.4835   604.3    3.550      48.379
2014   11       14    15  18    6.4799   604.2    3.548      48.335
2014   11       14    15  22    6.4764   604.1    3.547      48.292
2014   11       14    15  27    6.4729   603.9    3.545      48.250
2014   11       14    15  32    6.4694   603.8    3.544      48.209
2014   11       14    15  37    6.4660   603.7    3.543      48.169
2014   11       14    15  42    6.4626   603.5    3.542      48.130
2014   11       14    15  47    6.4590   603.4    3.541      48.092
2014   11       14    15  52    6.4555   603.3    3.540      48.054
2014   11       14    15  57    6.4521   603.1    3.539      48.017
2014   11       14    16   2    6.4485   603.0    3.539      47.983
2014   11       14    16   7    6.4450   602.8    3.539      47.949
2014   11       14    16  12    6.4415   602.7    3.538      47.917
2014   11       14    16  17    6.4379   602.6    3.538      47.886
2014   11       14    16  22    6.4344   602.5    3.538      47.855
2014   11       14    16  27    6.4307   602.3    3.538      47.826
2014   11       14    16  32    6.4272   602.2    3.538      47.797
2014   11       14    16  37    6.4234   602.1    3.538      47.768
2014   11       14    16  42    6.4198   601.9    3.537      47.740
2014   11       14    16  47    6.4160   601.8    3.537      47.712
2014   11       14    16  52    6.4122   601.7    3.537      47.684
2014   11       14    16  57    6.4084   601.6    3.537      47.655
2014   11       14    17   2    6.4046   601.4    3.536      47.627
2014   11       14    17   7    6.4008   601.3    3.536      47.598
2014   11       14    17  11    6.3969   601.2    3.536      47.568
2014   11       14    17  16    6.3930   601.0    3.535      47.538
2014   11       14    17  21    6.3891   600.9    3.535      47.506
2014   11       14    17  26    6.3852   600.8    3.534      47.475
2014   11       14    17  31    6.3813   600.6    3.534      47.442
2014   11       14    17  36    6.3774   600.5    3.533      47.410
2014   11       14    17  41    6.3735   600.3    3.533      47.376
2014   11       14    17  46    6.3696   600.2    3.532      47.342
2014   11       14    17  51    6.3656   600.0    3.531      47.308
2014   11       14    17  56    6.3618   599.9    3.531      47.273
2014   11       14    18   1    6.3579   599.7    3.530      47.237
2014   11       14    18   6    6.3540   599.6    3.530      47.201
2014   11       14    18  11    6.3502   599.4    3.529      47.164
2014   11       14    18  16    6.3463   599.3    3.529      47.127
2014   11       14    18  21    6.3425   599.1    3.528      47.090
2014   11       14    18  26    6.3387   598.9    3.528      47.052
2014   11       14    18  31    6.3349   598.8    3.527      47.014
2014   11       14    18  36    6.3312   598.6    3.527      46.976
2014   11       14    18  41    6.3275   598.4    3.527      46.938
2014   11       14    18  46    6.3239   598.2    3.526      46.899
2014   11       14    18  51    6.3202   598.1    3.526      46.860
2014   11       14    18  56    6.3167   597.9    3.526      46.821
2014   11       14    19   0    6.3131   597.7    3.526      46.782
2014   11       14    19   5    6.3097   597.5    3.526      46.743
2014   11       14    19  10    6.3062   597.3    3.526      46.703
2014   11       14    19  15    6.3029   597.1    3.526      46.664
2014   11       14    19  20    6.2996   596.9    3.526      46.626
2014   11       14    19  25    6.2964   596.7    3.527      46.588
2014   11       14    19  30    6.2932   596.5    3.527      46.551
2014   11       14    19  35    6.2902   596.3    3.527      46.514
2014   11       14    19  40    6.2872   596.1    3.528      46.479
2014   11       14    19  45    6.2843   595.9    3.528      46.443
2014   11       14    19  50    6.2815   595.7    3.529      46.408
2014   11       14    19  55    6.2788   595.5    3.529      46.373
2014   11       14    20   0    6.2762   595.3    3.530      46.339
2014   11       14    20   5    6.2736   595.1    3.530      46.304
2014   11       14    20  10    6.2711   594.9    3.530      46.269
2014   11       14    20  15    6.2687   594.7    3.530      46.234
2014   11       14    20  20    6.2663   594.5    3.530      46.199
2014   11       14    20  25    6.2640   594.3    3.530      46.163
2014   11       14    20  30    6.2617   594.2    3.530      46.127
2014   11       14    20  35    6.2594   594.0    3.530      46.089
2014   11       14    20  40    6.2571   593.8    3.529      46.050
2014   11       14    20  45    6.2549   593.6    3.529      46.011
2014   11       14    20  50    6.2527   593.4    3.528      45.971
2014   11       14    20  54    6.2504   593.2    3.527      45.929
2014   11       14    20  59    6.2482   593.0    3.526      45.887
2014   11       14    21   4    6.2459   592.9    3.525      45.844
2014   11       14    21   9    6.2437   592.7    3.524      45.800
2014   11       14    21  14    6.2415   592.5    3.522      45.755
2014   11       14    21  19    6.2393   592.3    3.521      45.709
2014   11       14    21  24    6.2371   592.1    3.520      45.663
2014   11       14    21  29    6.2349   591.9    3.518      45.616
2014   11       14    21  34    6.2327   591.8    3.517      45.568
2014   11       14    21  39    6.2305   591.6    3.515      45.520
2014   11       14    21  44    6.2282   591.4    3.513      45.471
2014   11       14    21  49    6.2260   591.2    3.511      45.422
2014   11       14    21  54    6.2237   591.1    3.509      45.372
2014   11       14    21  59    6.2215   590.9    3.507      45.321
2014   11       14    22   4    6.2192   590.7    3.505      45.270
2014   11       14    22   9    6.2169   590.5    3.503      45.218
2014   11       14    22  14    6.2146   590.4    3.501      45.166
2014   11       14    22  19    6.2123   590.2    3.499      45.113
2014   11       14    22  24    6.2099   590.0    3.496      45.059
2014   11       14    22  29    6.2075   589.9    3.494      45.006
2014   11       14    22  34    6.2051   589.7    3.492      44.951
2014   11       14    22  39    6.2028   589.5    3.489      44.897
2014   11       14    22  43    6.2001   589.4    3.487      44.841
2014   11       14    22  48    6.1976   589.2    3.484      44.786
2014   11       14    22  53    6.1951   589.0    3.481      44.730
2014   11       14    22  58    6.1925   588.8    3.479      44.674
2014   11       14    23   3    6.1899   588.7    3.476      44.617
2014   11       14    23   8    6.1873   588.5    3.474      44.561
2014   11       14    23  13    6.1847   588.3    3.471      44.504
2014   11       14    23  18    6.1820   588.1    3.468      44.446
2014   11       14    23  23    6.1793   587.9    3.466      44.389
2014   11       14    23  28    6.1766   587.7    3.463      44.331
2014   11       14    23  33    6.1738   587.5    3.461      44.273
2014   11       14    23  38    6.1711   587.4    3.458      44.216
2014   11       14    23  43    6.1683   587.2    3.455      44.158
2014   11       14    23  48    6.1654   587.0    3.453      44.100
2014   11       14    23  53    6.1626   586.8    3.450      44.042
2014   11       14    23  58    6.1597   586.6    3.448      43.984
2014   11       15     0   3    6.1569   586.3    3.445      43.926
2014   11       15     0   8    6.1539   586.1    3.443      43.868
2014   11       15     0  13    6.1510   585.9    3.441      43.811
2014   11       15     0  18    6.1480   585.7    3.438      43.753
2014   11       15     0  23    6.1451   585.5    3.436      43.696
2014   11       15     0  27    6.1422   585.3    3.434      43.639
2014   11       15     0  32    6.1392   585.0    3.432      43.583
2014   11       15     0  37    6.1364   584.8    3.430      43.527
2014   11       15     0  42    6.1333   584.6    3.428      43.471
2014   11       15     0  47    6.1304   584.3    3.427      43.416
2014   11       15     0  52    6.1275   584.1    3.425      43.362
2014   11       15     0  57    6.1246   583.8    3.424      43.308
2014   11       15     1   2    6.1216   583.6    3.423      43.255
2014   11       15     1   7    6.1188   583.4    3.421      43.202
2014   11       15     1  12    6.1159   583.1    3.420      43.151
2014   11       15     1  17    6.1131   582.8    3.420      43.100
2014   11       15     1  22    6.1103   582.6    3.419      43.050
2014   11       15     1  27    6.1075   582.3    3.419      43.000
2014   11       15     1  32    6.1047   582.1    3.418      42.952
2014   11       15     1  37    6.1020   581.8    3.418      42.905
2014   11       15     1  42    6.0994   581.5    3.418      42.859
2014   11       15     1  47    6.0968   581.2    3.419      42.814
2014   11       15     1  52    6.0942   581.0    3.419      42.771
2014   11       15     1  57    6.0917   580.7    3.420      42.728
2014   11       15     2   2    6.0892   580.4    3.421      42.688
2014   11       15     2   7    6.0868   580.1    3.423      42.649
2014   11       15     2  12    6.0845   579.8    3.424      42.611
2014   11       15     2  17    6.0822   579.6    3.426      42.575
2014   11       15     2  21    6.0801   579.3    3.428      42.540
2014   11       15     2  26    6.0780   579.0    3.431      42.508
2014   11       15     2  31    6.0759   578.7    3.433      42.479
2014   11       15     2  36    6.0740   578.4    3.436      42.451
2014   11       15     2  41    6.0722   578.1    3.439      42.425
2014   11       15     2  46    6.0704   577.8    3.443      42.402
2014   11       15     2  51    6.0687   577.6    3.446      42.380
2014   11       15     2  56    6.0671   577.3    3.450      42.359
2014   11       15     3   1    6.0657   577.0    3.454      42.340
2014   11       15     3   6    6.0642   576.7    3.458      42.322
2014   11       15     3  11    6.0629   576.5    3.462      42.304
2014   11       15     3  16    6.0616   576.2    3.466      42.287
2014   11       15     3  21    6.0604   576.0    3.470      42.271
2014   11       15     3  26    6.0591   575.7    3.474      42.255
2014   11       15     3  31    6.0580   575.5    3.478      42.240
2014   11       15     3  36    6.0568   575.2    3.481      42.224
2014   11       15     3  41    6.0556   574.9    3.485      42.207
2014   11       15     3  46    6.0545   574.7    3.489      42.191
2014   11       15     3  51    6.0533   574.4    3.492      42.173
2014   11       15     3  56    6.0521   574.2    3.496      42.155
2014   11       15     4   1    6.0509   573.9    3.499      42.136
2014   11       15     4   6    6.0496   573.7    3.502      42.115
2014   11       15     4  11    6.0483   573.5    3.505      42.094
2014   11       15     4  15    6.0470   573.2    3.507      42.072
2014   11       15     4  20    6.0457   573.0    3.510      42.049
2014   11       15     4  25    6.0443   572.7    3.512      42.025
2014   11       15     4  30    6.0428   572.5    3.514      41.999
2014   11       15     4  35    6.0414   572.2    3.516      41.973
2014   11       15     4  40    6.0400   572.0    3.518      41.945
2014   11       15     4  45    6.0385   571.7    3.520      41.916
2014   11       15     4  50    6.0370   571.5    3.521      41.886
2014   11       15     4  55    6.0355   571.2    3.523      41.854
2014   11       15     5   0    6.0340   571.0    3.524      41.822
2014   11       15     5   5    6.0324   570.7    3.525      41.788
2014   11       15     5  10    6.0309   570.5    3.526      41.753
2014   11       15     5  15    6.0294   570.2    3.527      41.717
2014   11       15     5  20    6.0278   569.9    3.527      41.679
2014   11       15     5  25    6.0263   569.7    3.528      41.641
2014   11       15     5  30    6.0248   569.4    3.529      41.602
2014   11       15     5  35    6.0232   569.2    3.529      41.561
2014   11       15     5  40    6.0217   568.9    3.529      41.519
2014   11       15     5  45    6.0201   568.7    3.529      41.477
2014   11       15     5  50    6.0186   568.4    3.530      41.433
2014   11       15     5  55    6.0172   568.1    3.530      41.389
2014   11       15     6   0    6.0156   567.9    3.530      41.344
2014   11       15     6   4    6.0141   567.6    3.530      41.298
2014   11       15     6   9    6.0126   567.3    3.529      41.252
2014   11       15     6  14    6.0111   567.0    3.529      41.205
2014   11       15     6  19    6.0096   566.8    3.529      41.157
2014   11       15     6  24    6.0082   566.5    3.529      41.110
2014   11       15     6  29    6.0068   566.2    3.529      41.063
2014   11       15     6  34    6.0054   565.9    3.529      41.015
2014   11       15     6  39    6.0040   565.7    3.528      40.968
2014   11       15     6  44    6.0027   565.4    3.528      40.921
2014   11       15     6  49    6.0014   565.1    3.528      40.874
2014   11       15     6  54    6.0000   564.8    3.527      40.826
2014   11       15     6  59    5.9989   564.5    3.527      40.779
2014   11       15     7   4    5.9974   564.3    3.526      40.732
2014   11       15     7   9    5.9961   564.0    3.526      40.684
2014   11       15     7  14    5.9948   563.7    3.525      40.636
2014   11       15     7  19    5.9935   563.4    3.525      40.589
2014   11       15     7  24    5.9923   563.1    3.524      40.541
2014   11       15     7  29    5.9910   562.9    3.523      40.493
2014   11       15     7  34    5.9897   562.6    3.523      40.444
2014   11       15     7  39    5.9884   562.3    3.522      40.395
2014   11       15     7  44    5.9871   562.0    3.521      40.346
2014   11       15     7  48    5.9859   561.7    3.520      40.297
2014   11       15     7  53    5.9846   561.4    3.520      40.247
2014   11       15     7  58    5.9834   561.1    3.519      40.197
2014   11       15     8   3    5.9821   560.8    3.518      40.146
2014   11       15     8   8    5.9809   560.6    3.517      40.095
2014   11       15     8  13    5.9799   560.3    3.516      40.043
2014   11       15     8  18    5.9787   560.0    3.516      39.992
2014   11       15     8  23    5.9775   559.7    3.515      39.940
2014   11       15     8  28    5.9764   559.4    3.514      39.887
2014   11       15     8  33    5.9751   559.1    3.513      39.835
2014   11       15     8  38    5.9739   558.7    3.513      39.782
2014   11       15     8  43    5.9729   558.4    3.512      39.729
2014   11       15     8  48    5.9718   558.1    3.512      39.676
2014   11       15     8  53    5.9708   557.8    3.511      39.623
2014   11       15     8  58    5.9698   557.5    3.511      39.570
2014   11       15     9   3    5.9688   557.2    3.511      39.518
2014   11       15     9   8    5.9679   556.8    3.511      39.465
2014   11       15     9  13    5.9670   556.5    3.511      39.413
2014   11       15     9  18    5.9661   556.2    3.511      39.362
2014   11       15     9  23    5.9653   555.9    3.511      39.311
2014   11       15     9  28    5.9645   555.5    3.511      39.261
2014   11       15     9  33    5.9640   555.2    3.512      39.212
2014   11       15     9  38    5.9631   554.9    3.513      39.164
2014   11       15     9  42    5.9625   554.6    3.514      39.117
2014   11       15     9  47    5.9620   554.2    3.515      39.072
2014   11       15     9  52    5.9615   553.9    3.517      39.028
2014   11       15     9  57    5.9610   553.6    3.518      38.985
2014   11       15    10   2    5.9606   553.2    3.520      38.943
2014   11       15    10   7    5.9602   552.9    3.523      38.903
2014   11       15    10  12    5.9599   552.6    3.525      38.865
2014   11       15    10  17    5.9596   552.3    3.528      38.828
2014   11       15    10  22    5.9594   552.0    3.530      38.792
2014   11       15    10  27    5.9592   551.6    3.533      38.758
2014   11       15    10  32    5.9590   551.3    3.536      38.724
2014   11       15    10  37    5.9589   551.0    3.539      38.692
2014   11       15    10  42    5.9587   550.7    3.543      38.660
2014   11       15    10  47    5.9586   550.4    3.546      38.630
2014   11       15    10  52    5.9584   550.1    3.550      38.599
2014   11       15    10  57    5.9583   549.8    3.553      38.570
2014   11       15    11   2    5.9581   549.5    3.557      38.541
2014   11       15    11   7    5.9579   549.1    3.561      38.512
2014   11       15    11  12    5.9577   548.8    3.564      38.483
2014   11       15    11  17    5.9576   548.5    3.568      38.454
2014   11       15    11  22    5.9573   548.1    3.571      38.425
2014   11       15    11  27    5.9571   547.8    3.575      38.396
2014   11       15    11  31    5.9569   547.5    3.578      38.366
2014   11       15    11  36    5.9566   547.1    3.582      38.336
2014   11       15    11  41    5.9564   546.8    3.585      38.306
2014   11       15    11  46    5.9562   546.4    3.589      38.276
2014   11       15    11  51    5.9560   546.1    3.592      38.245
2014   11       15    11  56    5.9558   545.7    3.595      38.214
2014   11       15    12   1    5.9557   545.4    3.599      38.182
2014   11       15    12   6    5.9556   545.0    3.602      38.150
2014   11       15    12  11    5.9556   544.7    3.605      38.118
2014   11       15    12  16    5.9555   544.3    3.609      38.085
2014   11       15    12  21    5.9556   543.9    3.612      38.053
2014   11       15    12  26    5.9557   543.6    3.615      38.020
2014   11       15    12  31    5.9558   543.2    3.619      37.986
2014   11       15    12  36    5.9561   542.9    3.622      37.953
2014   11       15    12  41    5.9564   542.5    3.626      37.920
2014   11       15    12  46    5.9567   542.1    3.629      37.887
2014   11       15    12  51    5.9572   541.8    3.633      37.853
2014   11       15    12  56    5.9577   541.4    3.636      37.820
2014   11       15    13   1    5.9583   541.0    3.640      37.787
2014   11       15    13   6    5.9591   540.6    3.643      37.754
2014   11       15    13  11    5.9597   540.3    3.647      37.721
2014   11       15    13  16    5.9606   539.9    3.651      37.689
2014   11       15    13  20    5.9615   539.5    3.655      37.657
2014   11       15    13  25    5.9626   539.2    3.659      37.626
2014   11       15    13  30    5.9636   538.8    3.663      37.595
2014   11       15    13  35    5.9647   538.4    3.667      37.565
2014   11       15    13  40    5.9660   538.0    3.671      37.535
2014   11       15    13  45    5.9673   537.7    3.675      37.506
2014   11       15    13  50    5.9687   537.3    3.680      37.478
2014   11       15    13  55    5.9701   536.9    3.684      37.451
2014   11       15    14   0    5.9716   536.6    3.689      37.425
2014   11       15    14   5    5.9732   536.2    3.694      37.400
2014   11       15    14  10    5.9748   535.8    3.698      37.376
2014   11       15    14  15    5.9765   535.5    3.703      37.353
2014   11       15    14  20    5.9783   535.1    3.708      37.331
2014   11       15    14  25    5.9800   534.8    3.713      37.309
2014   11       15    14  30    5.9818   534.4    3.718      37.288
2014   11       15    14  35    5.9837   534.0    3.722      37.267
2014   11       15    14  40    5.9856   533.7    3.727      37.246
2014   11       15    14  45    5.9875   533.3    3.732      37.226
2014   11       15    14  50    5.9894   533.0    3.737      37.207
2014   11       15    14  55    5.9914   532.6    3.742      37.187
2014   11       15    15   0    5.9934   532.3    3.747      37.168
2014   11       15    15   5    5.9954   531.9    3.752      37.148
2014   11       15    15   9    5.9974   531.6    3.758      37.128
2014   11       15    15  14    5.9995   531.2    3.763      37.108
2014   11       15    15  19    6.0016   530.9    3.768      37.088
2014   11       15    15  24    6.0038   530.5    3.773      37.068
2014   11       15    15  29    6.0060   530.2    3.778      37.047
2014   11       15    15  34    6.0082   529.8    3.783      37.027
2014   11       15    15  39    6.0104   529.5    3.789      37.006
2014   11       15    15  44    6.0127   529.1    3.794      36.986
2014   11       15    15  49    6.0151   528.8    3.799      36.965
2014   11       15    15  54    6.0175   528.4    3.805      36.944
2014   11       15    15  59    6.0199   528.1    3.810      36.923
2014   11       15    16   4    6.0224   527.7    3.816      36.903
2014   11       15    16   9    6.0249   527.4    3.822      36.882
2014   11       15    16  14    6.0279   527.0    3.828      36.861
2014   11       15    16  19    6.0301   526.7    3.833      36.840
2014   11       15    16  24    6.0328   526.3    3.839      36.820
2014   11       15    16  29    6.0355   525.9    3.845      36.799
2014   11       15    16  34    6.0383   525.6    3.851      36.779
2014   11       15    16  39    6.0412   525.2    3.857      36.759
2014   11       15    16  44    6.0441   524.9    3.864      36.739
2014   11       15    16  49    6.0471   524.5    3.870      36.719
2014   11       15    16  54    6.0501   524.2    3.876      36.700
2014   11       15    16  58    6.0533   523.9    3.883      36.681
2014   11       15    17   3    6.0569   523.5    3.889      36.662
2014   11       15    17   8    6.0597   523.2    3.896      36.643
2014   11       15    17  13    6.0630   522.8    3.902      36.624
2014   11       15    17  18    6.0664   522.5    3.909      36.605
2014   11       15    17  23    6.0703   522.2    3.915      36.587
2014   11       15    17  28    6.0733   521.8    3.922      36.568
2014   11       15    17  33    6.0768   521.5    3.928      36.549
2014   11       15    17  38    6.0804   521.2    3.935      36.531
2014   11       15    17  43    6.0840   520.8    3.941      36.512
2014   11       15    17  48    6.0877   520.5    3.948      36.494
2014   11       15    17  53    6.0915   520.2    3.955      36.475
2014   11       15    17  58    6.0958   519.9    3.961      36.456
2014   11       15    18   3    6.0996   519.6    3.968      36.438
2014   11       15    18   8    6.1029   519.2    3.974      36.419
2014   11       15    18  13    6.1068   518.9    3.981      36.400
2014   11       15    18  18    6.1113   518.6    3.987      36.381
2014   11       15    18  23    6.1148   518.3    3.993      36.362
2014   11       15    18  28    6.1189   518.0    4.000      36.344
2014   11       15    18  33    6.1229   517.7    4.006      36.325
2014   11       15    18  38    6.1271   517.4    4.013      36.307
2014   11       15    18  43    6.1313   517.1    4.019      36.288
2014   11       15    18  48    6.1356   516.7    4.026      36.270
2014   11       15    18  52    6.1399   516.4    4.032      36.252
2014   11       15    18  57    6.1442   516.1    4.039      36.233
2014   11       15    19   2    6.1486   515.8    4.045      36.215
2014   11       15    19   7    6.1537   515.5    4.052      36.197
2014   11       15    19  12    6.1577   515.2    4.058      36.179
2014   11       15    19  17    6.1623   514.9    4.065      36.162
2014   11       15    19  22    6.1670   514.6    4.071      36.145
2014   11       15    19  27    6.1717   514.3    4.078      36.127
2014   11       15    19  32    6.1765   514.0    4.084      36.110
2014   11       15    19  37    6.1815   513.7    4.091      36.094
2014   11       15    19  42    6.1864   513.4    4.098      36.078
2014   11       15    19  47    6.1915   513.1    4.104      36.062
2014   11       15    19  52    6.1966   512.8    4.111      36.046
2014   11       15    19  57    6.2019   512.5    4.118      36.032
2014   11       15    20   2    6.2071   512.2    4.125      36.017
2014   11       15    20   7    6.2131   511.9    4.132      36.004
2014   11       15    20  12    6.2180   511.6    4.139      35.991
2014   11       15    20  17    6.2241   511.3    4.146      35.979
2014   11       15    20  22    6.2291   511.0    4.153      35.967
2014   11       15    20  27    6.2349   510.7    4.160      35.957
2014   11       15    20  32    6.2406   510.4    4.167      35.947
2014   11       15    20  37    6.2465   510.1    4.174      35.938
2014   11       15    20  41    6.2530   509.9    4.181      35.929
2014   11       15    20  46    6.2584   509.6    4.189      35.922
2014   11       15    20  51    6.2645   509.3    4.196      35.916
2014   11       15    20  56    6.2706   509.0    4.204      35.910
2014   11       15    21   1    6.2768   508.7    4.211      35.906
2014   11       15    21   6    6.2831   508.5    4.219      35.902
2014   11       15    21  11    6.2894   508.2    4.227      35.899
2014   11       15    21  16    6.2958   507.9    4.234      35.897
2014   11       15    21  21    6.3022   507.7    4.242      35.896
2014   11       15    21  26    6.3087   507.4    4.250      35.895
2014   11       15    21  31    6.3159   507.2    4.258      35.896
2014   11       15    21  36    6.3219   506.9    4.266      35.897
2014   11       15    21  41    6.3291   506.7    4.275      35.900
2014   11       15    21  46    6.3353   506.4    4.283      35.903
2014   11       15    21  51    6.3420   506.2    4.291      35.907
2014   11       15    21  56    6.3488   505.9    4.300      35.911
2014   11       15    22   1    6.3557   505.7    4.309      35.917
2014   11       15    22   6    6.3626   505.4    4.317      35.923
2014   11       15    22  11    6.3696   505.2    4.326      35.930
2014   11       15    22  16    6.3766   504.9    4.335      35.938
2014   11       15    22  21    6.3836   504.7    4.344      35.947
2014   11       15    22  25    6.3907   504.5    4.353      35.956
2014   11       15    22  30    6.3979   504.3    4.363      35.966
2014   11       15    22  35    6.4051   504.0    4.372      35.977
2014   11       15    22  40    6.4123   503.8    4.382      35.989
2014   11       15    22  45    6.4196   503.6    4.392      36.001
2014   11       15    22  50    6.4270   503.4    4.401      36.014
2014   11       15    22  55    6.4344   503.1    4.411      36.029
2014   11       15    23   0    6.4418   502.9    4.422      36.043
2014   11       15    23   5    6.4493   502.7    4.432      36.059
2014   11       15    23  10    6.4568   502.5    4.442      36.076
2014   11       15    23  15    6.4644   502.3    4.453      36.093
2014   11       15    23  20    6.4719   502.1    4.464      36.111
2014   11       15    23  25    6.4796   501.9    4.474      36.130
2014   11       15    23  30    6.4873   501.7    4.485      36.150
2014   11       15    23  35    6.4955   501.5    4.497      36.171
2014   11       15    23  40    6.5027   501.3    4.508      36.192
2014   11       15    23  45    6.5106   501.1    4.520      36.215
2014   11       15    23  50    6.5184   500.9    4.531      36.238
2014   11       15    23  55    6.5263   500.7    4.543      36.262
2014   11       16     0   0    6.5342   500.5    4.555      36.287
2014   11       16     0   5    6.5427   500.3    4.567      36.313
2014   11       16     0  10    6.5502   500.2    4.580      36.339
2014   11       16     0  15    6.5583   500.0    4.592      36.367
2014   11       16     0  19    6.5669   499.8    4.605      36.395
2014   11       16     0  24    6.5746   499.6    4.618      36.425
2014   11       16     0  29    6.5829   499.5    4.631      36.456
2014   11       16     0  34    6.5912   499.3    4.645      36.487
2014   11       16     0  39    6.5995   499.1    4.658      36.519
2014   11       16     0  44    6.6079   499.0    4.672      36.552
2014   11       16     0  49    6.6163   498.8    4.685      36.586
2014   11       16     0  54    6.6248   498.7    4.699      36.621
2014   11       16     0  59    6.6333   498.5    4.713      36.657
2014   11       16     1   4    6.6418   498.4    4.727      36.694
2014   11       16     1   9    6.6504   498.3    4.741      36.733
2014   11       16     1  14    6.6590   498.1    4.754      36.775
2014   11       16     1  19    6.6676   498.0    4.768      36.818
2014   11       16     1  24    6.6762   497.9    4.781      36.862
2014   11       16     1  29    6.6848   497.8    4.795      36.908
2014   11       16     1  34    6.6940   497.7    4.808      36.955
2014   11       16     1  39    6.7022   497.6    4.821      37.003
2014   11       16     1  44    6.7109   497.5    4.834      37.053
2014   11       16     1  49    6.7195   497.4    4.847      37.102
2014   11       16     1  54    6.7283   497.3    4.859      37.153
2014   11       16     1  59    6.7370   497.2    4.872      37.204
2014   11       16     2   4    6.7462   497.1    4.884      37.255
2014   11       16     2   8    6.7544   497.0    4.896      37.307
2014   11       16     2  13    6.7632   496.9    4.907      37.359
2014   11       16     2  18    6.7720   496.9    4.919      37.410
2014   11       16     2  23    6.7808   496.8    4.930      37.462
2014   11       16     2  28    6.7900   496.7    4.941      37.512
2014   11       16     2  33    6.7984   496.7    4.952      37.562
2014   11       16     2  38    6.8072   496.6    4.962      37.611
2014   11       16     2  43    6.8161   496.5    4.973      37.660
2014   11       16     2  48    6.8249   496.5    4.983      37.708
2014   11       16     2  53    6.8338   496.4    4.993      37.755
2014   11       16     2  58    6.8431   496.3    5.003      37.802
2014   11       16     3   3    6.8516   496.3    5.013      37.848
2014   11       16     3   8    6.8609   496.2    5.023      37.894
2014   11       16     3  13    6.8695   496.2    5.032      37.939
2014   11       16     3  18    6.8784   496.1    5.041      37.984
2014   11       16     3  23    6.8874   496.1    5.050      38.028
2014   11       16     3  28    6.8964   496.0    5.059      38.072
2014   11       16     3  33    6.9054   496.0    5.068      38.115
2014   11       16     3  38    6.9144   495.9    5.077      38.158
2014   11       16     3  43    6.9234   495.9    5.085      38.200
2014   11       16     3  48    6.9324   495.9    5.093      38.242
2014   11       16     3  53    6.9415   495.8    5.102      38.283
2014   11       16     3  57    6.9505   495.8    5.110      38.325
2014   11       16     4   2    6.9596   495.7    5.118      38.365
2014   11       16     4   7    6.9686   495.7    5.125      38.406
2014   11       16     4  12    6.9777   495.7    5.133      38.446
2014   11       16     4  17    6.9867   495.6    5.141      38.486
2014   11       16     4  22    6.9961   495.6    5.149      38.525
2014   11       16     4  27    7.0050   495.6    5.156      38.565
2014   11       16     4  32    7.0141   495.5    5.164      38.604
2014   11       16     4  37    7.0232   495.5    5.171      38.643
2014   11       16     4  42    7.0324   495.5    5.179      38.682
2014   11       16     4  47    7.0415   495.5    5.186      38.721
2014   11       16     4  52    7.0507   495.4    5.194      38.760
2014   11       16     4  57    7.0599   495.4    5.201      38.799
2014   11       16     5   2    7.0691   495.4    5.209      38.838
2014   11       16     5   7    7.0784   495.4    5.216      38.878
2014   11       16     5  12    7.0877   495.3    5.224      38.917
2014   11       16     5  17    7.0969   495.3    5.231      38.957
2014   11       16     5  22    7.1063   495.3    5.239      38.997
2014   11       16     5  27    7.1158   495.3    5.246      39.037
2014   11       16     5  32    7.1250   495.3    5.254      39.078
2014   11       16     5  37    7.1346   495.3    5.262      39.120
2014   11       16     5  42    7.1439   495.3    5.270      39.161
2014   11       16     5  46    7.1534   495.3    5.278      39.204
2014   11       16     5  51    7.1630   495.3    5.286      39.248
2014   11       16     5  56    7.1725   495.3    5.294      39.292
2014   11       16     6   1    7.1821   495.3    5.302      39.337
2014   11       16     6   6    7.1917   495.3    5.311      39.384
2014   11       16     6  11    7.2013   495.3    5.319      39.431
2014   11       16     6  16    7.2109   495.3    5.328      39.478
2014   11       16     6  21    7.2206   495.3    5.336      39.527
2014   11       16     6  26    7.2302   495.3    5.345      39.577
2014   11       16     6  31    7.2398   495.4    5.353      39.627
2014   11       16     6  36    7.2494   495.4    5.362      39.679
2014   11       16     6  41    7.2590   495.4    5.371      39.731
2014   11       16     6  46    7.2685   495.4    5.380      39.784
2014   11       16     6  51    7.2780   495.5    5.389      39.838
2014   11       16     6  56    7.2874   495.5    5.398      39.893
2014   11       16     7   1    7.2968   495.6    5.407      39.949
2014   11       16     7   6    7.3062   495.6    5.417      40.006
2014   11       16     7  11    7.3155   495.6    5.426      40.063
2014   11       16     7  16    7.3247   495.7    5.436      40.121
2014   11       16     7  21    7.3338   495.7    5.445      40.181
2014   11       16     7  26    7.3429   495.8    5.455      40.241
2014   11       16     7  31    7.3520   495.8    5.465      40.303
2014   11       16     7  35    7.3613   495.9    5.475      40.364
2014   11       16     7  40    7.3703   495.9    5.485      40.427
2014   11       16     7  45    7.3793   496.0    5.496      40.491
2014   11       16     7  50    7.3882   496.0    5.506      40.556
2014   11       16     7  55    7.3971   496.1    5.517      40.623
2014   11       16     8   0    7.4060   496.2    5.527      40.691
2014   11       16     8   5    7.4148   496.2    5.538      40.762
2014   11       16     8  10    7.4236   496.3    5.549      40.835
2014   11       16     8  15    7.4323   496.4    5.559      40.909
2014   11       16     8  20    7.4410   496.5    5.570      40.986
2014   11       16     8  25    7.4496   496.6    5.581      41.065
2014   11       16     8  30    7.4582   496.6    5.591      41.145
2014   11       16     8  35    7.4667   496.7    5.602      41.226
2014   11       16     8  40    7.4752   496.8    5.612      41.309
2014   11       16     8  45    7.4836   496.9    5.622      41.393
2014   11       16     8  50    7.4920   497.0    5.632      41.477
2014   11       16     8  55    7.5003   497.1    5.642      41.563
2014   11       16     9   0    7.5086   497.2    5.652      41.649
2014   11       16     9   5    7.5168   497.3    5.661      41.736
2014   11       16     9  10    7.5250   497.4    5.671      41.823
2014   11       16     9  15    7.5331   497.5    5.680      41.910
2014   11       16     9  20    7.5412   497.6    5.689      41.997
2014   11       16     9  25    7.5490   497.7    5.698      42.083
2014   11       16     9  29    7.5574   497.8    5.707      42.169
2014   11       16     9  34    7.5655   497.9    5.716      42.254
2014   11       16     9  39    7.5735   498.0    5.725      42.339
2014   11       16     9  44    7.5815   498.1    5.733      42.424
2014   11       16     9  49    7.5895   498.2    5.742      42.509
2014   11       16     9  54    7.5975   498.4    5.750      42.595
2014   11       16     9  59    7.6055   498.5    5.758      42.682
2014   11       16    10   4    7.6135   498.6    5.767      42.768
2014   11       16    10   9    7.6215   498.7    5.775      42.855
2014   11       16    10  14    7.6295   498.8    5.782      42.943
2014   11       16    10  19    7.6374   498.9    5.790      43.030
2014   11       16    10  24    7.6454   499.1    5.797      43.117
2014   11       16    10  29    7.6534   499.2    5.805      43.204
2014   11       16    10  34    7.6613   499.3    5.812      43.291
2014   11       16    10  39    7.6693   499.5    5.819      43.377
2014   11       16    10  44    7.6772   499.6    5.825      43.463
2014   11       16    10  49    7.6851   499.7    5.831      43.549
2014   11       16    10  54    7.6930   499.9    5.837      43.635
2014   11       16    10  59    7.7009   500.0    5.843      43.720
2014   11       16    11   4    7.7088   500.1    5.849      43.803
2014   11       16    11   9    7.7163   500.3    5.854      43.886
2014   11       16    11  14    7.7241   500.4    5.859      43.968
2014   11       16    11  18    7.7323   500.6    5.864      44.049
2014   11       16    11  23    7.7401   500.7    5.869      44.129
2014   11       16    11  28    7.7479   500.9    5.873      44.208
2014   11       16    11  33    7.7557   501.0    5.878      44.286
2014   11       16    11  38    7.7634   501.2    5.882      44.364
2014   11       16    11  43    7.7713   501.3    5.886      44.440
2014   11       16    11  48    7.7790   501.5    5.890      44.516
2014   11       16    11  53    7.7869   501.6    5.893      44.590
2014   11       16    11  58    7.7947   501.8    5.897      44.664
2014   11       16    12   3    7.8025   501.9    5.900      44.738
2014   11       16    12   8    7.8103   502.1    5.903      44.811
2014   11       16    12  13    7.8182   502.3    5.906      44.883
2014   11       16    12  18    7.8261   502.4    5.909      44.954
2014   11       16    12  23    7.8340   502.6    5.912      45.025
2014   11       16    12  28    7.8419   502.8    5.915      45.095
2014   11       16    12  33    7.8498   502.9    5.918      45.165
2014   11       16    12  38    7.8578   503.1    5.920      45.234
2014   11       16    12  43    7.8658   503.3    5.923      45.304
2014   11       16    12  48    7.8737   503.4    5.925      45.373
2014   11       16    12  53    7.8817   503.6    5.927      45.442
2014   11       16    12  58    7.8897   503.8    5.930      45.511
2014   11       16    13   2    7.8977   504.0    5.932      45.581
2014   11       16    13   7    7.9057   504.2    5.934      45.650
2014   11       16    13  12    7.9137   504.3    5.936      45.721
2014   11       16    13  17    7.9215   504.5    5.938      45.791
2014   11       16    13  22    7.9297   504.7    5.940      45.862
2014   11       16    13  27    7.9376   504.9    5.942      45.933
2014   11       16    13  32    7.9454   505.1    5.943      46.004
2014   11       16    13  37    7.9535   505.3    5.945      46.075
2014   11       16    13  42    7.9613   505.5    5.946      46.146
2014   11       16    13  47    7.9691   505.7    5.948      46.218
2014   11       16    13  52    7.9769   505.9    5.949      46.290
2014   11       16    13  57    7.9846   506.1    5.950      46.361
2014   11       16    14   2    7.9922   506.2    5.951      46.433
2014   11       16    14   7    7.9998   506.4    5.952      46.505
2014   11       16    14  12    8.0073   506.6    5.953      46.577
2014   11       16    14  17    8.0147   506.8    5.954      46.648
2014   11       16    14  22    8.0221   507.0    5.955      46.720
2014   11       16    14  27    8.0294   507.2    5.956      46.792
2014   11       16    14  32    8.0366   507.4    5.956      46.864
2014   11       16    14  37    8.0438   507.6    5.957      46.936
2014   11       16    14  42    8.0509   507.8    5.958      47.008
2014   11       16    14  47    8.0579   508.0    5.958      47.080
2014   11       16    14  52    8.0649   508.2    5.959      47.153
2014   11       16    14  56    8.0719   508.4    5.959      47.226
2014   11       16    15   1    8.0787   508.6    5.960      47.299
2014   11       16    15   6    8.0855   508.8    5.961      47.372
2014   11       16    15  11    8.0923   509.0    5.961      47.446
2014   11       16    15  16    8.0990   509.2    5.962      47.520
2014   11       16    15  21    8.1057   509.4    5.962      47.595
2014   11       16    15  26    8.1123   509.6    5.963      47.670
2014   11       16    15  31    8.1188   509.8    5.963      47.746
2014   11       16    15  36    8.1251   510.0    5.964      47.822
2014   11       16    15  41    8.1318   510.2    5.965      47.898
2014   11       16    15  46    8.1382   510.4    5.965      47.975
2014   11       16    15  51    8.1446   510.6    5.966      48.052
2014   11       16    15  56    8.1509   510.8    5.967      48.129
2014   11       16    16   1    8.1571   511.0    5.968      48.207
2014   11       16    16   6    8.1633   511.2    5.968      48.285
2014   11       16    16  11    8.1693   511.4    5.969      48.363
2014   11       16    16  16    8.1756   511.6    5.970      48.441
2014   11       16    16  21    8.1818   511.8    5.972      48.518
2014   11       16    16  26    8.1878   512.0    5.973      48.596
2014   11       16    16  31    8.1936   512.2    5.974      48.674
2014   11       16    16  36    8.1998   512.4    5.975      48.752
2014   11       16    16  41    8.2058   512.6    5.977      48.830
2014   11       16    16  45    8.2117   512.8    5.979      48.907
2014   11       16    16  50    8.2176   513.0    5.980      48.984
2014   11       16    16  55    8.2235   513.2    5.982      49.062
2014   11       16    17   0    8.2290   513.3    5.984      49.140
2014   11       16    17   5    8.2351   513.5    5.987      49.219
2014   11       16    17  10    8.2410   513.7    5.989      49.298
2014   11       16    17  15    8.2468   513.9    5.991      49.378
2014   11       16    17  20    8.2526   514.1    5.994      49.458
2014   11       16    17  25    8.2583   514.3    5.997      49.539
2014   11       16    17  30    8.2641   514.5    5.999      49.621
2014   11       16    17  35    8.2699   514.6    6.002      49.703
2014   11       16    17  40    8.2757   514.8    6.005      49.785
2014   11       16    17  45    8.2814   515.0    6.008      49.869
2014   11       16    17  50    8.2873   515.2    6.011      49.953
2014   11       16    17  55    8.2931   515.4    6.015      50.038
2014   11       16    18   0    8.2989   515.6    6.018      50.125
2014   11       16    18   5    8.3045   515.7    6.022      50.212
2014   11       16    18  10    8.3108   515.9    6.025      50.298
2014   11       16    18  15    8.3168   516.1    6.029      50.385
2014   11       16    18  20    8.3229   516.3    6.033      50.475
2014   11       16    18  25    8.3290   516.5    6.037      50.566
2014   11       16    18  30    8.3352   516.7    6.041      50.658
2014   11       16    18  34    8.3414   516.9    6.045      50.752
2014   11       16    18  39    8.3478   517.1    6.049      50.847
2014   11       16    18  44    8.3543   517.3    6.053      50.943
2014   11       16    18  49    8.3609   517.6    6.056      51.040
2014   11       16    18  54    8.3676   517.8    6.060      51.138
2014   11       16    18  59    8.3743   518.0    6.064      51.236
2014   11       16    19   4    8.3808   518.3    6.067      51.334
2014   11       16    19   9    8.3880   518.5    6.070      51.432
2014   11       16    19  14    8.3948   518.8    6.073      51.530
2014   11       16    19  19    8.4017   519.1    6.076      51.628
2014   11       16    19  24    8.4085   519.3    6.078      51.726
2014   11       16    19  29    8.4154   519.6    6.080      51.824
2014   11       16    19  34    8.4222   519.9    6.082      51.921
2014   11       16    19  39    8.4290   520.2    6.084      52.017
2014   11       16    19  44    8.4357   520.5    6.085      52.111
2014   11       16    19  49    8.4424   520.7    6.086      52.205
2014   11       16    19  54    8.4490   521.0    6.087      52.297
2014   11       16    19  59    8.4552   521.3    6.088      52.389
2014   11       16    20   4    8.4619   521.6    6.089      52.481
2014   11       16    20   9    8.4682   521.9    6.089      52.573
2014   11       16    20  14    8.4744   522.2    6.090      52.664
2014   11       16    20  19    8.4803   522.5    6.090      52.755
2014   11       16    20  23    8.4867   522.8    6.090      52.846
2014   11       16    20  28    8.4927   523.1    6.090      52.936
2014   11       16    20  33    8.4987   523.4    6.090      53.027
2014   11       16    20  38    8.5046   523.7    6.090      53.117
2014   11       16    20  43    8.5104   524.1    6.090      53.208
2014   11       16    20  48    8.5161   524.4    6.090      53.300
2014   11       16    20  53    8.5218   524.7    6.089      53.391
2014   11       16    20  58    8.5271   525.0    6.089      53.483
2014   11       16    21   3    8.5330   525.3    6.088      53.575
2014   11       16    21   8    8.5385   525.6    6.088      53.667
2014   11       16    21  13    8.5440   525.9    6.087      53.759
2014   11       16    21  18    8.5494   526.3    6.086      53.851
2014   11       16    21  23    8.5547   526.6    6.085      53.942
2014   11       16    21  28    8.5601   526.9    6.084      54.034
2014   11       16    21  33    8.5653   527.2    6.083      54.125
2014   11       16    21  38    8.5706   527.5    6.082      54.217
2014   11       16    21  43    8.5758   527.9    6.081      54.309
2014   11       16    21  48    8.5811   528.2    6.080      54.401
2014   11       16    21  53    8.5861   528.5    6.079      54.493
2014   11       16    21  58    8.5914   528.8    6.079      54.585
2014   11       16    22   3    8.5969   529.1    6.078      54.677
2014   11       16    22   8    8.6021   529.5    6.077      54.771
2014   11       16    22  12    8.6074   529.8    6.076      54.867
2014   11       16    22  17    8.6127   530.1    6.076      54.967
2014   11       16    22  22    8.6180   530.5    6.075      55.070
2014   11       16    22  27    8.6233   530.8    6.075      55.175
2014   11       16    22  32    8.6286   531.1    6.074      55.283
2014   11       16    22  37    8.6338   531.5    6.073      55.393
2014   11       16    22  42    8.6390   531.9    6.072      55.505
2014   11       16    22  47    8.6442   532.2    6.071      55.617
2014   11       16    22  52    8.6493   532.6    6.069      55.729
2014   11       16    22  57    8.6543   533.0    6.068      55.842
2014   11       16    23   2    8.6592   533.3    6.066      55.955
2014   11       16    23   7    8.6640   533.7    6.063      56.067
2014   11       16    23  12    8.6687   534.1    6.060      56.178
2014   11       16    23  17    8.6733   534.5    6.057      56.286
2014   11       16    23  22    8.6778   534.8    6.054      56.391
2014   11       16    23  27    8.6822   535.2    6.050      56.493
2014   11       16    23  32    8.6866   535.6    6.046      56.593
2014   11       16    23  37    8.6908   536.0    6.042      56.689
2014   11       16    23  42    8.6949   536.3    6.037      56.783
2014   11       16    23  47    8.6990   536.7    6.032      56.874
2014   11       16    23  52    8.7030   537.1    6.027      56.962
2014   11       16    23  57    8.7069   537.4    6.022      57.047
2014   11       17     0   2    8.7108   537.8    6.016      57.130
