year    month   day   hour  minute  B_enl V_enl   n_enl       T_enl
[year] [month] [day] [hour][minute] [nT]  [km/s]  [cm-3]      [kK]
2014   11       10     0   1    6.5772   540.0    5.646      56.495
2014   11       10     0   6    6.5787   540.2    5.641      56.544
2014   11       10     0  12    6.5802   540.5    5.637      56.592
2014   11       10     0  17    6.5817   540.7    5.632      56.639
2014   11       10     0  22    6.5831   541.0    5.627      56.684
2014   11       10     0  28    6.5845   541.2    5.622      56.729
2014   11       10     0  33    6.5859   541.5    5.617      56.773
2014   11       10     0  39    6.5872   541.7    5.612      56.816
2014   11       10     0  44    6.5885   542.0    5.607      56.858
2014   11       10     0  50    6.5898   542.2    5.602      56.899
2014   11       10     0  55    6.5911   542.5    5.597      56.939
2014   11       10     1   1    6.5923   542.7    5.592      56.979
2014   11       10     1   6    6.5935   542.9    5.587      57.018
2014   11       10     1  12    6.5947   543.2    5.581      57.057
2014   11       10     1  17    6.5958   543.4    5.576      57.094
2014   11       10     1  22    6.5969   543.7    5.571      57.132
2014   11       10     1  28    6.5980   543.9    5.566      57.168
2014   11       10     1  33    6.5991   544.2    5.561      57.205
2014   11       10     1  39    6.6002   544.4    5.555      57.241
2014   11       10     1  44    6.6012   544.6    5.550      57.276
2014   11       10     1  50    6.6022   544.9    5.545      57.312
2014   11       10     1  55    6.6032   545.1    5.540      57.347
2014   11       10     2   1    6.6042   545.4    5.536      57.383
2014   11       10     2   6    6.6052   545.6    5.531      57.418
2014   11       10     2  12    6.6061   545.8    5.527      57.455
2014   11       10     2  17    6.6072   546.0    5.523      57.491
2014   11       10     2  22    6.6082   546.3    5.519      57.529
2014   11       10     2  28    6.6091   546.5    5.515      57.567
2014   11       10     2  33    6.6101   546.7    5.512      57.606
2014   11       10     2  39    6.6112   547.0    5.509      57.647
2014   11       10     2  44    6.6122   547.2    5.506      57.690
2014   11       10     2  50    6.6134   547.4    5.504      57.735
2014   11       10     2  55    6.6146   547.6    5.502      57.782
2014   11       10     3   1    6.6159   547.8    5.501      57.831
2014   11       10     3   6    6.6172   548.1    5.501      57.885
2014   11       10     3  12    6.6187   548.3    5.501      57.942
2014   11       10     3  17    6.6201   548.5    5.501      58.004
2014   11       10     3  23    6.6218   548.8    5.502      58.071
2014   11       10     3  28    6.6235   549.0    5.504      58.143
2014   11       10     3  33    6.6250   549.3    5.505      58.219
2014   11       10     3  39    6.6269   549.5    5.507      58.299
2014   11       10     3  44    6.6285   549.8    5.508      58.381
2014   11       10     3  50    6.6302   550.1    5.510      58.466
2014   11       10     3  55    6.6318   550.3    5.511      58.551
2014   11       10     4   1    6.6333   550.6    5.512      58.637
2014   11       10     4   6    6.6346   550.9    5.513      58.723
2014   11       10     4  12    6.6359   551.2    5.514      58.808
2014   11       10     4  17    6.6373   551.5    5.513      58.891
2014   11       10     4  23    6.6382   551.8    5.513      58.972
2014   11       10     4  28    6.6392   552.1    5.512      59.050
2014   11       10     4  33    6.6400   552.4    5.510      59.125
2014   11       10     4  39    6.6408   552.7    5.509      59.196
2014   11       10     4  44    6.6417   553.0    5.506      59.264
2014   11       10     4  50    6.6423   553.3    5.504      59.330
2014   11       10     4  55    6.6426   553.6    5.501      59.393
2014   11       10     5   1    6.6432   553.9    5.498      59.453
2014   11       10     5   6    6.6436   554.2    5.494      59.512
2014   11       10     5  12    6.6438   554.5    5.490      59.568
2014   11       10     5  17    6.6443   554.8    5.487      59.623
2014   11       10     5  23    6.6443   555.1    5.483      59.676
2014   11       10     5  28    6.6445   555.4    5.478      59.728
2014   11       10     5  34    6.6446   555.7    5.474      59.779
2014   11       10     5  39    6.6450   556.0    5.470      59.829
2014   11       10     5  44    6.6448   556.3    5.465      59.878
2014   11       10     5  50    6.6449   556.6    5.461      59.927
2014   11       10     5  55    6.6449   556.9    5.457      59.977
2014   11       10     6   1    6.6449   557.2    5.452      60.028
2014   11       10     6   6    6.6450   557.5    5.447      60.079
2014   11       10     6  12    6.6446   557.8    5.443      60.131
2014   11       10     6  17    6.6444   558.1    5.438      60.184
2014   11       10     6  23    6.6441   558.4    5.433      60.238
2014   11       10     6  28    6.6440   558.7    5.428      60.292
2014   11       10     6  34    6.6433   559.0    5.423      60.347
2014   11       10     6  39    6.6428   559.4    5.418      60.402
2014   11       10     6  45    6.6421   559.7    5.413      60.458
2014   11       10     6  50    6.6417   560.0    5.407      60.513
2014   11       10     6  55    6.6406   560.3    5.401      60.567
2014   11       10     7   1    6.6400   560.6    5.395      60.620
2014   11       10     7   6    6.6390   560.9    5.389      60.671
2014   11       10     7  12    6.6380   561.2    5.383      60.721
2014   11       10     7  17    6.6365   561.5    5.377      60.770
2014   11       10     7  23    6.6353   561.9    5.370      60.818
2014   11       10     7  28    6.6341   562.2    5.363      60.863
2014   11       10     7  34    6.6330   562.5    5.356      60.907
2014   11       10     7  39    6.6314   562.8    5.349      60.950
2014   11       10     7  45    6.6299   563.1    5.342      60.991
2014   11       10     7  50    6.6287   563.4    5.334      61.030
2014   11       10     7  55    6.6272   563.7    5.327      61.068
2014   11       10     8   1    6.6252   564.0    5.319      61.105
2014   11       10     8   6    6.6236   564.4    5.311      61.140
2014   11       10     8  12    6.6219   564.7    5.303      61.174
2014   11       10     8  17    6.6201   565.0    5.296      61.207
2014   11       10     8  23    6.6182   565.3    5.288      61.239
2014   11       10     8  28    6.6163   565.6    5.280      61.270
2014   11       10     8  34    6.6144   565.9    5.271      61.299
2014   11       10     8  39    6.6124   566.2    5.263      61.328
2014   11       10     8  45    6.6107   566.5    5.255      61.355
2014   11       10     8  50    6.6083   566.8    5.247      61.382
2014   11       10     8  56    6.6065   567.1    5.239      61.408
2014   11       10     9   1    6.6043   567.4    5.230      61.433
2014   11       10     9   6    6.6021   567.8    5.222      61.457
2014   11       10     9  12    6.5995   568.1    5.214      61.480
2014   11       10     9  17    6.5975   568.4    5.206      61.503
2014   11       10     9  23    6.5951   568.6    5.197      61.526
2014   11       10     9  28    6.5924   568.9    5.189      61.548
2014   11       10     9  34    6.5900   569.2    5.181      61.569
2014   11       10     9  39    6.5879   569.5    5.173      61.591
2014   11       10     9  45    6.5854   569.8    5.165      61.613
2014   11       10     9  50    6.5829   570.1    5.157      61.634
2014   11       10     9  56    6.5800   570.4    5.149      61.656
2014   11       10    10   1    6.5778   570.7    5.142      61.678
2014   11       10    10   6    6.5752   571.0    5.134      61.701
2014   11       10    10  12    6.5726   571.3    5.127      61.724
2014   11       10    10  17    6.5699   571.5    5.120      61.748
2014   11       10    10  23    6.5668   571.8    5.113      61.773
2014   11       10    10  28    6.5646   572.1    5.106      61.800
2014   11       10    10  34    6.5615   572.4    5.100      61.826
2014   11       10    10  39    6.5593   572.6    5.094      61.855
2014   11       10    10  45    6.5567   572.9    5.089      61.887
2014   11       10    10  50    6.5541   573.2    5.083      61.922
2014   11       10    10  56    6.5510   573.4    5.078      61.959
2014   11       10    11   1    6.5483   573.7    5.073      61.998
2014   11       10    11   6    6.5456   574.0    5.067      62.040
2014   11       10    11  12    6.5428   574.3    5.062      62.083
2014   11       10    11  17    6.5406   574.6    5.057      62.127
2014   11       10    11  23    6.5372   574.9    5.052      62.172
2014   11       10    11  28    6.5344   575.1    5.047      62.216
2014   11       10    11  34    6.5319   575.4    5.041      62.261
2014   11       10    11  39    6.5284   575.7    5.035      62.307
2014   11       10    11  45    6.5252   576.0    5.029      62.352
2014   11       10    11  50    6.5220   576.3    5.023      62.395
2014   11       10    11  56    6.5192   576.6    5.017      62.436
2014   11       10    12   1    6.5153   576.9    5.010      62.475
2014   11       10    12   7    6.5123   577.2    5.003      62.512
2014   11       10    12  12    6.5088   577.5    4.996      62.548
2014   11       10    12  17    6.5052   577.8    4.989      62.582
2014   11       10    12  23    6.5015   578.1    4.982      62.614
2014   11       10    12  28    6.4972   578.4    4.974      62.645
2014   11       10    12  34    6.4939   578.7    4.967      62.673
2014   11       10    12  39    6.4895   579.0    4.959      62.700
2014   11       10    12  45    6.4861   579.3    4.951      62.726
2014   11       10    12  50    6.4820   579.6    4.944      62.750
2014   11       10    12  56    6.4780   579.9    4.936      62.773
2014   11       10    13   1    6.4739   580.2    4.928      62.796
2014   11       10    13   7    6.4692   580.5    4.920      62.817
2014   11       10    13  12    6.4655   580.7    4.912      62.837
2014   11       10    13  17    6.4612   581.0    4.904      62.857
2014   11       10    13  23    6.4564   581.3    4.895      62.877
2014   11       10    13  28    6.4521   581.6    4.887      62.897
2014   11       10    13  34    6.4476   581.8    4.879      62.916
2014   11       10    13  39    6.4432   582.1    4.871      62.934
2014   11       10    13  45    6.4391   582.4    4.863      62.952
2014   11       10    13  50    6.4345   582.6    4.855      62.970
2014   11       10    13  56    6.4295   582.9    4.846      62.987
2014   11       10    14   1    6.4249   583.2    4.838      63.003
2014   11       10    14   7    6.4202   583.4    4.830      63.018
2014   11       10    14  12    6.4159   583.7    4.821      63.032
2014   11       10    14  18    6.4107   584.0    4.813      63.046
2014   11       10    14  23    6.4063   584.2    4.804      63.059
2014   11       10    14  28    6.4015   584.5    4.796      63.070
2014   11       10    14  34    6.3962   584.7    4.787      63.080
2014   11       10    14  39    6.3913   585.0    4.778      63.088
2014   11       10    14  45    6.3864   585.2    4.769      63.096
2014   11       10    14  50    6.3818   585.5    4.761      63.102
2014   11       10    14  56    6.3764   585.7    4.752      63.108
2014   11       10    15   1    6.3717   586.0    4.743      63.112
2014   11       10    15   7    6.3667   586.2    4.734      63.115
2014   11       10    15  12    6.3612   586.5    4.725      63.117
2014   11       10    15  18    6.3561   586.7    4.716      63.118
2014   11       10    15  23    6.3512   586.9    4.707      63.118
2014   11       10    15  29    6.3460   587.2    4.698      63.117
2014   11       10    15  34    6.3404   587.4    4.689      63.116
2014   11       10    15  39    6.3351   587.7    4.680      63.113
2014   11       10    15  45    6.3301   587.9    4.671      63.110
2014   11       10    15  50    6.3247   588.1    4.662      63.105
2014   11       10    15  56    6.3193   588.4    4.653      63.100
2014   11       10    16   1    6.3139   588.6    4.644      63.094
2014   11       10    16   7    6.3084   588.8    4.635      63.088
2014   11       10    16  12    6.3029   589.0    4.626      63.081
2014   11       10    16  18    6.2974   589.3    4.617      63.073
2014   11       10    16  23    6.2916   589.5    4.608      63.064
2014   11       10    16  29    6.2860   589.7    4.599      63.055
2014   11       10    16  34    6.2805   589.9    4.590      63.045
2014   11       10    16  39    6.2748   590.1    4.581      63.035
2014   11       10    16  45    6.2693   590.3    4.572      63.025
2014   11       10    16  50    6.2636   590.5    4.563      63.014
2014   11       10    16  56    6.2580   590.7    4.554      63.004
2014   11       10    17   1    6.2526   590.9    4.545      62.992
2014   11       10    17   7    6.2469   591.2    4.537      62.980
2014   11       10    17  12    6.2409   591.4    4.528      62.968
2014   11       10    17  18    6.2355   591.6    4.519      62.956
2014   11       10    17  23    6.2297   591.8    4.511      62.944
2014   11       10    17  29    6.2237   591.9    4.502      62.931
2014   11       10    17  34    6.2179   592.1    4.493      62.918
2014   11       10    17  39    6.2121   592.3    4.485      62.904
2014   11       10    17  45    6.2066   592.5    4.476      62.891
2014   11       10    17  50    6.2008   592.7    4.468      62.877
2014   11       10    17  56    6.1946   592.9    4.459      62.863
2014   11       10    18   1    6.1890   593.0    4.451      62.849
2014   11       10    18   7    6.1832   593.2    4.443      62.835
2014   11       10    18  12    6.1771   593.4    4.435      62.821
2014   11       10    18  18    6.1714   593.5    4.427      62.807
2014   11       10    18  23    6.1653   593.7    4.419      62.794
2014   11       10    18  29    6.1596   593.9    4.411      62.780
2014   11       10    18  34    6.1537   594.0    4.403      62.767
2014   11       10    18  40    6.1475   594.2    4.395      62.755
2014   11       10    18  45    6.1416   594.3    4.387      62.742
2014   11       10    18  50    6.1359   594.5    4.380      62.731
2014   11       10    18  56    6.1298   594.6    4.373      62.719
2014   11       10    19   1    6.1241   594.7    4.365      62.708
2014   11       10    19   7    6.1180   594.9    4.358      62.698
2014   11       10    19  12    6.1121   595.0    4.351      62.688
2014   11       10    19  18    6.1064   595.1    4.345      62.678
2014   11       10    19  23    6.1006   595.3    4.338      62.669
2014   11       10    19  29    6.0945   595.4    4.332      62.661
2014   11       10    19  34    6.0888   595.5    4.326      62.653
2014   11       10    19  40    6.0828   595.6    4.320      62.645
2014   11       10    19  45    6.0772   595.7    4.314      62.638
2014   11       10    19  50    6.0714   595.9    4.308      62.631
2014   11       10    19  56    6.0655   596.0    4.303      62.624
2014   11       10    20   1    6.0598   596.1    4.297      62.618
2014   11       10    20   7    6.0542   596.2    4.292      62.612
2014   11       10    20  12    6.0485   596.3    4.287      62.607
2014   11       10    20  18    6.0429   596.4    4.282      62.602
2014   11       10    20  23    6.0375   596.5    4.277      62.596
2014   11       10    20  29    6.0319   596.6    4.272      62.591
2014   11       10    20  34    6.0264   596.7    4.267      62.586
2014   11       10    20  40    6.0210   596.8    4.262      62.579
2014   11       10    20  45    6.0156   597.0    4.257      62.572
2014   11       10    20  51    6.0102   597.1    4.252      62.564
2014   11       10    20  56    6.0048   597.2    4.247      62.556
2014   11       10    21   1    5.9994   597.3    4.242      62.546
2014   11       10    21   7    5.9941   597.4    4.236      62.535
2014   11       10    21  12    5.9887   597.5    4.231      62.523
2014   11       10    21  18    5.9834   597.6    4.225      62.510
2014   11       10    21  23    5.9780   597.7    4.220      62.495
2014   11       10    21  29    5.9727   597.8    4.214      62.479
2014   11       10    21  34    5.9673   597.9    4.208      62.462
2014   11       10    21  40    5.9619   597.9    4.202      62.443
2014   11       10    21  45    5.9565   598.0    4.197      62.424
2014   11       10    21  51    5.9511   598.1    4.191      62.403
2014   11       10    21  56    5.9458   598.2    4.184      62.382
2014   11       10    22   2    5.9405   598.3    4.178      62.359
2014   11       10    22   7    5.9350   598.4    4.172      62.336
2014   11       10    22  12    5.9296   598.5    4.166      62.312
2014   11       10    22  18    5.9242   598.5    4.160      62.287
2014   11       10    22  23    5.9190   598.6    4.154      62.261
2014   11       10    22  29    5.9136   598.7    4.147      62.234
2014   11       10    22  34    5.9081   598.8    4.141      62.207
2014   11       10    22  40    5.9028   598.8    4.135      62.180
2014   11       10    22  45    5.8975   598.9    4.129      62.151
2014   11       10    22  51    5.8921   599.0    4.122      62.122
2014   11       10    22  56    5.8866   599.0    4.116      62.093
2014   11       10    23   2    5.8813   599.1    4.110      62.063
2014   11       10    23   7    5.8759   599.2    4.104      62.032
2014   11       10    23  12    5.8705   599.2    4.097      62.001
2014   11       10    23  18    5.8652   599.3    4.091      61.970
2014   11       10    23  23    5.8600   599.4    4.085      61.937
2014   11       10    23  29    5.8545   599.4    4.078      61.905
2014   11       10    23  34    5.8491   599.5    4.072      61.871
2014   11       10    23  40    5.8440   599.5    4.066      61.837
2014   11       10    23  45    5.8386   599.6    4.060      61.803
2014   11       10    23  51    5.8331   599.7    4.053      61.767
2014   11       10    23  56    5.8280   599.7    4.047      61.732
2014   11       11     0   2    5.8227   599.8    4.041      61.696
2014   11       11     0   7    5.8174   599.8    4.035      61.659
2014   11       11     0  13    5.8121   599.9    4.028      61.622
2014   11       11     0  18    5.8066   599.9    4.022      61.584
2014   11       11     0  23    5.8013   600.0    4.016      61.546
2014   11       11     0  29    5.7960   600.0    4.010      61.507
2014   11       11     0  34    5.7908   600.0    4.004      61.468
2014   11       11     0  40    5.7855   600.1    3.997      61.428
2014   11       11     0  45    5.7804   600.1    3.991      61.388
2014   11       11     0  51    5.7752   600.1    3.985      61.347
2014   11       11     0  56    5.7698   600.2    3.979      61.306
2014   11       11     1   2    5.7648   600.2    3.973      61.265
2014   11       11     1   7    5.7593   600.2    3.967      61.224
2014   11       11     1  13    5.7541   600.3    3.961      61.183
2014   11       11     1  18    5.7490   600.3    3.956      61.142
2014   11       11     1  23    5.7438   600.3    3.950      61.100
2014   11       11     1  29    5.7387   600.3    3.944      61.059
2014   11       11     1  34    5.7336   600.3    3.939      61.019
2014   11       11     1  40    5.7285   600.3    3.934      60.978
2014   11       11     1  45    5.7235   600.3    3.929      60.938
2014   11       11     1  51    5.7187   600.3    3.924      60.899
2014   11       11     1  56    5.7135   600.3    3.919      60.860
2014   11       11     2   2    5.7085   600.3    3.914      60.822
2014   11       11     2   7    5.7039   600.3    3.910      60.785
2014   11       11     2  13    5.6987   600.3    3.905      60.749
2014   11       11     2  18    5.6939   600.3    3.901      60.715
2014   11       11     2  23    5.6894   600.2    3.898      60.681
2014   11       11     2  29    5.6844   600.2    3.894      60.649
2014   11       11     2  34    5.6799   600.2    3.891      60.618
2014   11       11     2  40    5.6750   600.2    3.888      60.589
2014   11       11     2  45    5.6704   600.1    3.885      60.561
2014   11       11     2  51    5.6659   600.1    3.883      60.535
2014   11       11     2  56    5.6614   600.1    3.880      60.510
2014   11       11     3   2    5.6573   600.1    3.878      60.486
2014   11       11     3   7    5.6527   600.0    3.876      60.462
2014   11       11     3  13    5.6484   600.0    3.874      60.441
2014   11       11     3  18    5.6444   600.0    3.873      60.421
2014   11       11     3  24    5.6400   599.9    3.871      60.401
2014   11       11     3  29    5.6358   599.9    3.870      60.382
2014   11       11     3  34    5.6320   599.9    3.868      60.364
2014   11       11     3  40    5.6280   599.8    3.866      60.345
2014   11       11     3  45    5.6238   599.8    3.865      60.326
2014   11       11     3  51    5.6198   599.8    3.863      60.306
2014   11       11     3  56    5.6159   599.8    3.862      60.286
2014   11       11     4   2    5.6120   599.7    3.860      60.265
2014   11       11     4   7    5.6083   599.7    3.858      60.243
2014   11       11     4  13    5.6042   599.7    3.856      60.221
2014   11       11     4  18    5.6004   599.6    3.854      60.197
2014   11       11     4  24    5.5967   599.6    3.852      60.172
2014   11       11     4  29    5.5926   599.6    3.849      60.146
2014   11       11     4  35    5.5887   599.6    3.847      60.118
2014   11       11     4  40    5.5850   599.5    3.844      60.090
2014   11       11     4  45    5.5809   599.5    3.842      60.062
2014   11       11     4  51    5.5772   599.5    3.839      60.032
2014   11       11     4  56    5.5733   599.4    3.836      60.001
2014   11       11     5   2    5.5694   599.4    3.833      59.970
2014   11       11     5   7    5.5654   599.4    3.831      59.939
2014   11       11     5  13    5.5613   599.3    3.828      59.906
2014   11       11     5  18    5.5573   599.3    3.825      59.874
2014   11       11     5  24    5.5536   599.2    3.822      59.840
2014   11       11     5  29    5.5494   599.2    3.819      59.806
2014   11       11     5  35    5.5454   599.2    3.815      59.772
2014   11       11     5  40    5.5415   599.1    3.812      59.737
2014   11       11     5  45    5.5377   599.1    3.809      59.702
2014   11       11     5  51    5.5335   599.1    3.806      59.666
2014   11       11     5  56    5.5297   599.0    3.803      59.630
2014   11       11     6   2    5.5257   599.0    3.799      59.593
2014   11       11     6   7    5.5215   598.9    3.796      59.556
2014   11       11     6  13    5.5175   598.9    3.793      59.518
2014   11       11     6  18    5.5137   598.9    3.789      59.480
2014   11       11     6  24    5.5097   598.8    3.786      59.441
2014   11       11     6  29    5.5055   598.8    3.782      59.402
2014   11       11     6  35    5.5016   598.7    3.779      59.363
2014   11       11     6  40    5.4976   598.7    3.775      59.324
2014   11       11     6  46    5.4936   598.6    3.772      59.284
2014   11       11     6  51    5.4894   598.6    3.768      59.243
2014   11       11     6  56    5.4854   598.6    3.765      59.203
2014   11       11     7   2    5.4815   598.5    3.761      59.161
2014   11       11     7   7    5.4775   598.5    3.758      59.120
2014   11       11     7  13    5.4735   598.4    3.754      59.079
2014   11       11     7  18    5.4695   598.4    3.750      59.037
2014   11       11     7  24    5.4653   598.3    3.747      58.995
2014   11       11     7  29    5.4613   598.3    3.743      58.952
2014   11       11     7  35    5.4573   598.2    3.740      58.910
2014   11       11     7  40    5.4533   598.1    3.736      58.867
2014   11       11     7  46    5.4495   598.1    3.733      58.824
2014   11       11     7  51    5.4455   598.0    3.729      58.781
2014   11       11     7  56    5.4415   598.0    3.726      58.738
2014   11       11     8   2    5.4375   597.9    3.722      58.695
2014   11       11     8   7    5.4334   597.8    3.719      58.652
2014   11       11     8  13    5.4295   597.8    3.715      58.609
2014   11       11     8  18    5.4257   597.7    3.712      58.566
2014   11       11     8  24    5.4218   597.6    3.709      58.524
2014   11       11     8  29    5.4177   597.6    3.706      58.482
2014   11       11     8  35    5.4140   597.5    3.703      58.441
2014   11       11     8  40    5.4100   597.4    3.700      58.400
2014   11       11     8  46    5.4063   597.3    3.697      58.359
2014   11       11     8  51    5.4025   597.3    3.694      58.320
2014   11       11     8  56    5.3986   597.2    3.692      58.281
2014   11       11     9   2    5.3950   597.1    3.689      58.243
2014   11       11     9   7    5.3912   597.0    3.687      58.206
2014   11       11     9  13    5.3876   596.9    3.684      58.170
2014   11       11     9  18    5.3840   596.9    3.682      58.134
2014   11       11     9  24    5.3804   596.8    3.680      58.100
2014   11       11     9  29    5.3769   596.7    3.678      58.067
2014   11       11     9  35    5.3734   596.6    3.677      58.034
2014   11       11     9  40    5.3699   596.5    3.675      58.003
2014   11       11     9  46    5.3663   596.4    3.674      57.972
2014   11       11     9  51    5.3631   596.3    3.672      57.943
2014   11       11     9  57    5.3598   596.3    3.671      57.914
2014   11       11    10   2    5.3564   596.2    3.670      57.886
2014   11       11    10   7    5.3531   596.1    3.669      57.859
2014   11       11    10  13    5.3500   596.0    3.668      57.832
2014   11       11    10  18    5.3467   595.9    3.667      57.806
2014   11       11    10  24    5.3437   595.8    3.667      57.780
2014   11       11    10  29    5.3405   595.7    3.666      57.754
2014   11       11    10  35    5.3375   595.6    3.665      57.728
2014   11       11    10  40    5.3345   595.6    3.665      57.702
2014   11       11    10  46    5.3315   595.5    3.664      57.676
2014   11       11    10  51    5.3283   595.4    3.664      57.650
2014   11       11    10  57    5.3254   595.3    3.663      57.623
2014   11       11    11   2    5.3224   595.2    3.663      57.596
2014   11       11    11   7    5.3193   595.1    3.663      57.568
2014   11       11    11  13    5.3164   595.0    3.662      57.539
2014   11       11    11  18    5.3134   594.9    3.662      57.509
2014   11       11    11  24    5.3104   594.8    3.661      57.478
2014   11       11    11  29    5.3074   594.8    3.661      57.446
2014   11       11    11  35    5.3042   594.7    3.661      57.413
2014   11       11    11  40    5.3014   594.6    3.660      57.380
2014   11       11    11  46    5.2982   594.5    3.659      57.346
2014   11       11    11  51    5.2953   594.4    3.659      57.310
2014   11       11    11  57    5.2923   594.3    3.658      57.274
2014   11       11    12   2    5.2891   594.2    3.657      57.238
2014   11       11    12   7    5.2862   594.1    3.657      57.200
2014   11       11    12  13    5.2831   594.0    3.656      57.163
2014   11       11    12  18    5.2800   593.9    3.655      57.124
2014   11       11    12  24    5.2771   593.8    3.654      57.086
2014   11       11    12  29    5.2740   593.7    3.653      57.046
2014   11       11    12  35    5.2710   593.6    3.652      57.006
2014   11       11    12  40    5.2678   593.5    3.651      56.966
2014   11       11    12  46    5.2649   593.4    3.650      56.925
2014   11       11    12  51    5.2619   593.3    3.649      56.884
2014   11       11    12  57    5.2589   593.2    3.647      56.842
2014   11       11    13   2    5.2559   593.1    3.646      56.800
2014   11       11    13   7    5.2527   593.0    3.645      56.757
2014   11       11    13  13    5.2497   592.9    3.644      56.714
2014   11       11    13  18    5.2467   592.8    3.642      56.670
2014   11       11    13  24    5.2439   592.7    3.641      56.626
2014   11       11    13  29    5.2407   592.6    3.639      56.582
2014   11       11    13  35    5.2378   592.5    3.638      56.537
2014   11       11    13  40    5.2349   592.4    3.636      56.492
2014   11       11    13  46    5.2318   592.2    3.635      56.447
2014   11       11    13  51    5.2288   592.1    3.633      56.401
2014   11       11    13  57    5.2259   592.0    3.631      56.354
2014   11       11    14   2    5.2229   591.9    3.630      56.308
2014   11       11    14   7    5.2200   591.8    3.628      56.261
2014   11       11    14  13    5.2172   591.7    3.626      56.214
2014   11       11    14  18    5.2142   591.6    3.624      56.166
2014   11       11    14  24    5.2113   591.4    3.623      56.118
2014   11       11    14  29    5.2084   591.3    3.621      56.070
2014   11       11    14  35    5.2055   591.2    3.619      56.022
2014   11       11    14  40    5.2024   591.1    3.617      55.973
2014   11       11    14  46    5.1997   591.0    3.615      55.924
2014   11       11    14  51    5.1967   590.8    3.613      55.875
2014   11       11    14  57    5.1938   590.7    3.611      55.825
2014   11       11    15   2    5.1910   590.6    3.609      55.776
2014   11       11    15   7    5.1883   590.5    3.607      55.726
2014   11       11    15  13    5.1853   590.3    3.605      55.676
2014   11       11    15  18    5.1827   590.2    3.603      55.626
2014   11       11    15  24    5.1797   590.1    3.601      55.575
2014   11       11    15  29    5.1771   589.9    3.599      55.525
2014   11       11    15  35    5.1742   589.8    3.597      55.474
2014   11       11    15  40    5.1716   589.7    3.595      55.423
2014   11       11    15  46    5.1689   589.5    3.593      55.372
2014   11       11    15  51    5.1660   589.4    3.591      55.322
2014   11       11    15  57    5.1635   589.3    3.589      55.271
2014   11       11    16   2    5.1608   589.1    3.587      55.220
2014   11       11    16   8    5.1580   589.0    3.585      55.169
2014   11       11    16  13    5.1555   588.8    3.583      55.119
2014   11       11    16  18    5.1528   588.7    3.581      55.069
2014   11       11    16  24    5.1504   588.6    3.580      55.019
2014   11       11    16  29    5.1477   588.4    3.578      54.969
2014   11       11    16  35    5.1451   588.3    3.576      54.920
2014   11       11    16  40    5.1427   588.1    3.574      54.871
2014   11       11    16  46    5.1402   588.0    3.573      54.822
2014   11       11    16  51    5.1376   587.8    3.571      54.774
2014   11       11    16  57    5.1353   587.7    3.570      54.726
2014   11       11    17   2    5.1328   587.5    3.568      54.679
2014   11       11    17   8    5.1305   587.4    3.567      54.632
2014   11       11    17  13    5.1281   587.2    3.566      54.586
2014   11       11    17  18    5.1256   587.1    3.564      54.541
2014   11       11    17  24    5.1234   586.9    3.563      54.495
2014   11       11    17  29    5.1210   586.8    3.562      54.451
2014   11       11    17  35    5.1187   586.7    3.561      54.407
2014   11       11    17  40    5.1164   586.5    3.560      54.364
2014   11       11    17  46    5.1141   586.4    3.560      54.321
2014   11       11    17  51    5.1118   586.2    3.559      54.279
2014   11       11    17  57    5.1095   586.1    3.558      54.237
2014   11       11    18   2    5.1073   585.9    3.558      54.197
2014   11       11    18   8    5.1050   585.8    3.557      54.156
2014   11       11    18  13    5.1028   585.6    3.557      54.116
2014   11       11    18  18    5.1005   585.5    3.557      54.077
2014   11       11    18  24    5.0982   585.3    3.557      54.038
2014   11       11    18  29    5.0960   585.2    3.557      54.000
2014   11       11    18  35    5.0936   585.0    3.557      53.961
2014   11       11    18  40    5.0913   584.9    3.557      53.923
2014   11       11    18  46    5.0889   584.8    3.557      53.884
2014   11       11    18  51    5.0866   584.6    3.557      53.845
2014   11       11    18  57    5.0842   584.5    3.558      53.807
2014   11       11    19   2    5.0819   584.3    3.558      53.768
2014   11       11    19   8    5.0795   584.2    3.558      53.729
2014   11       11    19  13    5.0771   584.0    3.558      53.689
2014   11       11    19  18    5.0747   583.9    3.559      53.650
2014   11       11    19  24    5.0723   583.7    3.559      53.610
2014   11       11    19  29    5.0699   583.6    3.560      53.570
2014   11       11    19  35    5.0676   583.4    3.560      53.531
2014   11       11    19  40    5.0652   583.3    3.560      53.491
2014   11       11    19  46    5.0628   583.1    3.561      53.451
2014   11       11    19  51    5.0605   583.0    3.561      53.411
2014   11       11    19  57    5.0581   582.8    3.562      53.371
2014   11       11    20   2    5.0557   582.7    3.562      53.331
2014   11       11    20   8    5.0534   582.5    3.563      53.291
2014   11       11    20  13    5.0510   582.4    3.563      53.250
2014   11       11    20  19    5.0487   582.2    3.564      53.210
2014   11       11    20  24    5.0464   582.1    3.564      53.169
2014   11       11    20  29    5.0440   581.9    3.565      53.129
2014   11       11    20  35    5.0418   581.7    3.566      53.088
2014   11       11    20  40    5.0395   581.6    3.566      53.047
2014   11       11    20  46    5.0371   581.4    3.567      53.005
2014   11       11    20  51    5.0349   581.3    3.567      52.964
2014   11       11    20  57    5.0326   581.1    3.568      52.921
2014   11       11    21   2    5.0303   581.0    3.568      52.879
2014   11       11    21   8    5.0280   580.8    3.569      52.836
2014   11       11    21  13    5.0257   580.6    3.569      52.792
2014   11       11    21  19    5.0234   580.5    3.570      52.748
2014   11       11    21  24    5.0212   580.3    3.570      52.704
2014   11       11    21  29    5.0189   580.2    3.570      52.659
2014   11       11    21  35    5.0167   580.0    3.571      52.614
2014   11       11    21  40    5.0145   579.8    3.571      52.569
2014   11       11    21  46    5.0123   579.7    3.571      52.523
2014   11       11    21  51    5.0102   579.5    3.572      52.476
2014   11       11    21  57    5.0080   579.3    3.572      52.429
2014   11       11    22   2    5.0058   579.2    3.572      52.382
2014   11       11    22   8    5.0037   579.0    3.572      52.334
2014   11       11    22  13    5.0016   578.8    3.572      52.285
2014   11       11    22  19    4.9995   578.6    3.572      52.236
2014   11       11    22  24    4.9975   578.5    3.572      52.187
2014   11       11    22  29    4.9953   578.3    3.573      52.137
2014   11       11    22  35    4.9934   578.1    3.572      52.086
2014   11       11    22  40    4.9914   578.0    3.572      52.035
2014   11       11    22  46    4.9894   577.8    3.572      51.983
2014   11       11    22  51    4.9874   577.6    3.572      51.931
2014   11       11    22  57    4.9855   577.5    3.572      51.878
2014   11       11    23   2    4.9836   577.3    3.572      51.825
2014   11       11    23   8    4.9817   577.1    3.571      51.771
2014   11       11    23  13    4.9797   576.9    3.571      51.717
2014   11       11    23  19    4.9778   576.8    3.571      51.662
2014   11       11    23  24    4.9760   576.6    3.570      51.607
2014   11       11    23  29    4.9740   576.4    3.570      51.551
2014   11       11    23  35    4.9722   576.2    3.569      51.495
2014   11       11    23  40    4.9704   576.1    3.569      51.438
2014   11       11    23  46    4.9685   575.9    3.568      51.381
2014   11       11    23  51    4.9667   575.7    3.567      51.324
2014   11       11    23  57    4.9648   575.6    3.567      51.266
2014   11       12     0   2    4.9629   575.4    3.566      51.208
2014   11       12     0   8    4.9612   575.2    3.565      51.149
2014   11       12     0  13    4.9593   575.0    3.564      51.090
2014   11       12     0  19    4.9574   574.9    3.563      51.031
2014   11       12     0  24    4.9557   574.7    3.562      50.971
2014   11       12     0  30    4.9537   574.5    3.561      50.911
2014   11       12     0  35    4.9520   574.3    3.560      50.850
2014   11       12     0  40    4.9501   574.1    3.559      50.790
2014   11       12     0  46    4.9483   574.0    3.558      50.729
2014   11       12     0  51    4.9463   573.8    3.557      50.668
2014   11       12     0  57    4.9446   573.6    3.555      50.607
2014   11       12     1   2    4.9428   573.4    3.554      50.545
2014   11       12     1   8    4.9408   573.2    3.553      50.484
2014   11       12     1  13    4.9391   573.0    3.552      50.422
2014   11       12     1  19    4.9372   572.9    3.550      50.360
2014   11       12     1  24    4.9355   572.7    3.549      50.298
2014   11       12     1  30    4.9335   572.5    3.548      50.237
2014   11       12     1  35    4.9317   572.3    3.547      50.175
2014   11       12     1  40    4.9300   572.1    3.545      50.113
2014   11       12     1  46    4.9281   571.9    3.544      50.051
2014   11       12     1  51    4.9264   571.7    3.543      49.989
2014   11       12     1  57    4.9245   571.5    3.542      49.927
2014   11       12     2   2    4.9227   571.3    3.540      49.865
2014   11       12     2   8    4.9209   571.1    3.539      49.804
2014   11       12     2  13    4.9191   570.9    3.538      49.743
2014   11       12     2  19    4.9173   570.7    3.537      49.681
2014   11       12     2  24    4.9154   570.5    3.536      49.621
2014   11       12     2  30    4.9137   570.3    3.534      49.560
2014   11       12     2  35    4.9119   570.1    3.533      49.500
2014   11       12     2  41    4.9100   569.9    3.532      49.440
2014   11       12     2  46    4.9082   569.7    3.531      49.381
2014   11       12     2  51    4.9064   569.5    3.531      49.322
2014   11       12     2  57    4.9046   569.3    3.530      49.264
2014   11       12     3   2    4.9028   569.1    3.529      49.206
2014   11       12     3   8    4.9010   568.9    3.528      49.148
2014   11       12     3  13    4.8992   568.7    3.527      49.091
2014   11       12     3  19    4.8974   568.5    3.527      49.035
2014   11       12     3  24    4.8956   568.3    3.526      48.979
2014   11       12     3  30    4.8938   568.0    3.526      48.924
2014   11       12     3  35    4.8920   567.8    3.526      48.869
2014   11       12     3  41    4.8902   567.6    3.525      48.814
2014   11       12     3  46    4.8884   567.4    3.525      48.761
2014   11       12     3  51    4.8866   567.2    3.525      48.707
2014   11       12     3  57    4.8848   567.0    3.525      48.654
2014   11       12     4   2    4.8831   566.7    3.525      48.602
2014   11       12     4   8    4.8813   566.5    3.525      48.550
2014   11       12     4  13    4.8796   566.3    3.525      48.499
2014   11       12     4  19    4.8778   566.1    3.526      48.448
2014   11       12     4  24    4.8760   565.8    3.526      48.398
2014   11       12     4  30    4.8743   565.6    3.527      48.348
2014   11       12     4  35    4.8726   565.4    3.527      48.299
2014   11       12     4  41    4.8708   565.2    3.528      48.251
2014   11       12     4  46    4.8691   564.9    3.529      48.203
2014   11       12     4  52    4.8675   564.7    3.530      48.155
2014   11       12     4  57    4.8658   564.5    3.531      48.108
2014   11       12     5   2    4.8642   564.2    3.532      48.062
2014   11       12     5   8    4.8626   564.0    3.533      48.016
2014   11       12     5  13    4.8610   563.8    3.534      47.971
2014   11       12     5  19    4.8594   563.5    3.536      47.927
2014   11       12     5  24    4.8579   563.3    3.537      47.883
2014   11       12     5  30    4.8563   563.0    3.539      47.840
2014   11       12     5  35    4.8548   562.8    3.540      47.797
2014   11       12     5  41    4.8534   562.6    3.542      47.754
2014   11       12     5  46    4.8520   562.3    3.544      47.712
2014   11       12     5  52    4.8505   562.1    3.546      47.669
2014   11       12     5  57    4.8491   561.9    3.548      47.627
2014   11       12     6   3    4.8477   561.6    3.550      47.585
2014   11       12     6   8    4.8463   561.4    3.552      47.543
2014   11       12     6  13    4.8450   561.2    3.554      47.500
2014   11       12     6  19    4.8436   560.9    3.557      47.457
2014   11       12     6  24    4.8423   560.7    3.559      47.413
2014   11       12     6  30    4.8410   560.4    3.561      47.369
2014   11       12     6  35    4.8397   560.2    3.563      47.324
2014   11       12     6  41    4.8384   560.0    3.565      47.279
2014   11       12     6  46    4.8371   559.7    3.567      47.233
2014   11       12     6  52    4.8357   559.5    3.569      47.185
2014   11       12     6  57    4.8344   559.2    3.572      47.138
2014   11       12     7   3    4.8331   559.0    3.574      47.089
2014   11       12     7   8    4.8318   558.8    3.576      47.041
2014   11       12     7  14    4.8305   558.5    3.577      46.991
2014   11       12     7  19    4.8292   558.3    3.579      46.941
2014   11       12     7  24    4.8279   558.0    3.581      46.890
2014   11       12     7  30    4.8266   557.8    3.583      46.839
2014   11       12     7  35    4.8252   557.5    3.585      46.788
2014   11       12     7  41    4.8239   557.3    3.586      46.736
2014   11       12     7  46    4.8226   557.1    3.588      46.684
2014   11       12     7  52    4.8213   556.8    3.589      46.632
2014   11       12     7  57    4.8200   556.6    3.591      46.579
2014   11       12     8   3    4.8187   556.3    3.592      46.526
2014   11       12     8   8    4.8175   556.1    3.594      46.474
2014   11       12     8  14    4.8162   555.8    3.595      46.421
2014   11       12     8  19    4.8150   555.6    3.596      46.368
2014   11       12     8  24    4.8137   555.3    3.598      46.315
2014   11       12     8  30    4.8125   555.1    3.599      46.261
2014   11       12     8  35    4.8113   554.8    3.600      46.208
2014   11       12     8  41    4.8101   554.6    3.601      46.155
2014   11       12     8  46    4.8089   554.3    3.602      46.102
2014   11       12     8  52    4.8077   554.1    3.604      46.049
2014   11       12     8  57    4.8065   553.8    3.605      45.996
2014   11       12     9   3    4.8054   553.6    3.606      45.943
2014   11       12     9   8    4.8042   553.3    3.607      45.890
2014   11       12     9  14    4.8030   553.1    3.608      45.837
2014   11       12     9  19    4.8019   552.8    3.609      45.784
2014   11       12     9  25    4.8008   552.6    3.610      45.731
2014   11       12     9  30    4.7997   552.3    3.611      45.678
2014   11       12     9  35    4.7986   552.1    3.612      45.626
2014   11       12     9  41    4.7975   551.8    3.613      45.573
2014   11       12     9  46    4.7965   551.5    3.614      45.521
2014   11       12     9  52    4.7954   551.3    3.615      45.469
2014   11       12     9  57    4.7943   551.0    3.616      45.417
2014   11       12    10   3    4.7932   550.8    3.617      45.365
2014   11       12    10   8    4.7921   550.5    3.618      45.313
2014   11       12    10  14    4.7911   550.2    3.619      45.262
2014   11       12    10  19    4.7900   550.0    3.620      45.211
2014   11       12    10  25    4.7890   549.7    3.621      45.159
2014   11       12    10  30    4.7880   549.5    3.622      45.108
2014   11       12    10  35    4.7870   549.2    3.623      45.057
2014   11       12    10  41    4.7858   548.9    3.623      45.006
2014   11       12    10  46    4.7848   548.7    3.624      44.956
2014   11       12    10  52    4.7838   548.4    3.625      44.905
2014   11       12    10  57    4.7828   548.1    3.626      44.854
2014   11       12    11   3    4.7818   547.9    3.627      44.803
2014   11       12    11   8    4.7808   547.6    3.628      44.753
2014   11       12    11  14    4.7798   547.3    3.629      44.702
2014   11       12    11  19    4.7788   547.0    3.630      44.652
2014   11       12    11  25    4.7779   546.8    3.632      44.602
2014   11       12    11  30    4.7769   546.5    3.633      44.551
2014   11       12    11  36    4.7760   546.2    3.634      44.501
2014   11       12    11  41    4.7751   545.9    3.635      44.451
2014   11       12    11  46    4.7742   545.6    3.636      44.401
2014   11       12    11  52    4.7732   545.4    3.637      44.350
2014   11       12    11  57    4.7723   545.1    3.638      44.300
2014   11       12    12   3    4.7714   544.8    3.639      44.251
2014   11       12    12   8    4.7706   544.5    3.641      44.201
2014   11       12    12  14    4.7698   544.2    3.642      44.151
2014   11       12    12  19    4.7690   543.9    3.643      44.102
2014   11       12    12  25    4.7683   543.6    3.645      44.053
2014   11       12    12  30    4.7675   543.3    3.646      44.004
2014   11       12    12  36    4.7669   543.0    3.648      43.955
2014   11       12    12  41    4.7662   542.7    3.650      43.907
2014   11       12    12  46    4.7655   542.4    3.651      43.859
2014   11       12    12  52    4.7649   542.1    3.653      43.812
2014   11       12    12  57    4.7644   541.9    3.655      43.764
2014   11       12    13   3    4.7638   541.6    3.657      43.717
2014   11       12    13   8    4.7632   541.3    3.659      43.671
2014   11       12    13  14    4.7628   541.0    3.662      43.625
2014   11       12    13  19    4.7623   540.7    3.664      43.579
2014   11       12    13  25    4.7618   540.4    3.667      43.534
2014   11       12    13  30    4.7614   540.1    3.669      43.489
2014   11       12    13  36    4.7612   539.8    3.672      43.444
2014   11       12    13  41    4.7608   539.5    3.674      43.399
2014   11       12    13  47    4.7605   539.2    3.677      43.354
2014   11       12    13  52    4.7601   538.9    3.680      43.309
2014   11       12    13  57    4.7599   538.6    3.683      43.265
2014   11       12    14   3    4.7596   538.3    3.686      43.220
2014   11       12    14   8    4.7593   538.0    3.689      43.175
2014   11       12    14  14    4.7591   537.7    3.692      43.129
2014   11       12    14  19    4.7590   537.4    3.695      43.083
2014   11       12    14  25    4.7587   537.1    3.698      43.036
2014   11       12    14  30    4.7587   536.8    3.702      42.989
2014   11       12    14  36    4.7584   536.5    3.705      42.942
2014   11       12    14  41    4.7584   536.2    3.708      42.894
2014   11       12    14  47    4.7582   535.9    3.712      42.845
2014   11       12    14  52    4.7582   535.6    3.715      42.796
2014   11       12    14  58    4.7581   535.3    3.718      42.747
2014   11       12    15   3    4.7581   535.0    3.722      42.697
2014   11       12    15   8    4.7581   534.7    3.725      42.648
2014   11       12    15  14    4.7581   534.4    3.729      42.598
2014   11       12    15  19    4.7580   534.0    3.732      42.548
2014   11       12    15  25    4.7582   533.7    3.736      42.498
2014   11       12    15  30    4.7583   533.4    3.739      42.448
2014   11       12    15  36    4.7583   533.1    3.743      42.398
2014   11       12    15  41    4.7584   532.8    3.747      42.349
2014   11       12    15  47    4.7588   532.5    3.751      42.300
2014   11       12    15  52    4.7589   532.2    3.754      42.251
2014   11       12    15  58    4.7593   531.9    3.758      42.202
2014   11       12    16   3    4.7595   531.5    3.762      42.154
2014   11       12    16   8    4.7600   531.2    3.766      42.106
2014   11       12    16  14    4.7603   530.9    3.770      42.059
2014   11       12    16  19    4.7608   530.6    3.775      42.012
2014   11       12    16  25    4.7613   530.3    3.779      41.966
2014   11       12    16  30    4.7618   530.0    3.783      41.920
2014   11       12    16  36    4.7622   529.7    3.788      41.875
2014   11       12    16  41    4.7630   529.4    3.792      41.830
2014   11       12    16  47    4.7636   529.0    3.797      41.786
2014   11       12    16  52    4.7643   528.7    3.802      41.743
2014   11       12    16  58    4.7649   528.4    3.806      41.700
2014   11       12    17   3    4.7658   528.1    3.811      41.658
2014   11       12    17   9    4.7665   527.8    3.816      41.617
2014   11       12    17  14    4.7674   527.5    3.821      41.576
2014   11       12    17  19    4.7682   527.2    3.827      41.536
2014   11       12    17  25    4.7690   526.9    3.832      41.497
2014   11       12    17  30    4.7701   526.6    3.837      41.459
2014   11       12    17  36    4.7711   526.3    3.843      41.422
2014   11       12    17  41    4.7721   525.9    3.849      41.385
2014   11       12    17  47    4.7731   525.6    3.854      41.349
2014   11       12    17  52    4.7740   525.3    3.860      41.314
2014   11       12    17  58    4.7753   525.0    3.866      41.280
2014   11       12    18   3    4.7764   524.7    3.872      41.247
2014   11       12    18   9    4.7774   524.4    3.879      41.215
2014   11       12    18  14    4.7786   524.1    3.885      41.183
2014   11       12    18  19    4.7800   523.8    3.891      41.152
2014   11       12    18  25    4.7813   523.5    3.898      41.122
2014   11       12    18  30    4.7826   523.3    3.905      41.093
2014   11       12    18  36    4.7838   523.0    3.911      41.065
2014   11       12    18  41    4.7854   522.7    3.918      41.037
2014   11       12    18  47    4.7865   522.4    3.925      41.010
2014   11       12    18  52    4.7880   522.1    3.932      40.983
2014   11       12    18  58    4.7894   521.8    3.939      40.957
2014   11       12    19   3    4.7912   521.5    3.946      40.931
2014   11       12    19   9    4.7927   521.3    3.952      40.906
2014   11       12    19  14    4.7940   521.0    3.959      40.881
2014   11       12    19  20    4.7956   520.7    3.966      40.856
2014   11       12    19  25    4.7972   520.4    3.973      40.832
2014   11       12    19  30    4.7988   520.2    3.980      40.807
2014   11       12    19  36    4.8007   519.9    3.987      40.783
2014   11       12    19  41    4.8024   519.6    3.994      40.759
2014   11       12    19  47    4.8041   519.4    4.001      40.734
2014   11       12    19  52    4.8055   519.1    4.008      40.709
2014   11       12    19  58    4.8075   518.8    4.014      40.684
2014   11       12    20   3    4.8090   518.6    4.021      40.659
2014   11       12    20   9    4.8108   518.3    4.027      40.633
2014   11       12    20  14    4.8128   518.0    4.034      40.607
2014   11       12    20  20    4.8144   517.8    4.040      40.581
2014   11       12    20  25    4.8165   517.5    4.047      40.554
2014   11       12    20  30    4.8181   517.3    4.053      40.527
2014   11       12    20  36    4.8203   517.0    4.059      40.499
2014   11       12    20  41    4.8219   516.7    4.066      40.471
2014   11       12    20  47    4.8238   516.5    4.072      40.443
2014   11       12    20  52    4.8258   516.2    4.078      40.414
2014   11       12    20  58    4.8278   516.0    4.084      40.384
2014   11       12    21   3    4.8301   515.7    4.090      40.355
2014   11       12    21   9    4.8321   515.5    4.096      40.325
2014   11       12    21  14    4.8342   515.2    4.102      40.294
2014   11       12    21  20    4.8360   515.0    4.108      40.264
2014   11       12    21  25    4.8381   514.7    4.114      40.232
2014   11       12    21  31    4.8402   514.4    4.120      40.201
2014   11       12    21  36    4.8424   514.2    4.126      40.169
2014   11       12    21  41    4.8446   513.9    4.132      40.137
2014   11       12    21  47    4.8468   513.7    4.138      40.105
2014   11       12    21  52    4.8490   513.4    4.143      40.073
2014   11       12    21  58    4.8516   513.2    4.149      40.040
2014   11       12    22   3    4.8539   512.9    4.155      40.008
2014   11       12    22   9    4.8559   512.7    4.161      39.975
2014   11       12    22  14    4.8583   512.4    4.167      39.942
2014   11       12    22  20    4.8607   512.2    4.172      39.909
2014   11       12    22  25    4.8631   511.9    4.178      39.876
2014   11       12    22  31    4.8655   511.7    4.184      39.843
2014   11       12    22  36    4.8683   511.5    4.190      39.810
2014   11       12    22  42    4.8705   511.2    4.196      39.777
2014   11       12    22  47    4.8730   511.0    4.202      39.744
2014   11       12    22  52    4.8759   510.7    4.208      39.711
2014   11       12    22  58    4.8785   510.5    4.214      39.679
2014   11       12    23   3    4.8808   510.2    4.220      39.647
2014   11       12    23   9    4.8834   510.0    4.226      39.615
2014   11       12    23  14    4.8861   509.8    4.232      39.583
2014   11       12    23  20    4.8888   509.5    4.238      39.552
2014   11       12    23  25    4.8916   509.3    4.245      39.521
2014   11       12    23  31    4.8944   509.1    4.251      39.491
2014   11       12    23  36    4.8972   508.8    4.257      39.461
2014   11       12    23  42    4.9000   508.6    4.264      39.431
2014   11       12    23  47    4.9032   508.4    4.271      39.402
2014   11       12    23  52    4.9058   508.1    4.277      39.373
2014   11       12    23  58    4.9091   507.9    4.284      39.345
2014   11       13     0   3    4.9120   507.7    4.291      39.318
2014   11       13     0   9    4.9150   507.4    4.298      39.291
2014   11       13     0  14    4.9178   507.2    4.305      39.265
2014   11       13     0  20    4.9208   507.0    4.313      39.239
2014   11       13     0  25    4.9239   506.8    4.320      39.214
2014   11       13     0  31    4.9271   506.5    4.327      39.190
2014   11       13     0  36    4.9305   506.3    4.335      39.167
2014   11       13     0  42    4.9334   506.1    4.343      39.144
2014   11       13     0  47    4.9369   505.9    4.351      39.122
2014   11       13     0  53    4.9399   505.6    4.359      39.101
2014   11       13     0  58    4.9434   505.4    4.367      39.080
2014   11       13     1   3    4.9464   505.2    4.375      39.060
2014   11       13     1   9    4.9500   505.0    4.384      39.042
2014   11       13     1  14    4.9531   504.8    4.392      39.023
2014   11       13     1  20    4.9568   504.6    4.401      39.006
2014   11       13     1  25    4.9600   504.4    4.410      38.990
2014   11       13     1  31    4.9636   504.2    4.419      38.974
2014   11       13     1  36    4.9669   504.0    4.428      38.959
2014   11       13     1  42    4.9704   503.8    4.437      38.944
2014   11       13     1  47    4.9739   503.6    4.446      38.931
2014   11       13     1  53    4.9775   503.4    4.456      38.919
2014   11       13     1  58    4.9810   503.2    4.465      38.907
2014   11       13     2   3    4.9847   503.0    4.475      38.896
2014   11       13     2   9    4.9883   502.8    4.485      38.885
2014   11       13     2  14    4.9921   502.6    4.495      38.876
2014   11       13     2  20    4.9956   502.4    4.505      38.866
2014   11       13     2  25    4.9995   502.2    4.515      38.858
2014   11       13     2  31    5.0030   502.0    4.525      38.850
2014   11       13     2  36    5.0067   501.9    4.535      38.843
2014   11       13     2  42    5.0104   501.7    4.545      38.836
2014   11       13     2  47    5.0144   501.5    4.555      38.829
2014   11       13     2  53    5.0179   501.3    4.565      38.824
2014   11       13     2  58    5.0217   501.2    4.575      38.818
2014   11       13     3   4    5.0256   501.0    4.585      38.812
2014   11       13     3   9    5.0294   500.8    4.595      38.807
2014   11       13     3  14    5.0330   500.7    4.605      38.801
2014   11       13     3  20    5.0369   500.5    4.615      38.796
2014   11       13     3  25    5.0405   500.4    4.624      38.791
2014   11       13     3  31    5.0443   500.2    4.634      38.785
2014   11       13     3  36    5.0482   500.0    4.643      38.779
2014   11       13     3  42    5.0518   499.9    4.653      38.773
2014   11       13     3  47    5.0556   499.7    4.662      38.767
2014   11       13     3  53    5.0596   499.6    4.671      38.760
2014   11       13     3  58    5.0633   499.4    4.680      38.753
2014   11       13     4   4    5.0670   499.3    4.689      38.746
2014   11       13     4   9    5.0708   499.1    4.698      38.738
2014   11       13     4  14    5.0747   499.0    4.707      38.730
2014   11       13     4  20    5.0783   498.8    4.716      38.722
2014   11       13     4  25    5.0823   498.7    4.724      38.714
2014   11       13     4  31    5.0859   498.5    4.733      38.705
2014   11       13     4  36    5.0897   498.4    4.741      38.696
2014   11       13     4  42    5.0935   498.3    4.749      38.687
2014   11       13     4  47    5.0974   498.1    4.758      38.678
2014   11       13     4  53    5.1011   498.0    4.766      38.668
2014   11       13     4  58    5.1050   497.9    4.774      38.658
2014   11       13     5   4    5.1088   497.7    4.782      38.648
2014   11       13     5   9    5.1126   497.6    4.790      38.639
2014   11       13     5  15    5.1164   497.5    4.797      38.629
2014   11       13     5  20    5.1200   497.3    4.805      38.618
2014   11       13     5  25    5.1239   497.2    4.813      38.608
2014   11       13     5  31    5.1276   497.1    4.820      38.597
2014   11       13     5  36    5.1316   496.9    4.828      38.587
2014   11       13     5  42    5.1353   496.8    4.835      38.576
2014   11       13     5  47    5.1391   496.7    4.842      38.566
2014   11       13     5  53    5.1429   496.6    4.850      38.555
2014   11       13     5  58    5.1467   496.5    4.857      38.544
2014   11       13     6   4    5.1504   496.3    4.864      38.533
2014   11       13     6   9    5.1542   496.2    4.871      38.523
2014   11       13     6  15    5.1580   496.1    4.878      38.512
2014   11       13     6  20    5.1618   496.0    4.885      38.501
2014   11       13     6  25    5.1655   495.9    4.892      38.490
2014   11       13     6  31    5.1694   495.7    4.899      38.479
2014   11       13     6  36    5.1730   495.6    4.906      38.469
2014   11       13     6  42    5.1769   495.5    4.913      38.458
2014   11       13     6  47    5.1806   495.4    4.920      38.447
2014   11       13     6  53    5.1844   495.3    4.927      38.437
2014   11       13     6  58    5.1881   495.2    4.933      38.427
2014   11       13     7   4    5.1918   495.1    4.940      38.416
2014   11       13     7   9    5.1955   495.0    4.947      38.406
2014   11       13     7  15    5.1993   494.9    4.954      38.396
2014   11       13     7  20    5.2030   494.8    4.960      38.386
2014   11       13     7  26    5.2067   494.7    4.967      38.377
2014   11       13     7  31    5.2105   494.6    4.974      38.367
2014   11       13     7  36    5.2142   494.5    4.980      38.358
2014   11       13     7  42    5.2178   494.4    4.987      38.349
2014   11       13     7  47    5.2215   494.3    4.994      38.340
2014   11       13     7  53    5.2252   494.2    5.000      38.331
2014   11       13     7  58    5.2288   494.1    5.007      38.322
2014   11       13     8   4    5.2325   494.0    5.014      38.313
2014   11       13     8   9    5.2361   493.9    5.020      38.305
2014   11       13     8  15    5.2397   493.8    5.027      38.297
2014   11       13     8  20    5.2434   493.7    5.034      38.289
2014   11       13     8  26    5.2470   493.6    5.040      38.281
2014   11       13     8  31    5.2507   493.5    5.047      38.274
2014   11       13     8  36    5.2543   493.4    5.054      38.266
2014   11       13     8  42    5.2579   493.3    5.060      38.259
2014   11       13     8  47    5.2615   493.2    5.067      38.253
2014   11       13     8  53    5.2652   493.1    5.074      38.246
2014   11       13     8  58    5.2688   493.0    5.081      38.240
2014   11       13     9   4    5.2724   492.9    5.088      38.234
2014   11       13     9   9    5.2760   492.8    5.095      38.229
2014   11       13     9  15    5.2797   492.7    5.102      38.224
2014   11       13     9  20    5.2833   492.6    5.109      38.219
2014   11       13     9  26    5.2869   492.5    5.116      38.214
2014   11       13     9  31    5.2905   492.4    5.124      38.210
2014   11       13     9  37    5.2942   492.3    5.131      38.206
2014   11       13     9  42    5.2978   492.3    5.138      38.203
2014   11       13     9  47    5.3015   492.2    5.146      38.201
2014   11       13     9  53    5.3051   492.1    5.153      38.199
2014   11       13     9  58    5.3088   492.0    5.161      38.197
2014   11       13    10   4    5.3124   491.9    5.168      38.196
2014   11       13    10   9    5.3160   491.8    5.175      38.196
2014   11       13    10  15    5.3197   491.8    5.183      38.195
2014   11       13    10  20    5.3234   491.7    5.190      38.195
2014   11       13    10  26    5.3270   491.6    5.198      38.195
2014   11       13    10  31    5.3305   491.5    5.205      38.195
2014   11       13    10  37    5.3341   491.4    5.213      38.196
2014   11       13    10  42    5.3377   491.4    5.220      38.196
2014   11       13    10  47    5.3414   491.3    5.227      38.197
2014   11       13    10  53    5.3448   491.2    5.235      38.198
2014   11       13    10  58    5.3483   491.2    5.242      38.199
2014   11       13    11   4    5.3520   491.1    5.249      38.200
2014   11       13    11   9    5.3555   491.0    5.256      38.201
2014   11       13    11  15    5.3589   490.9    5.263      38.202
2014   11       13    11  20    5.3624   490.9    5.269      38.203
2014   11       13    11  26    5.3657   490.8    5.276      38.203
2014   11       13    11  31    5.3693   490.7    5.283      38.204
2014   11       13    11  37    5.3727   490.7    5.289      38.205
2014   11       13    11  42    5.3761   490.6    5.295      38.205
2014   11       13    11  48    5.3793   490.5    5.302      38.205
2014   11       13    11  53    5.3828   490.5    5.308      38.205
2014   11       13    11  58    5.3860   490.4    5.314      38.205
2014   11       13    12   4    5.3894   490.3    5.320      38.205
2014   11       13    12   9    5.3926   490.3    5.326      38.204
2014   11       13    12  15    5.3958   490.2    5.332      38.203
2014   11       13    12  20    5.3991   490.1    5.337      38.203
2014   11       13    12  26    5.4023   490.1    5.343      38.201
2014   11       13    12  31    5.4057   490.0    5.348      38.200
2014   11       13    12  37    5.4089   490.0    5.354      38.199
2014   11       13    12  42    5.4119   489.9    5.359      38.197
2014   11       13    12  48    5.4151   489.8    5.365      38.195
2014   11       13    12  53    5.4184   489.8    5.370      38.193
2014   11       13    12  58    5.4214   489.7    5.375      38.191
2014   11       13    13   4    5.4247   489.7    5.380      38.189
2014   11       13    13   9    5.4277   489.6    5.385      38.187
2014   11       13    13  15    5.4308   489.5    5.390      38.184
2014   11       13    13  20    5.4340   489.5    5.395      38.182
2014   11       13    13  26    5.4371   489.4    5.399      38.179
2014   11       13    13  31    5.4402   489.4    5.404      38.176
2014   11       13    13  37    5.4431   489.3    5.409      38.174
2014   11       13    13  42    5.4462   489.3    5.413      38.171
2014   11       13    13  48    5.4494   489.2    5.418      38.168
2014   11       13    13  53    5.4524   489.1    5.422      38.166
2014   11       13    13  59    5.4553   489.1    5.427      38.163
2014   11       13    14   4    5.4585   489.0    5.431      38.160
2014   11       13    14   9    5.4613   489.0    5.436      38.157
2014   11       13    14  15    5.4643   488.9    5.440      38.154
2014   11       13    14  20    5.4673   488.9    5.444      38.151
2014   11       13    14  26    5.4704   488.8    5.448      38.148
2014   11       13    14  31    5.4734   488.8    5.453      38.145
2014   11       13    14  37    5.4764   488.7    5.457      38.142
2014   11       13    14  42    5.4792   488.7    5.461      38.139
2014   11       13    14  48    5.4822   488.6    5.465      38.136
2014   11       13    14  53    5.4850   488.6    5.469      38.133
2014   11       13    14  59    5.4881   488.5    5.473      38.131
2014   11       13    15   4    5.4910   488.5    5.477      38.128
2014   11       13    15   9    5.4938   488.4    5.481      38.125
2014   11       13    15  15    5.4967   488.4    5.485      38.122
2014   11       13    15  20    5.4995   488.3    5.488      38.119
2014   11       13    15  26    5.5025   488.3    5.492      38.117
2014   11       13    15  31    5.5053   488.3    5.496      38.114
2014   11       13    15  37    5.5082   488.2    5.500      38.111
2014   11       13    15  42    5.5110   488.2    5.503      38.108
2014   11       13    15  48    5.5139   488.1    5.507      38.106
2014   11       13    15  53    5.5167   488.1    5.511      38.103
2014   11       13    15  59    5.5194   488.0    5.514      38.101
2014   11       13    16   4    5.5222   488.0    5.518      38.098
2014   11       13    16  10    5.5251   487.9    5.522      38.096
2014   11       13    16  15    5.5278   487.9    5.525      38.094
2014   11       13    16  20    5.5306   487.8    5.529      38.092
2014   11       13    16  26    5.5334   487.8    5.533      38.090
2014   11       13    16  31    5.5362   487.8    5.536      38.087
2014   11       13    16  37    5.5390   487.7    5.540      38.086
2014   11       13    16  42    5.5417   487.7    5.544      38.084
2014   11       13    16  48    5.5446   487.6    5.547      38.082
2014   11       13    16  53    5.5473   487.6    5.551      38.081
2014   11       13    16  59    5.5500   487.5    5.555      38.080
2014   11       13    17   4    5.5526   487.5    5.558      38.078
2014   11       13    17  10    5.5554   487.5    5.562      38.077
2014   11       13    17  15    5.5582   487.4    5.566      38.077
2014   11       13    17  20    5.5609   487.4    5.570      38.076
2014   11       13    17  26    5.5636   487.3    5.574      38.075
2014   11       13    17  31    5.5662   487.3    5.578      38.075
2014   11       13    17  37    5.5687   487.3    5.581      38.075
2014   11       13    17  42    5.5714   487.2    5.585      38.075
2014   11       13    17  48    5.5741   487.2    5.589      38.075
2014   11       13    17  53    5.5766   487.1    5.593      38.076
2014   11       13    17  59    5.5793   487.1    5.597      38.077
2014   11       13    18   4    5.5817   487.1    5.601      38.078
2014   11       13    18  10    5.5844   487.0    5.605      38.079
2014   11       13    18  15    5.5869   487.0    5.609      38.081
2014   11       13    18  21    5.5892   487.0    5.613      38.083
2014   11       13    18  26    5.5917   486.9    5.617      38.085
2014   11       13    18  31    5.5943   486.9    5.621      38.087
2014   11       13    18  37    5.5966   486.9    5.625      38.089
2014   11       13    18  42    5.5990   486.8    5.628      38.092
2014   11       13    18  48    5.6016   486.8    5.632      38.094
2014   11       13    18  53    5.6038   486.8    5.635      38.097
2014   11       13    18  59    5.6061   486.7    5.639      38.100
2014   11       13    19   4    5.6085   486.7    5.642      38.103
2014   11       13    19  10    5.6108   486.7    5.645      38.106
2014   11       13    19  15    5.6131   486.6    5.649      38.109
2014   11       13    19  21    5.6154   486.6    5.652      38.111
2014   11       13    19  26    5.6176   486.6    5.655      38.114
2014   11       13    19  31    5.6200   486.5    5.658      38.117
2014   11       13    19  37    5.6223   486.5    5.661      38.119
2014   11       13    19  42    5.6245   486.5    5.663      38.121
2014   11       13    19  48    5.6265   486.4    5.666      38.123
2014   11       13    19  53    5.6289   486.4    5.669      38.125
2014   11       13    19  59    5.6311   486.4    5.671      38.127
2014   11       13    20   4    5.6331   486.3    5.674      38.128
2014   11       13    20  10    5.6352   486.3    5.676      38.130
2014   11       13    20  15    5.6374   486.3    5.679      38.131
2014   11       13    20  21    5.6395   486.2    5.681      38.132
2014   11       13    20  26    5.6418   486.2    5.684      38.133
2014   11       13    20  32    5.6439   486.2    5.686      38.134
2014   11       13    20  37    5.6460   486.1    5.688      38.135
2014   11       13    20  42    5.6481   486.1    5.690      38.136
2014   11       13    20  48    5.6502   486.1    5.692      38.137
2014   11       13    20  53    5.6522   486.1    5.695      38.137
2014   11       13    20  59    5.6541   486.0    5.697      38.138
2014   11       13    21   4    5.6563   486.0    5.699      38.138
2014   11       13    21  10    5.6584   486.0    5.701      38.139
2014   11       13    21  15    5.6604   485.9    5.703      38.139
2014   11       13    21  21    5.6625   485.9    5.705      38.139
2014   11       13    21  26    5.6643   485.9    5.706      38.140
2014   11       13    21  32    5.6665   485.8    5.708      38.140
2014   11       13    21  37    5.6685   485.8    5.710      38.140
2014   11       13    21  42    5.6705   485.8    5.712      38.141
2014   11       13    21  48    5.6725   485.7    5.714      38.141
2014   11       13    21  53    5.6745   485.7    5.716      38.142
2014   11       13    21  59    5.6764   485.7    5.717      38.142
2014   11       13    22   4    5.6784   485.7    5.719      38.143
2014   11       13    22  10    5.6805   485.6    5.721      38.143
2014   11       13    22  15    5.6824   485.6    5.723      38.144
2014   11       13    22  21    5.6844   485.6    5.725      38.145
2014   11       13    22  26    5.6865   485.5    5.726      38.145
2014   11       13    22  32    5.6884   485.5    5.728      38.146
2014   11       13    22  37    5.6903   485.5    5.730      38.147
2014   11       13    22  43    5.6924   485.5    5.732      38.148
2014   11       13    22  48    5.6942   485.4    5.734      38.149
2014   11       13    22  53    5.6961   485.4    5.735      38.151
2014   11       13    22  59    5.6981   485.4    5.737      38.152
2014   11       13    23   4    5.6998   485.4    5.739      38.153
2014   11       13    23  10    5.7016   485.3    5.741      38.155
2014   11       13    23  15    5.7034   485.3    5.743      38.157
2014   11       13    23  21    5.7052   485.3    5.745      38.159
2014   11       13    23  26    5.7069   485.3    5.747      38.161
2014   11       13    23  32    5.7088   485.2    5.749      38.163
2014   11       13    23  37    5.7104   485.2    5.751      38.166
2014   11       13    23  43    5.7120   485.2    5.753      38.169
2014   11       13    23  48    5.7136   485.2    5.755      38.171
2014   11       13    23  53    5.7152   485.2    5.757      38.174
2014   11       13    23  59    5.7167   485.1    5.759      38.176
2014   11       14     0   4    5.7182   485.1    5.761      38.179
2014   11       14     0  10    5.7195   485.1    5.763      38.182
2014   11       14     0  15    5.7210   485.1    5.765      38.184
2014   11       14     0  21    5.7224   485.1    5.767      38.187
2014   11       14     0  26    5.7236   485.0    5.769      38.189
2014   11       14     0  32    5.7249   485.0    5.771      38.191
2014   11       14     0  37    5.7263   485.0    5.773      38.193
2014   11       14     0  43    5.7275   485.0    5.775      38.194
2014   11       14     0  48    5.7286   485.0    5.777      38.196
2014   11       14     0  53    5.7299   485.0    5.779      38.197
2014   11       14     0  59    5.7309   484.9    5.781      38.199
2014   11       14     1   4    5.7320   484.9    5.782      38.200
2014   11       14     1  10    5.7332   484.9    5.784      38.202
2014   11       14     1  15    5.7342   484.9    5.785      38.203
2014   11       14     1  21    5.7352   484.9    5.787      38.204
2014   11       14     1  26    5.7363   484.8    5.788      38.206
2014   11       14     1  32    5.7372   484.8    5.789      38.206
2014   11       14     1  37    5.7382   484.8    5.790      38.208
2014   11       14     1  43    5.7393   484.8    5.791      38.208
2014   11       14     1  48    5.7401   484.8    5.792      38.209
2014   11       14     1  54    5.7412   484.7    5.792      38.210
2014   11       14     1  59    5.7420   484.7    5.793      38.210
2014   11       14     2   4    5.7429   484.7    5.794      38.210
2014   11       14     2  10    5.7439   484.7    5.794      38.210
2014   11       14     2  15    5.7446   484.6    5.794      38.210
2014   11       14     2  21    5.7455   484.6    5.794      38.209
2014   11       14     2  26    5.7465   484.6    5.794      38.208
2014   11       14     2  32    5.7472   484.6    5.794      38.207
2014   11       14     2  37    5.7481   484.5    5.794      38.206
2014   11       14     2  43    5.7489   484.5    5.794      38.204
2014   11       14     2  48    5.7496   484.5    5.794      38.202
2014   11       14     2  54    5.7504   484.5    5.793      38.200
2014   11       14     2  59    5.7514   484.4    5.793      38.197
2014   11       14     3   4    5.7520   484.4    5.792      38.194
2014   11       14     3  10    5.7529   484.4    5.792      38.191
2014   11       14     3  15    5.7536   484.3    5.791      38.188
2014   11       14     3  21    5.7543   484.3    5.790      38.185
2014   11       14     3  26    5.7551   484.3    5.790      38.181
2014   11       14     3  32    5.7559   484.3    5.789      38.177
2014   11       14     3  37    5.7566   484.2    5.788      38.173
2014   11       14     3  43    5.7574   484.2    5.787      38.168
2014   11       14     3  48    5.7583   484.2    5.786      38.164
2014   11       14     3  54    5.7590   484.1    5.784      38.159
2014   11       14     3  59    5.7598   484.1    5.783      38.154
2014   11       14     4   5    5.7604   484.1    5.782      38.148
2014   11       14     4  10    5.7611   484.0    5.781      38.143
2014   11       14     4  15    5.7619   484.0    5.779      38.137
2014   11       14     4  21    5.7626   484.0    5.778      38.131
2014   11       14     4  26    5.7633   483.9    5.776      38.125
2014   11       14     4  32    5.7642   483.9    5.775      38.119
2014   11       14     4  37    5.7649   483.9    5.773      38.112
2014   11       14     4  43    5.7657   483.8    5.772      38.105
2014   11       14     4  48    5.7663   483.8    5.770      38.099
2014   11       14     4  54    5.7670   483.8    5.768      38.092
2014   11       14     4  59    5.7679   483.7    5.766      38.085
2014   11       14     5   5    5.7685   483.7    5.765      38.077
2014   11       14     5  10    5.7694   483.7    5.763      38.070
2014   11       14     5  15    5.7700   483.6    5.761      38.062
2014   11       14     5  21    5.7707   483.6    5.759      38.055
2014   11       14     5  26    5.7714   483.6    5.757      38.047
2014   11       14     5  32    5.7722   483.5    5.755      38.039
2014   11       14     5  37    5.7730   483.5    5.753      38.031
2014   11       14     5  43    5.7738   483.5    5.751      38.022
2014   11       14     5  48    5.7744   483.4    5.748      38.014
2014   11       14     5  54    5.7753   483.4    5.746      38.006
2014   11       14     5  59    5.7759   483.4    5.744      37.997
2014   11       14     6   5    5.7766   483.4    5.742      37.988
2014   11       14     6  10    5.7775   483.3    5.739      37.980
2014   11       14     6  15    5.7782   483.3    5.737      37.971
2014   11       14     6  21    5.7789   483.3    5.735      37.962
2014   11       14     6  26    5.7797   483.2    5.732      37.952
2014   11       14     6  32    5.7804   483.2    5.730      37.943
2014   11       14     6  37    5.7812   483.2    5.728      37.934
2014   11       14     6  43    5.7820   483.1    5.725      37.924
2014   11       14     6  48    5.7828   483.1    5.723      37.915
2014   11       14     6  54    5.7836   483.1    5.720      37.905
2014   11       14     6  59    5.7844   483.0    5.718      37.895
2014   11       14     7   5    5.7852   483.0    5.715      37.886
2014   11       14     7  10    5.7859   483.0    5.712      37.876
2014   11       14     7  16    5.7868   482.9    5.710      37.865
2014   11       14     7  21    5.7875   482.9    5.707      37.855
2014   11       14     7  26    5.7884   482.9    5.705      37.845
2014   11       14     7  32    5.7892   482.8    5.702      37.835
2014   11       14     7  37    5.7899   482.8    5.699      37.824
2014   11       14     7  43    5.7907   482.8    5.696      37.814
2014   11       14     7  48    5.7915   482.7    5.694      37.803
2014   11       14     7  54    5.7922   482.7    5.691      37.793
2014   11       14     7  59    5.7930   482.7    5.688      37.782
2014   11       14     8   5    5.7938   482.6    5.685      37.771
2014   11       14     8  10    5.7945   482.6    5.683      37.761
2014   11       14     8  16    5.7952   482.6    5.680      37.750
2014   11       14     8  21    5.7960   482.5    5.677      37.739
2014   11       14     8  26    5.7967   482.5    5.674      37.728
2014   11       14     8  32    5.7975   482.5    5.672      37.717
2014   11       14     8  37    5.7982   482.4    5.669      37.706
2014   11       14     8  43    5.7988   482.4    5.666      37.696
2014   11       14     8  48    5.7994   482.4    5.663      37.685
2014   11       14     8  54    5.8001   482.3    5.660      37.674
2014   11       14     8  59    5.8008   482.3    5.658      37.664
2014   11       14     9   5    5.8014   482.3    5.655      37.653
2014   11       14     9  10    5.8021   482.2    5.652      37.643
2014   11       14     9  16    5.8028   482.2    5.650      37.632
2014   11       14     9  21    5.8034   482.2    5.647      37.622
2014   11       14     9  27    5.8040   482.1    5.644      37.612
2014   11       14     9  32    5.8047   482.1    5.642      37.602
2014   11       14     9  37    5.8053   482.1    5.639      37.593
2014   11       14     9  43    5.8059   482.0    5.637      37.583
2014   11       14     9  48    5.8064   482.0    5.634      37.574
2014   11       14     9  54    5.8070   482.0    5.632      37.565
2014   11       14     9  59    5.8075   481.9    5.629      37.556
2014   11       14    10   5    5.8081   481.9    5.627      37.547
2014   11       14    10  10    5.8086   481.9    5.625      37.539
2014   11       14    10  16    5.8092   481.8    5.622      37.531
2014   11       14    10  21    5.8097   481.8    5.620      37.523
2014   11       14    10  27    5.8103   481.8    5.618      37.515
2014   11       14    10  32    5.8107   481.7    5.616      37.508
2014   11       14    10  37    5.8112   481.7    5.613      37.501
2014   11       14    10  43    5.8116   481.7    5.611      37.494
2014   11       14    10  48    5.8121   481.7    5.609      37.487
2014   11       14    10  54    5.8126   481.6    5.607      37.481
2014   11       14    10  59    5.8129   481.6    5.605      37.475
2014   11       14    11   5    5.8134   481.6    5.603      37.470
2014   11       14    11  10    5.8137   481.5    5.601      37.464
2014   11       14    11  16    5.8141   481.5    5.600      37.459
2014   11       14    11  21    5.8145   481.5    5.598      37.455
2014   11       14    11  27    5.8148   481.4    5.596      37.450
2014   11       14    11  32    5.8151   481.4    5.594      37.446
2014   11       14    11  37    5.8155   481.4    5.593      37.442
2014   11       14    11  43    5.8158   481.3    5.591      37.439
2014   11       14    11  48    5.8160   481.3    5.590      37.436
2014   11       14    11  54    5.8164   481.3    5.588      37.433
2014   11       14    11  59    5.8166   481.3    5.587      37.431
2014   11       14    12   5    5.8168   481.2    5.585      37.428
2014   11       14    12  10    5.8171   481.2    5.584      37.426
2014   11       14    12  16    5.8172   481.2    5.583      37.424
2014   11       14    12  21    5.8175   481.1    5.581      37.422
2014   11       14    12  27    5.8176   481.1    5.580      37.421
2014   11       14    12  32    5.8179   481.1    5.579      37.419
2014   11       14    12  38    5.8181   481.0    5.578      37.418
2014   11       14    12  43    5.8182   481.0    5.576      37.417
2014   11       14    12  48    5.8183   481.0    5.575      37.416
2014   11       14    12  54    5.8184   481.0    5.574      37.415
2014   11       14    12  59    5.8186   480.9    5.573      37.414
2014   11       14    13   5    5.8187   480.9    5.572      37.413
2014   11       14    13  10    5.8188   480.9    5.571      37.412
2014   11       14    13  16    5.8190   480.8    5.570      37.411
2014   11       14    13  21    5.8190   480.8    5.570      37.410
2014   11       14    13  27    5.8191   480.8    5.569      37.409
2014   11       14    13  32    5.8191   480.7    5.568      37.409
2014   11       14    13  38    5.8193   480.7    5.568      37.408
2014   11       14    13  43    5.8192   480.7    5.567      37.408
2014   11       14    13  48    5.8193   480.6    5.566      37.407
2014   11       14    13  54    5.8194   480.6    5.566      37.407
2014   11       14    13  59    5.8194   480.6    5.565      37.407
2014   11       14    14   5    5.8194   480.5    5.565      37.406
2014   11       14    14  10    5.8194   480.5    5.565      37.406
2014   11       14    14  16    5.8194   480.5    5.564      37.406
2014   11       14    14  21    5.8194   480.4    5.564      37.405
2014   11       14    14  27    5.8194   480.4    5.564      37.405
2014   11       14    14  32    5.8193   480.4    5.563      37.405
2014   11       14    14  38    5.8193   480.3    5.563      37.404
2014   11       14    14  43    5.8193   480.3    5.563      37.404
2014   11       14    14  48    5.8191   480.3    5.563      37.403
2014   11       14    14  54    5.8191   480.2    5.563      37.402
2014   11       14    14  59    5.8190   480.2    5.562      37.401
2014   11       14    15   5    5.8189   480.2    5.562      37.400
2014   11       14    15  10    5.8189   480.1    5.562      37.398
2014   11       14    15  16    5.8188   480.1    5.562      37.396
2014   11       14    15  21    5.8187   480.1    5.561      37.394
2014   11       14    15  27    5.8186   480.0    5.561      37.392
2014   11       14    15  32    5.8185   480.0    5.561      37.389
2014   11       14    15  38    5.8184   479.9    5.560      37.385
2014   11       14    15  43    5.8183   479.9    5.560      37.382
2014   11       14    15  49    5.8182   479.8    5.559      37.378
2014   11       14    15  54    5.8182   479.8    5.559      37.373
2014   11       14    15  59    5.8181   479.7    5.558      37.368
2014   11       14    16   5    5.8180   479.7    5.558      37.364
2014   11       14    16  10    5.8179   479.6    5.557      37.358
2014   11       14    16  16    5.8179   479.6    5.556      37.352
2014   11       14    16  21    5.8179   479.5    5.556      37.346
2014   11       14    16  27    5.8179   479.5    5.555      37.340
2014   11       14    16  32    5.8179   479.4    5.554      37.334
2014   11       14    16  38    5.8179   479.4    5.554      37.327
2014   11       14    16  43    5.8180   479.3    5.553      37.320
2014   11       14    16  49    5.8181   479.3    5.552      37.313
2014   11       14    16  54    5.8182   479.2    5.551      37.306
2014   11       14    16  59    5.8183   479.2    5.551      37.299
2014   11       14    17   5    5.8185   479.1    5.550      37.292
2014   11       14    17  10    5.8187   479.0    5.549      37.285
2014   11       14    17  16    5.8190   479.0    5.549      37.278
2014   11       14    17  21    5.8193   478.9    5.548      37.271
2014   11       14    17  27    5.8197   478.9    5.548      37.264
2014   11       14    17  32    5.8201   478.8    5.547      37.257
2014   11       14    17  38    5.8204   478.8    5.547      37.251
2014   11       14    17  43    5.8209   478.7    5.546      37.244
2014   11       14    17  49    5.8213   478.6    5.546      37.238
2014   11       14    17  54    5.8218   478.6    5.546      37.231
2014   11       14    18   0    5.8222   478.5    5.545      37.225
2014   11       14    18   5    5.8227   478.5    5.545      37.219
2014   11       14    18  10    5.8232   478.4    5.545      37.212
2014   11       14    18  16    5.8236   478.3    5.544      37.206
2014   11       14    18  21    5.8241   478.3    5.544      37.200
2014   11       14    18  27    5.8246   478.2    5.544      37.194
2014   11       14    18  32    5.8251   478.2    5.544      37.188
2014   11       14    18  38    5.8255   478.1    5.544      37.181
2014   11       14    18  43    5.8258   478.0    5.544      37.175
2014   11       14    18  49    5.8262   478.0    5.544      37.169
2014   11       14    18  54    5.8266   477.9    5.543      37.163
2014   11       14    19   0    5.8270   477.9    5.543      37.157
2014   11       14    19   5    5.8273   477.8    5.543      37.151
2014   11       14    19  10    5.8275   477.7    5.543      37.145
2014   11       14    19  16    5.8277   477.7    5.544      37.139
2014   11       14    19  21    5.8279   477.6    5.544      37.134
2014   11       14    19  27    5.8281   477.6    5.544      37.129
2014   11       14    19  32    5.8283   477.5    5.544      37.124
2014   11       14    19  38    5.8284   477.4    5.544      37.120
2014   11       14    19  43    5.8284   477.4    5.545      37.115
2014   11       14    19  49    5.8285   477.3    5.545      37.111
2014   11       14    19  54    5.8285   477.3    5.546      37.108
2014   11       14    20   0    5.8285   477.2    5.546      37.104
2014   11       14    20   5    5.8284   477.1    5.547      37.101
2014   11       14    20  10    5.8283   477.1    5.547      37.098
2014   11       14    20  16    5.8282   477.0    5.548      37.096
2014   11       14    20  21    5.8281   477.0    5.548      37.093
2014   11       14    20  27    5.8279   476.9    5.549      37.091
2014   11       14    20  32    5.8277   476.8    5.550      37.088
2014   11       14    20  38    5.8273   476.8    5.550      37.086
2014   11       14    20  43    5.8271   476.7    5.551      37.084
2014   11       14    20  49    5.8268   476.7    5.552      37.082
2014   11       14    20  54    5.8263   476.6    5.553      37.080
2014   11       14    21   0    5.8260   476.5    5.554      37.078
2014   11       14    21   5    5.8256   476.5    5.555      37.076
2014   11       14    21  11    5.8251   476.4    5.555      37.075
2014   11       14    21  16    5.8247   476.3    5.556      37.073
2014   11       14    21  21    5.8243   476.2    5.557      37.072
2014   11       14    21  27    5.8238   476.2    5.559      37.071
2014   11       14    21  32    5.8232   476.1    5.560      37.071
2014   11       14    21  38    5.8228   476.0    5.561      37.070
2014   11       14    21  43    5.8223   475.9    5.562      37.070
2014   11       14    21  49    5.8217   475.9    5.564      37.071
2014   11       14    21  54    5.8212   475.8    5.565      37.072
2014   11       14    22   0    5.8206   475.7    5.567      37.073
2014   11       14    22   5    5.8202   475.6    5.568      37.075
2014   11       14    22  11    5.8197   475.6    5.570      37.077
2014   11       14    22  16    5.8191   475.5    5.572      37.080
2014   11       14    22  21    5.8186   475.4    5.574      37.084
2014   11       14    22  27    5.8181   475.3    5.576      37.088
2014   11       14    22  32    5.8177   475.3    5.579      37.092
2014   11       14    22  38    5.8172   475.2    5.581      37.098
2014   11       14    22  43    5.8168   475.1    5.584      37.103
2014   11       14    22  49    5.8163   475.0    5.586      37.110
2014   11       14    22  54    5.8159   474.9    5.589      37.117
2014   11       14    23   0    5.8155   474.9    5.592      37.124
2014   11       14    23   5    5.8152   474.8    5.596      37.132
2014   11       14    23  11    5.8148   474.7    5.599      37.141
2014   11       14    23  16    5.8145   474.6    5.602      37.151
2014   11       14    23  21    5.8142   474.6    5.606      37.161
2014   11       14    23  27    5.8140   474.5    5.609      37.172
2014   11       14    23  32    5.8137   474.4    5.613      37.184
2014   11       14    23  38    5.8134   474.3    5.616      37.195
2014   11       14    23  43    5.8133   474.2    5.619      37.207
2014   11       14    23  49    5.8130   474.2    5.623      37.219
2014   11       14    23  54    5.8129   474.1    5.626      37.230
2014   11       15     0   0    5.8128   474.0    5.629      37.242
2014   11       15     0   5    5.8126   473.9    5.632      37.252
2014   11       15     0  11    5.8125   473.8    5.635      37.263
2014   11       15     0  16    5.8124   473.8    5.638      37.273
2014   11       15     0  22    5.8122   473.7    5.641      37.282
2014   11       15     0  27    5.8122   473.6    5.643      37.291
2014   11       15     0  32    5.8121   473.5    5.645      37.299
2014   11       15     0  38    5.8121   473.4    5.648      37.306
2014   11       15     0  43    5.8121   473.4    5.650      37.312
2014   11       15     0  49    5.8120   473.3    5.652      37.317
2014   11       15     0  54    5.8120   473.2    5.653      37.321
2014   11       15     1   0    5.8121   473.1    5.655      37.324
2014   11       15     1   5    5.8121   473.0    5.657      37.327
2014   11       15     1  11    5.8121   473.0    5.658      37.329
2014   11       15     1  16    5.8122   472.9    5.660      37.330
2014   11       15     1  22    5.8123   472.8    5.661      37.331
2014   11       15     1  27    5.8124   472.7    5.662      37.330
2014   11       15     1  32    5.8125   472.6    5.664      37.330
2014   11       15     1  38    5.8127   472.5    5.665      37.328
2014   11       15     1  43    5.8129   472.4    5.666      37.326
2014   11       15     1  49    5.8130   472.4    5.667      37.324
2014   11       15     1  54    5.8133   472.3    5.668      37.321
2014   11       15     2   0    5.8135   472.2    5.669      37.318
2014   11       15     2   5    5.8138   472.1    5.670      37.314
2014   11       15     2  11    5.8140   472.0    5.671      37.310
2014   11       15     2  16    5.8143   471.9    5.671      37.306
2014   11       15     2  22    5.8147   471.8    5.672      37.301
2014   11       15     2  27    5.8150   471.7    5.673      37.297
2014   11       15     2  32    5.8153   471.7    5.674      37.292
2014   11       15     2  38    5.8157   471.6    5.675      37.286
2014   11       15     2  43    5.8161   471.5    5.676      37.281
2014   11       15     2  49    5.8165   471.4    5.676      37.275
2014   11       15     2  54    5.8169   471.3    5.677      37.270
2014   11       15     3   0    5.8174   471.2    5.678      37.264
2014   11       15     3   5    5.8179   471.1    5.679      37.257
2014   11       15     3  11    5.8183   471.0    5.680      37.251
2014   11       15     3  16    5.8189   471.0    5.681      37.245
2014   11       15     3  22    5.8194   470.9    5.682      37.238
2014   11       15     3  27    5.8199   470.8    5.682      37.231
2014   11       15     3  32    5.8205   470.7    5.683      37.224
2014   11       15     3  38    5.8211   470.6    5.684      37.217
2014   11       15     3  43    5.8217   470.5    5.685      37.209
2014   11       15     3  49    5.8223   470.4    5.686      37.202
2014   11       15     3  54    5.8229   470.3    5.687      37.194
2014   11       15     4   0    5.8236   470.3    5.688      37.186
2014   11       15     4   5    5.8242   470.2    5.689      37.178
2014   11       15     4  11    5.8248   470.1    5.690      37.170
2014   11       15     4  16    5.8255   470.0    5.691      37.162
2014   11       15     4  22    5.8261   469.9    5.692      37.153
2014   11       15     4  27    5.8268   469.8    5.693      37.145
2014   11       15     4  33    5.8275   469.7    5.694      37.136
2014   11       15     4  38    5.8283   469.6    5.696      37.127
2014   11       15     4  43    5.8290   469.5    5.697      37.118
2014   11       15     4  49    5.8296   469.4    5.698      37.109
2014   11       15     4  54    5.8305   469.3    5.699      37.100
2014   11       15     5   0    5.8312   469.2    5.701      37.091
2014   11       15     5   5    5.8320   469.2    5.702      37.082
2014   11       15     5  11    5.8328   469.1    5.703      37.073
2014   11       15     5  16    5.8337   469.0    5.705      37.065
2014   11       15     5  22    5.8346   468.9    5.707      37.057
2014   11       15     5  27    5.8354   468.8    5.708      37.049
2014   11       15     5  33    5.8363   468.7    5.710      37.041
2014   11       15     5  38    5.8373   468.6    5.712      37.034
2014   11       15     5  43    5.8383   468.5    5.714      37.027
2014   11       15     5  49    5.8394   468.4    5.716      37.021
2014   11       15     5  54    5.8405   468.3    5.718      37.015
2014   11       15     6   0    5.8417   468.2    5.721      37.010
2014   11       15     6   5    5.8428   468.1    5.723      37.005
2014   11       15     6  11    5.8440   468.0    5.725      37.002
2014   11       15     6  16    5.8452   467.9    5.728      36.999
2014   11       15     6  22    5.8464   467.8    5.731      36.998
2014   11       15     6  27    5.8478   467.8    5.733      36.997
2014   11       15     6  33    5.8490   467.7    5.736      36.996
2014   11       15     6  38    5.8503   467.6    5.738      36.997
2014   11       15     6  43    5.8516   467.5    5.741      36.997
2014   11       15     6  49    5.8529   467.4    5.743      36.998
2014   11       15     6  54    5.8541   467.4    5.746      36.999
2014   11       15     7   0    5.8555   467.3    5.748      37.000
2014   11       15     7   5    5.8567   467.2    5.750      37.001
2014   11       15     7  11    5.8579   467.1    5.752      37.003
2014   11       15     7  16    5.8592   467.1    5.755      37.005
2014   11       15     7  22    5.8604   467.0    5.756      37.006
2014   11       15     7  27    5.8616   466.9    5.758      37.007
2014   11       15     7  33    5.8628   466.8    5.760      37.008
2014   11       15     7  38    5.8640   466.8    5.762      37.009
2014   11       15     7  44    5.8653   466.7    5.763      37.010
2014   11       15     7  49    5.8665   466.6    5.765      37.010
2014   11       15     7  54    5.8676   466.5    5.767      37.010
2014   11       15     8   0    5.8688   466.5    5.768      37.010
2014   11       15     8   5    5.8698   466.4    5.769      37.010
2014   11       15     8  11    5.8709   466.3    5.771      37.010
2014   11       15     8  16    5.8720   466.2    5.772      37.009
2014   11       15     8  22    5.8731   466.2    5.773      37.009
2014   11       15     8  27    5.8742   466.1    5.774      37.008
2014   11       15     8  33    5.8753   466.0    5.775      37.007
2014   11       15     8  38    5.8765   465.9    5.776      37.006
2014   11       15     8  44    5.8776   465.9    5.777      37.005
2014   11       15     8  49    5.8787   465.8    5.778      37.004
2014   11       15     8  54    5.8796   465.7    5.779      37.003
2014   11       15     9   0    5.8808   465.6    5.780      37.001
2014   11       15     9   5    5.8818   465.6    5.780      36.999
2014   11       15     9  11    5.8830   465.5    5.781      36.998
2014   11       15     9  16    5.8841   465.4    5.782      36.996
2014   11       15     9  22    5.8850   465.3    5.782      36.994
2014   11       15     9  27    5.8861   465.3    5.783      36.992
2014   11       15     9  33    5.8872   465.2    5.783      36.990
2014   11       15     9  38    5.8883   465.1    5.784      36.988
2014   11       15     9  44    5.8894   465.0    5.784      36.986
2014   11       15     9  49    5.8906   465.0    5.785      36.983
2014   11       15     9  54    5.8917   464.9    5.785      36.981
2014   11       15    10   0    5.8928   464.8    5.786      36.978
2014   11       15    10   5    5.8941   464.7    5.786      36.975
2014   11       15    10  11    5.8953   464.6    5.786      36.973
2014   11       15    10  16    5.8963   464.6    5.787      36.970
2014   11       15    10  22    5.8976   464.5    5.787      36.967
2014   11       15    10  27    5.8988   464.4    5.787      36.964
2014   11       15    10  33    5.8999   464.3    5.787      36.960
2014   11       15    10  38    5.9013   464.2    5.787      36.957
2014   11       15    10  44    5.9024   464.2    5.787      36.953
2014   11       15    10  49    5.9036   464.1    5.788      36.949
2014   11       15    10  54    5.9049   464.0    5.788      36.946
2014   11       15    11   0    5.9064   463.9    5.788      36.941
2014   11       15    11   5    5.9077   463.8    5.788      36.937
2014   11       15    11  11    5.9089   463.8    5.788      36.933
2014   11       15    11  16    5.9102   463.7    5.788      36.928
2014   11       15    11  22    5.9117   463.6    5.788      36.923
2014   11       15    11  27    5.9131   463.5    5.788      36.918
2014   11       15    11  33    5.9144   463.4    5.788      36.913
2014   11       15    11  38    5.9160   463.3    5.788      36.907
2014   11       15    11  44    5.9173   463.3    5.788      36.902
2014   11       15    11  49    5.9187   463.2    5.788      36.896
2014   11       15    11  55    5.9202   463.1    5.788      36.890
2014   11       15    12   0    5.9218   463.0    5.788      36.884
2014   11       15    12   5    5.9232   462.9    5.788      36.877
2014   11       15    12  11    5.9249   462.8    5.788      36.871
2014   11       15    12  16    5.9264   462.8    5.788      36.864
2014   11       15    12  22    5.9280   462.7    5.788      36.857
2014   11       15    12  27    5.9294   462.6    5.788      36.850
2014   11       15    12  33    5.9310   462.5    5.788      36.843
2014   11       15    12  38    5.9327   462.4    5.788      36.835
2014   11       15    12  44    5.9343   462.3    5.788      36.828
2014   11       15    12  49    5.9358   462.2    5.789      36.820
2014   11       15    12  55    5.9375   462.2    5.789      36.813
2014   11       15    13   0    5.9391   462.1    5.789      36.805
2014   11       15    13   5    5.9409   462.0    5.790      36.798
2014   11       15    13  11    5.9427   461.9    5.790      36.790
2014   11       15    13  16    5.9445   461.8    5.791      36.782
2014   11       15    13  22    5.9461   461.7    5.792      36.775
2014   11       15    13  27    5.9479   461.6    5.793      36.767
2014   11       15    13  33    5.9499   461.6    5.794      36.760
2014   11       15    13  38    5.9516   461.5    5.795      36.753
2014   11       15    13  44    5.9535   461.4    5.796      36.746
2014   11       15    13  49    5.9555   461.3    5.797      36.739
2014   11       15    13  55    5.9573   461.2    5.799      36.732
2014   11       15    14   0    5.9593   461.1    5.800      36.725
2014   11       15    14   5    5.9614   461.0    5.802      36.719
2014   11       15    14  11    5.9635   461.0    5.804      36.713
2014   11       15    14  16    5.9654   460.9    5.805      36.707
2014   11       15    14  22    5.9675   460.8    5.807      36.701
2014   11       15    14  27    5.9697   460.7    5.810      36.696
2014   11       15    14  33    5.9719   460.6    5.812      36.691
2014   11       15    14  38    5.9742   460.5    5.814      36.686
2014   11       15    14  44    5.9765   460.5    5.817      36.681
2014   11       15    14  49    5.9788   460.4    5.819      36.677
2014   11       15    14  55    5.9811   460.3    5.822      36.673
2014   11       15    15   0    5.9833   460.2    5.825      36.669
2014   11       15    15   6    5.9857   460.1    5.828      36.666
2014   11       15    15  11    5.9883   460.1    5.831      36.663
2014   11       15    15  16    5.9906   460.0    5.834      36.660
2014   11       15    15  22    5.9931   459.9    5.838      36.658
2014   11       15    15  27    5.9957   459.8    5.841      36.656
2014   11       15    15  33    5.9984   459.7    5.845      36.655
2014   11       15    15  38    6.0009   459.7    5.849      36.654
2014   11       15    15  44    6.0035   459.6    5.853      36.653
2014   11       15    15  49    6.0061   459.5    5.857      36.653
2014   11       15    15  55    6.0090   459.4    5.861      36.653
2014   11       15    16   0    6.0117   459.4    5.866      36.654
2014   11       15    16   6    6.0142   459.3    5.870      36.655
2014   11       15    16  11    6.0171   459.2    5.875      36.657
2014   11       15    16  16    6.0197   459.2    5.879      36.659
2014   11       15    16  22    6.0227   459.1    5.884      36.661
2014   11       15    16  27    6.0253   459.0    5.889      36.664
2014   11       15    16  33    6.0281   458.9    5.894      36.667
2014   11       15    16  38    6.0309   458.9    5.899      36.671
2014   11       15    16  44    6.0338   458.8    5.904      36.675
2014   11       15    16  49    6.0367   458.7    5.910      36.680
2014   11       15    16  55    6.0398   458.7    5.915      36.685
2014   11       15    17   0    6.0427   458.6    5.921      36.691
2014   11       15    17   6    6.0457   458.5    5.926      36.698
2014   11       15    17  11    6.0484   458.5    5.931      36.706
2014   11       15    17  16    6.0516   458.4    5.937      36.715
2014   11       15    17  22    6.0544   458.4    5.942      36.724
2014   11       15    17  27    6.0574   458.3    5.948      36.735
2014   11       15    17  33    6.0603   458.2    5.953      36.747
2014   11       15    17  38    6.0635   458.2    5.958      36.759
2014   11       15    17  44    6.0665   458.1    5.963      36.773
2014   11       15    17  49    6.0695   458.1    5.968      36.787
2014   11       15    17  55    6.0725   458.0    5.973      36.801
2014   11       15    18   0    6.0753   458.0    5.978      36.816
2014   11       15    18   6    6.0785   457.9    5.983      36.831
2014   11       15    18  11    6.0813   457.9    5.987      36.847
2014   11       15    18  16    6.0845   457.8    5.992      36.863
2014   11       15    18  22    6.0875   457.8    5.996      36.879
2014   11       15    18  27    6.0903   457.7    6.001      36.894
2014   11       15    18  33    6.0934   457.7    6.005      36.910
2014   11       15    18  38    6.0964   457.6    6.009      36.926
2014   11       15    18  44    6.0994   457.6    6.013      36.941
2014   11       15    18  49    6.1026   457.5    6.017      36.956
2014   11       15    18  55    6.1055   457.5    6.021      36.971
2014   11       15    19   0    6.1088   457.4    6.024      36.985
2014   11       15    19   6    6.1118   457.4    6.028      36.999
2014   11       15    19  11    6.1147   457.3    6.032      37.013
2014   11       15    19  16    6.1178   457.3    6.035      37.027
2014   11       15    19  22    6.1210   457.2    6.039      37.040
2014   11       15    19  27    6.1241   457.2    6.042      37.053
2014   11       15    19  33    6.1272   457.1    6.046      37.066
2014   11       15    19  38    6.1304   457.1    6.049      37.080
2014   11       15    19  44    6.1336   457.0    6.053      37.092
2014   11       15    19  49    6.1368   457.0    6.056      37.105
2014   11       15    19  55    6.1402   456.9    6.060      37.117
2014   11       15    20   0    6.1433   456.9    6.063      37.130
2014   11       15    20   6    6.1466   456.8    6.067      37.142
2014   11       15    20  11    6.1501   456.8    6.070      37.155
2014   11       15    20  16    6.1532   456.7    6.074      37.167
2014   11       15    20  22    6.1567   456.7    6.077      37.179
2014   11       15    20  27    6.1599   456.6    6.081      37.192
2014   11       15    20  33    6.1635   456.6    6.085      37.204
2014   11       15    20  38    6.1668   456.6    6.089      37.217
2014   11       15    20  44    6.1704   456.5    6.092      37.229
2014   11       15    20  49    6.1738   456.5    6.096      37.242
2014   11       15    20  55    6.1773   456.4    6.100      37.255
2014   11       15    21   0    6.1809   456.4    6.104      37.267
2014   11       15    21   6    6.1845   456.3    6.108      37.280
2014   11       15    21  11    6.1883   456.3    6.112      37.294
2014   11       15    21  17    6.1920   456.3    6.117      37.307
2014   11       15    21  22    6.1955   456.2    6.121      37.321
2014   11       15    21  27    6.1992   456.2    6.126      37.334
2014   11       15    21  33    6.2030   456.2    6.130      37.348
2014   11       15    21  38    6.2068   456.1    6.135      37.362
2014   11       15    21  44    6.2106   456.1    6.140      37.377
2014   11       15    21  49    6.2146   456.1    6.145      37.392
2014   11       15    21  55    6.2185   456.0    6.150      37.407
2014   11       15    22   0    6.2224   456.0    6.155      37.422
2014   11       15    22   6    6.2261   456.0    6.160      37.437
2014   11       15    22  11    6.2301   455.9    6.166      37.453
2014   11       15    22  17    6.2341   455.9    6.171      37.469
2014   11       15    22  22    6.2383   455.9    6.177      37.485
2014   11       15    22  27    6.2421   455.9    6.183      37.502
2014   11       15    22  33    6.2462   455.8    6.189      37.518
2014   11       15    22  38    6.2504   455.8    6.195      37.535
2014   11       15    22  44    6.2544   455.8    6.202      37.553
2014   11       15    22  49    6.2586   455.8    6.208      37.571
2014   11       15    22  55    6.2628   455.8    6.215      37.589
2014   11       15    23   0    6.2671   455.7    6.222      37.607
2014   11       15    23   6    6.2712   455.7    6.229      37.625
2014   11       15    23  11    6.2757   455.7    6.236      37.644
2014   11       15    23  17    6.2800   455.7    6.244      37.663
2014   11       15    23  22    6.2842   455.7    6.251      37.684
2014   11       15    23  27    6.2888   455.7    6.259      37.705
2014   11       15    23  33    6.2932   455.7    6.266      37.728
2014   11       15    23  38    6.2975   455.6    6.274      37.751
2014   11       15    23  44    6.3021   455.6    6.282      37.776
2014   11       15    23  49    6.3064   455.6    6.289      37.802
2014   11       15    23  55    6.3109   455.6    6.297      37.828
2014   11       16     0   0    6.3155   455.6    6.304      37.856
2014   11       16     0   6    6.3200   455.6    6.312      37.884
2014   11       16     0  11    6.3245   455.6    6.319      37.913
2014   11       16     0  17    6.3292   455.6    6.326      37.943
2014   11       16     0  22    6.3337   455.6    6.333      37.974
2014   11       16     0  27    6.3383   455.6    6.340      38.005
2014   11       16     0  33    6.3427   455.7    6.346      38.038
2014   11       16     0  38    6.3472   455.7    6.353      38.070
2014   11       16     0  44    6.3517   455.7    6.359      38.103
2014   11       16     0  49    6.3563   455.7    6.365      38.135
2014   11       16     0  55    6.3607   455.7    6.370      38.167
2014   11       16     1   0    6.3653   455.7    6.376      38.200
2014   11       16     1   6    6.3697   455.7    6.381      38.232
2014   11       16     1  11    6.3741   455.7    6.386      38.264
2014   11       16     1  17    6.3787   455.7    6.391      38.295
2014   11       16     1  22    6.3830   455.8    6.396      38.326
2014   11       16     1  27    6.3876   455.8    6.401      38.357
2014   11       16     1  33    6.3919   455.8    6.405      38.388
2014   11       16     1  38    6.3964   455.8    6.410      38.418
2014   11       16     1  44    6.4009   455.8    6.414      38.447
2014   11       16     1  49    6.4053   455.8    6.418      38.476
2014   11       16     1  55    6.4096   455.8    6.422      38.505
2014   11       16     2   0    6.4140   455.9    6.426      38.533
2014   11       16     2   6    6.4184   455.9    6.430      38.561
2014   11       16     2  11    6.4229   455.9    6.434      38.588
2014   11       16     2  17    6.4272   455.9    6.437      38.615
2014   11       16     2  22    6.4315   455.9    6.441      38.641
2014   11       16     2  27    6.4360   455.9    6.444      38.667
2014   11       16     2  33    6.4403   456.0    6.448      38.693
2014   11       16     2  38    6.4448   456.0    6.451      38.718
2014   11       16     2  44    6.4491   456.0    6.454      38.742
2014   11       16     2  49    6.4534   456.0    6.457      38.767
2014   11       16     2  55    6.4579   456.0    6.461      38.791
2014   11       16     3   0    6.4622   456.1    6.464      38.814
2014   11       16     3   6    6.4666   456.1    6.467      38.838
2014   11       16     3  11    6.4710   456.1    6.470      38.861
2014   11       16     3  17    6.4755   456.1    6.473      38.883
2014   11       16     3  22    6.4798   456.1    6.476      38.906
2014   11       16     3  27    6.4842   456.2    6.478      38.928
2014   11       16     3  33    6.4887   456.2    6.481      38.950
2014   11       16     3  38    6.4931   456.2    6.484      38.971
2014   11       16     3  44    6.4975   456.2    6.487      38.993
2014   11       16     3  49    6.5019   456.2    6.490      39.014
2014   11       16     3  55    6.5064   456.3    6.493      39.035
2014   11       16     4   0    6.5109   456.3    6.496      39.056
2014   11       16     4   6    6.5153   456.3    6.499      39.077
2014   11       16     4  11    6.5198   456.3    6.501      39.097
2014   11       16     4  17    6.5243   456.4    6.504      39.118
2014   11       16     4  22    6.5287   456.4    6.507      39.139
2014   11       16     4  28    6.5332   456.4    6.511      39.159
2014   11       16     4  33    6.5377   456.4    6.514      39.180
2014   11       16     4  38    6.5422   456.4    6.517      39.201
2014   11       16     4  44    6.5468   456.5    6.520      39.221
2014   11       16     4  49    6.5513   456.5    6.524      39.242
2014   11       16     4  55    6.5559   456.5    6.527      39.264
2014   11       16     5   0    6.5604   456.6    6.531      39.285
2014   11       16     5   6    6.5650   456.6    6.535      39.307
2014   11       16     5  11    6.5696   456.6    6.539      39.329
2014   11       16     5  17    6.5742   456.6    6.543      39.352
2014   11       16     5  22    6.5789   456.7    6.547      39.374
2014   11       16     5  28    6.5835   456.7    6.551      39.398
2014   11       16     5  33    6.5882   456.7    6.556      39.422
2014   11       16     5  38    6.5929   456.7    6.561      39.446
2014   11       16     5  44    6.5976   456.8    6.566      39.471
2014   11       16     5  49    6.6024   456.8    6.572      39.496
2014   11       16     5  55    6.6072   456.8    6.577      39.523
2014   11       16     6   0    6.6120   456.9    6.583      39.550
2014   11       16     6   6    6.6169   456.9    6.589      39.578
2014   11       16     6  11    6.6218   456.9    6.596      39.607
2014   11       16     6  17    6.6267   457.0    6.602      39.637
2014   11       16     6  22    6.6317   457.0    6.609      39.668
2014   11       16     6  28    6.6367   457.1    6.616      39.701
2014   11       16     6  33    6.6417   457.1    6.623      39.735
2014   11       16     6  38    6.6467   457.2    6.630      39.771
2014   11       16     6  44    6.6517   457.2    6.637      39.809
2014   11       16     6  49    6.6568   457.3    6.644      39.849
2014   11       16     6  55    6.6618   457.3    6.651      39.891
2014   11       16     7   0    6.6669   457.4    6.658      39.933
2014   11       16     7   6    6.6719   457.4    6.665      39.977
2014   11       16     7  11    6.6770   457.5    6.672      40.022
2014   11       16     7  17    6.6820   457.6    6.678      40.067
2014   11       16     7  22    6.6870   457.6    6.685      40.112
2014   11       16     7  28    6.6920   457.7    6.691      40.159
2014   11       16     7  33    6.6969   457.8    6.697      40.205
2014   11       16     7  38    6.7018   457.8    6.702      40.252
2014   11       16     7  44    6.7068   457.9    6.708      40.298
2014   11       16     7  49    6.7117   457.9    6.713      40.344
2014   11       16     7  55    6.7166   458.0    6.718      40.389
2014   11       16     8   0    6.7215   458.1    6.722      40.433
2014   11       16     8   6    6.7264   458.1    6.727      40.476
2014   11       16     8  11    6.7313   458.2    6.731      40.519
2014   11       16     8  17    6.7362   458.3    6.735      40.561
2014   11       16     8  22    6.7410   458.3    6.739      40.602
2014   11       16     8  28    6.7459   458.4    6.743      40.643
2014   11       16     8  33    6.7508   458.5    6.747      40.682
2014   11       16     8  38    6.7557   458.6    6.750      40.722
2014   11       16     8  44    6.7605   458.6    6.753      40.760
2014   11       16     8  49    6.7654   458.7    6.757      40.798
2014   11       16     8  55    6.7703   458.8    6.760      40.836
2014   11       16     9   0    6.7751   458.8    6.763      40.873
2014   11       16     9   6    6.7800   458.9    6.766      40.909
2014   11       16     9  11    6.7848   459.0    6.769      40.945
2014   11       16     9  17    6.7897   459.0    6.771      40.980
2014   11       16     9  22    6.7946   459.1    6.774      41.015
2014   11       16     9  28    6.7994   459.2    6.777      41.050
2014   11       16     9  33    6.8043   459.2    6.779      41.084
2014   11       16     9  38    6.8091   459.3    6.782      41.118
2014   11       16     9  44    6.8140   459.4    6.784      41.151
2014   11       16     9  49    6.8189   459.5    6.787      41.184
2014   11       16     9  55    6.8236   459.5    6.789      41.217
2014   11       16    10   0    6.8285   459.6    6.791      41.249
2014   11       16    10   6    6.8333   459.7    6.794      41.281
2014   11       16    10  11    6.8381   459.7    6.796      41.313
2014   11       16    10  17    6.8429   459.8    6.798      41.344
2014   11       16    10  22    6.8477   459.9    6.800      41.376
2014   11       16    10  28    6.8525   460.0    6.802      41.407
2014   11       16    10  33    6.8572   460.0    6.804      41.438
2014   11       16    10  38    6.8620   460.1    6.806      41.468
2014   11       16    10  44    6.8667   460.2    6.808      41.498
2014   11       16    10  49    6.8715   460.3    6.810      41.528
2014   11       16    10  55    6.8762   460.3    6.812      41.558
2014   11       16    11   0    6.8809   460.4    6.813      41.588
2014   11       16    11   6    6.8856   460.5    6.815      41.617
2014   11       16    11  11    6.8903   460.5    6.817      41.647
2014   11       16    11  17    6.8950   460.6    6.819      41.676
2014   11       16    11  22    6.8997   460.7    6.821      41.705
2014   11       16    11  28    6.9043   460.8    6.822      41.734
2014   11       16    11  33    6.9090   460.8    6.824      41.763
2014   11       16    11  39    6.9137   460.9    6.826      41.792
2014   11       16    11  44    6.9183   461.0    6.828      41.821
2014   11       16    11  49    6.9230   461.0    6.830      41.850
2014   11       16    11  55    6.9277   461.1    6.832      41.879
2014   11       16    12   0    6.9323   461.2    6.834      41.908
2014   11       16    12   6    6.9371   461.2    6.836      41.938
2014   11       16    12  11    6.9418   461.3    6.838      41.968
2014   11       16    12  17    6.9464   461.4    6.841      41.999
2014   11       16    12  22    6.9512   461.4    6.843      42.029
2014   11       16    12  28    6.9560   461.5    6.846      42.060
2014   11       16    12  33    6.9607   461.6    6.849      42.092
2014   11       16    12  39    6.9656   461.7    6.852      42.125
2014   11       16    12  44    6.9704   461.7    6.855      42.158
2014   11       16    12  49    6.9752   461.8    6.858      42.193
2014   11       16    12  55    6.9800   461.9    6.861      42.229
2014   11       16    13   0    6.9849   462.0    6.864      42.265
2014   11       16    13   6    6.9899   462.1    6.868      42.303
2014   11       16    13  11    6.9948   462.1    6.871      42.342
2014   11       16    13  17    6.9997   462.2    6.875      42.382
2014   11       16    13  22    7.0047   462.3    6.879      42.423
2014   11       16    13  28    7.0097   462.4    6.882      42.464
2014   11       16    13  33    7.0146   462.5    6.886      42.506
2014   11       16    13  39    7.0197   462.6    6.890      42.548
2014   11       16    13  44    7.0245   462.7    6.893      42.592
2014   11       16    13  50    7.0296   462.8    6.897      42.637
2014   11       16    13  55    7.0345   462.9    6.901      42.684
2014   11       16    14   0    7.0394   463.0    6.904      42.730
2014   11       16    14   6    7.0445   463.1    6.908      42.777
2014   11       16    14  11    7.0493   463.2    6.911      42.825
2014   11       16    14  17    7.0543   463.3    6.914      42.872
2014   11       16    14  22    7.0592   463.4    6.917      42.920
2014   11       16    14  28    7.0640   463.5    6.920      42.967
2014   11       16    14  33    7.0689   463.6    6.923      43.015
2014   11       16    14  39    7.0736   463.7    6.926      43.062
2014   11       16    14  44    7.0784   463.8    6.928      43.110
2014   11       16    14  50    7.0832   463.9    6.931      43.157
2014   11       16    14  55    7.0880   464.0    6.933      43.204
2014   11       16    15   0    7.0927   464.1    6.935      43.251
2014   11       16    15   6    7.0974   464.2    6.938      43.296
2014   11       16    15  11    7.1021   464.3    6.940      43.342
2014   11       16    15  17    7.1068   464.4    6.942      43.386
2014   11       16    15  22    7.1116   464.6    6.944      43.430
2014   11       16    15  28    7.1162   464.7    6.946      43.474
2014   11       16    15  33    7.1209   464.8    6.947      43.517
2014   11       16    15  39    7.1256   464.9    6.949      43.560
2014   11       16    15  44    7.1303   465.0    6.951      43.602
2014   11       16    15  50    7.1349   465.1    6.953      43.644
2014   11       16    15  55    7.1396   465.2    6.955      43.685
2014   11       16    16   0    7.1442   465.3    6.957      43.727
2014   11       16    16   6    7.1488   465.4    6.958      43.767
2014   11       16    16  11    7.1534   465.5    6.960      43.808
2014   11       16    16  17    7.1582   465.6    6.962      43.848
2014   11       16    16  22    7.1628   465.7    6.965      43.889
2014   11       16    16  28    7.1674   465.9    6.967      43.928
2014   11       16    16  33    7.1720   466.0    6.969      43.968
2014   11       16    16  39    7.1768   466.1    6.971      44.008
2014   11       16    16  44    7.1813   466.2    6.974      44.048
2014   11       16    16  50    7.1861   466.3    6.976      44.088
2014   11       16    16  55    7.1907   466.4    6.979      44.129
2014   11       16    17   0    7.1954   466.5    6.982      44.170
2014   11       16    17   6    7.2003   466.6    6.985      44.211
2014   11       16    17  11    7.2050   466.7    6.988      44.252
2014   11       16    17  17    7.2098   466.9    6.991      44.293
2014   11       16    17  22    7.2146   467.0    6.995      44.335
2014   11       16    17  28    7.2194   467.1    6.998      44.379
2014   11       16    17  33    7.2242   467.2    7.002      44.424
2014   11       16    17  39    7.2290   467.4    7.005      44.470
2014   11       16    17  44    7.2337   467.5    7.009      44.518
2014   11       16    17  50    7.2385   467.6    7.012      44.567
2014   11       16    17  55    7.2434   467.7    7.015      44.617
2014   11       16    18   0    7.2481   467.9    7.018      44.667
2014   11       16    18   6    7.2529   468.0    7.022      44.718
2014   11       16    18  11    7.2575   468.2    7.024      44.769
2014   11       16    18  17    7.2622   468.3    7.027      44.821
2014   11       16    18  22    7.2669   468.4    7.030      44.874
2014   11       16    18  28    7.2715   468.6    7.032      44.927
2014   11       16    18  33    7.2760   468.7    7.034      44.980
2014   11       16    18  39    7.2806   468.9    7.036      45.032
2014   11       16    18  44    7.2850   469.0    7.037      45.085
2014   11       16    18  50    7.2895   469.2    7.039      45.136
2014   11       16    18  55    7.2939   469.3    7.040      45.188
2014   11       16    19   0    7.2983   469.4    7.041      45.238
2014   11       16    19   6    7.3026   469.6    7.042      45.289
2014   11       16    19  11    7.3069   469.7    7.043      45.339
2014   11       16    19  17    7.3113   469.9    7.044      45.389
2014   11       16    19  22    7.3156   470.0    7.044      45.438
2014   11       16    19  28    7.3199   470.2    7.045      45.487
2014   11       16    19  33    7.3242   470.3    7.045      45.536
2014   11       16    19  39    7.3285   470.4    7.046      45.586
2014   11       16    19  44    7.3328   470.6    7.046      45.635
2014   11       16    19  50    7.3372   470.7    7.047      45.684
2014   11       16    19  55    7.3415   470.9    7.047      45.733
2014   11       16    20   0    7.3459   471.0    7.048      45.782
2014   11       16    20   6    7.3502   471.1    7.048      45.831
2014   11       16    20  11    7.3547   471.3    7.049      45.881
2014   11       16    20  17    7.3591   471.4    7.049      45.932
2014   11       16    20  22    7.3635   471.6    7.050      45.983
2014   11       16    20  28    7.3680   471.7    7.050      46.035
2014   11       16    20  33    7.3725   471.9    7.051      46.087
2014   11       16    20  39    7.3770   472.0    7.051      46.140
2014   11       16    20  44    7.3815   472.2    7.051      46.193
2014   11       16    20  50    7.3860   472.3    7.051      46.246
2014   11       16    20  55    7.3905   472.5    7.051      46.299
2014   11       16    21   1    7.3950   472.6    7.051      46.351
2014   11       16    21   6    7.3995   472.8    7.051      46.404
2014   11       16    21  11    7.4040   472.9    7.051      46.457
2014   11       16    21  17    7.4084   473.1    7.051      46.509
2014   11       16    21  22    7.4129   473.3    7.050      46.561
2014   11       16    21  28    7.4173   473.4    7.050      46.613
2014   11       16    21  33    7.4217   473.6    7.049      46.664
2014   11       16    21  39    7.4261   473.7    7.048      46.714
2014   11       16    21  44    7.4305   473.9    7.047      46.763
2014   11       16    21  50    7.4348   474.0    7.047      46.812
2014   11       16    21  55    7.4392   474.2    7.046      46.860
2014   11       16    22   1    7.4435   474.3    7.045      46.907
2014   11       16    22   6    7.4477   474.5    7.044      46.954
2014   11       16    22  11    7.4520   474.6    7.043      47.000
2014   11       16    22  17    7.4562   474.8    7.042      47.046
2014   11       16    22  22    7.4604   474.9    7.041      47.091
2014   11       16    22  28    7.4645   475.1    7.040      47.136
2014   11       16    22  33    7.4686   475.2    7.039      47.180
2014   11       16    22  39    7.4727   475.4    7.038      47.223
2014   11       16    22  44    7.4768   475.5    7.037      47.266
2014   11       16    22  50    7.4809   475.7    7.036      47.309
2014   11       16    22  55    7.4848   475.8    7.035      47.351
2014   11       16    23   1    7.4889   476.0    7.034      47.392
2014   11       16    23   6    7.4928   476.1    7.033      47.433
2014   11       16    23  11    7.4967   476.3    7.032      47.474
2014   11       16    23  17    7.5006   476.4    7.031      47.514
2014   11       16    23  22    7.5046   476.6    7.030      47.553
2014   11       16    23  28    7.5083   476.7    7.030      47.593
2014   11       16    23  33    7.5121   476.9    7.029      47.631
2014   11       16    23  39    7.5160   477.0    7.029      47.670
2014   11       16    23  44    7.5198   477.1    7.029      47.708
2014   11       16    23  50    7.5235   477.3    7.029      47.746
2014   11       16    23  55    7.5273   477.4    7.029      47.784
2014   11       17     0   1    7.5311   477.6    7.029      47.822
2014   11       17     0   6    7.5351   477.7    7.030      47.861
2014   11       17     0  11    7.5389   477.8    7.031      47.900
2014   11       17     0  17    7.5426   478.0    7.032      47.939
2014   11       17     0  22    7.5466   478.1    7.033      47.979
2014   11       17     0  28    7.5504   478.2    7.035      48.019
2014   11       17     0  33    7.5543   478.4    7.037      48.060
2014   11       17     0  39    7.5585   478.5    7.040      48.103
2014   11       17     0  44    7.5623   478.6    7.042      48.148
2014   11       17     0  50    7.5664   478.8    7.045      48.195
2014   11       17     0  55    7.5705   478.9    7.048      48.244
2014   11       17     1   1    7.5747   479.1    7.052      48.295
2014   11       17     1   6    7.5791   479.2    7.056      48.348
2014   11       17     1  11    7.5834   479.4    7.059      48.403
2014   11       17     1  17    7.5877   479.5    7.063      48.462
2014   11       17     1  22    7.5921   479.7    7.067      48.522
2014   11       17     1  28    7.5964   479.9    7.071      48.586
2014   11       17     1  33    7.6009   480.1    7.075      48.651
2014   11       17     1  39    7.6053   480.2    7.079      48.719
2014   11       17     1  44    7.6095   480.4    7.082      48.788
2014   11       17     1  50    7.6141   480.6    7.085      48.859
2014   11       17     1  55    7.6184   480.8    7.088      48.930
2014   11       17     2   1    7.6227   481.0    7.091      49.001
2014   11       17     2   6    7.6269   481.2    7.093      49.072
2014   11       17     2  11    7.6310   481.4    7.095      49.142
2014   11       17     2  17    7.6351   481.6    7.097      49.213
2014   11       17     2  22    7.6393   481.8    7.098      49.283
2014   11       17     2  28    7.6431   482.0    7.099      49.354
2014   11       17     2  33    7.6471   482.3    7.100      49.422
2014   11       17     2  39    7.6510   482.5    7.100      49.489
2014   11       17     2  44    7.6548   482.7    7.100      49.555
2014   11       17     2  50    7.6585   482.9    7.100      49.620
2014   11       17     2  55    7.6622   483.1    7.099      49.684
2014   11       17     3   1    7.6659   483.3    7.098      49.747
2014   11       17     3   6    7.6695   483.5    7.098      49.809
2014   11       17     3  11    7.6730   483.7    7.096      49.871
2014   11       17     3  17    7.6766   484.0    7.095      49.931
2014   11       17     3  22    7.6803   484.2    7.094      49.991
2014   11       17     3  28    7.6837   484.4    7.093      50.051
2014   11       17     3  33    7.6873   484.6    7.091      50.109
2014   11       17     3  39    7.6910   484.8    7.090      50.168
2014   11       17     3  44    7.6945   485.0    7.088      50.226
2014   11       17     3  50    7.6982   485.2    7.086      50.284
2014   11       17     3  55    7.7018   485.5    7.085      50.341
2014   11       17     4   1    7.7053   485.7    7.083      50.398
2014   11       17     4   6    7.7090   485.9    7.081      50.455
2014   11       17     4  12    7.7127   486.1    7.080      50.512
2014   11       17     4  17    7.7163   486.3    7.078      50.569
2014   11       17     4  22    7.7200   486.5    7.076      50.626
2014   11       17     4  28    7.7238   486.8    7.075      50.683
2014   11       17     4  33    7.7275   487.0    7.073      50.740
2014   11       17     4  39    7.7313   487.2    7.072      50.798
2014   11       17     4  44    7.7352   487.4    7.071      50.855
2014   11       17     4  50    7.7391   487.6    7.070      50.913
2014   11       17     4  55    7.7430   487.8    7.069      50.972
2014   11       17     5   1    7.7470   488.0    7.068      51.032
2014   11       17     5   6    7.7509   488.3    7.067      51.095
2014   11       17     5  12    7.7548   488.5    7.067      51.159
2014   11       17     5  17    7.7588   488.7    7.066      51.225
2014   11       17     5  22    7.7627   489.0    7.066      51.292
2014   11       17     5  28    7.7666   489.2    7.065      51.361
2014   11       17     5  33    7.7704   489.4    7.064      51.431
2014   11       17     5  39    7.7743   489.7    7.064      51.502
2014   11       17     5  44    7.7780   489.9    7.063      51.573
2014   11       17     5  50    7.7816   490.2    7.062      51.645
2014   11       17     5  55    7.7852   490.4    7.061      51.716
2014   11       17     6   1    7.7887   490.6    7.060      51.788
2014   11       17     6   6    7.7921   490.9    7.058      51.860
2014   11       17     6  12    7.7954   491.1    7.057      51.931
2014   11       17     6  17    7.7987   491.4    7.055      52.000
2014   11       17     6  22    7.8019   491.6    7.053      52.068
2014   11       17     6  28    7.8050   491.9    7.051      52.135
2014   11       17     6  33    7.8080   492.1    7.049      52.201
2014   11       17     6  39    7.8110   492.4    7.046      52.265
2014   11       17     6  44    7.8140   492.6    7.044      52.328
2014   11       17     6  50    7.8169   492.9    7.041      52.391
2014   11       17     6  55    7.8198   493.1    7.038      52.452
2014   11       17     7   1    7.8226   493.3    7.035      52.511
2014   11       17     7   6    7.8254   493.6    7.032      52.571
2014   11       17     7  12    7.8282   493.8    7.029      52.628
2014   11       17     7  17    7.8310   494.1    7.026      52.685
2014   11       17     7  22    7.8338   494.3    7.023      52.741
2014   11       17     7  28    7.8366   494.6    7.020      52.797
2014   11       17     7  33    7.8393   494.8    7.016      52.851
2014   11       17     7  39    7.8421   495.0    7.013      52.905
2014   11       17     7  44    7.8449   495.3    7.010      52.957
2014   11       17     7  50    7.8477   495.5    7.006      53.010
2014   11       17     7  55    7.8505   495.7    7.003      53.061
2014   11       17     8   1    7.8533   496.0    6.999      53.112
2014   11       17     8   6    7.8562   496.2    6.996      53.163
2014   11       17     8  12    7.8591   496.5    6.993      53.214
2014   11       17     8  17    7.8620   496.7    6.989      53.264
2014   11       17     8  22    7.8651   496.9    6.986      53.314
2014   11       17     8  28    7.8680   497.2    6.983      53.363
2014   11       17     8  33    7.8711   497.4    6.979      53.413
2014   11       17     8  39    7.8742   497.6    6.976      53.464
2014   11       17     8  44    7.8773   497.9    6.973      53.515
2014   11       17     8  50    7.8805   498.1    6.970      53.568
2014   11       17     8  55    7.8836   498.4    6.967      53.622
2014   11       17     9   1    7.8868   498.7    6.963      53.676
2014   11       17     9   6    7.8899   498.9    6.960      53.732
2014   11       17     9  12    7.8930   499.2    6.956      53.788
2014   11       17     9  17    7.8960   499.5    6.952      53.844
2014   11       17     9  22    7.8989   499.7    6.948      53.900
2014   11       17     9  28    7.9019   500.0    6.944      53.956
2014   11       17     9  33    7.9047   500.3    6.940      54.012
2014   11       17     9  39    7.9073   500.6    6.935      54.068
2014   11       17     9  44    7.9101   500.9    6.930      54.124
2014   11       17     9  50    7.9124   501.1    6.925      54.180
2014   11       17     9  55    7.9150   501.4    6.920      54.235
2014   11       17    10   1    7.9173   501.7    6.914      54.288
2014   11       17    10   6    7.9194   502.0    6.909      54.340
2014   11       17    10  12    7.9215   502.3    6.903      54.392
2014   11       17    10  17    7.9235   502.6    6.897      54.443
2014   11       17    10  23    7.9254   502.9    6.891      54.492
2014   11       17    10  28    7.9275   503.2    6.884      54.542
2014   11       17    10  33    7.9294   503.5    6.878      54.590
2014   11       17    10  39    7.9311   503.8    6.872      54.638
2014   11       17    10  44    7.9328   504.0    6.865      54.686
2014   11       17    10  50    7.9343   504.3    6.859      54.733
2014   11       17    10  55    7.9359   504.6    6.853      54.779
2014   11       17    11   1    7.9377   504.9    6.846      54.825
2014   11       17    11   6    7.9393   505.2    6.840      54.872
2014   11       17    11  12    7.9408   505.5    6.834      54.917
2014   11       17    11  17    7.9421   505.8    6.828      54.964
2014   11       17    11  23    7.9438   506.1    6.821      55.010
2014   11       17    11  28    7.9453   506.4    6.815      55.056
2014   11       17    11  33    7.9468   506.6    6.809      55.102
2014   11       17    11  39    7.9480   506.9    6.804      55.149
2014   11       17    11  44    7.9498   507.2    6.798      55.196
2014   11       17    11  50    7.9509   507.5    6.793      55.245
2014   11       17    11  55    7.9528   507.8    6.788      55.294
2014   11       17    12   1    7.9539   508.1    6.783      55.344
2014   11       17    12   6    7.9558   508.4    6.779      55.395
2014   11       17    12  12    7.9573   508.6    6.774      55.449
2014   11       17    12  17    7.9588   508.9    6.771      55.504
2014   11       17    12  23    7.9599   509.2    6.767      55.563
2014   11       17    12  28    7.9614   509.5    6.764      55.626
2014   11       17    12  33    7.9628   509.8    6.761      55.693
2014   11       17    12  39    7.9641   510.1    6.758      55.764
2014   11       17    12  44    7.9654   510.5    6.755      55.840
2014   11       17    12  50    7.9670   510.8    6.752      55.918
2014   11       17    12  55    7.9677   511.1    6.749      55.999
2014   11       17    13   1    7.9691   511.4    6.746      56.082
2014   11       17    13   6    7.9700   511.8    6.743      56.166
2014   11       17    13  12    7.9707   512.1    6.739      56.252
2014   11       17    13  17    7.9713   512.5    6.735      56.338
2014   11       17    13  23    7.9717   512.8    6.730      56.424
2014   11       17    13  28    7.9715   513.2    6.725      56.510
2014   11       17    13  33    7.9716   513.5    6.720      56.593
2014   11       17    13  39    7.9719   513.9    6.714      56.674
2014   11       17    13  44    7.9713   514.2    6.708      56.752
2014   11       17    13  50    7.9710   514.6    6.701      56.827
2014   11       17    13  55    7.9710   514.9    6.694      56.900
2014   11       17    14   1    7.9700   515.3    6.686      56.970
2014   11       17    14   6    7.9699   515.6    6.679      57.038
2014   11       17    14  12    7.9692   515.9    6.671      57.105
2014   11       17    14  17    7.9680   516.3    6.662      57.169
2014   11       17    14  23    7.9677   516.6    6.654      57.232
2014   11       17    14  28    7.9664   516.9    6.645      57.294
2014   11       17    14  33    7.9660   517.2    6.636      57.354
2014   11       17    14  39    7.9652   517.6    6.627      57.413
2014   11       17    14  44    7.9638   517.9    6.618      57.471
2014   11       17    14  50    7.9629   518.2    6.609      57.528
2014   11       17    14  55    7.9620   518.5    6.599      57.583
2014   11       17    15   1    7.9611   518.8    6.590      57.637
2014   11       17    15   6    7.9607   519.2    6.580      57.690
2014   11       17    15  12    7.9593   519.5    6.569      57.742
2014   11       17    15  17    7.9588   519.8    6.559      57.792
2014   11       17    15  23    7.9575   520.1    6.549      57.841
2014   11       17    15  28    7.9566   520.4    6.538      57.888
2014   11       17    15  33    7.9562   520.8    6.527      57.934
2014   11       17    15  39    7.9548   521.1    6.516      57.977
2014   11       17    15  44    7.9543   521.4    6.505      58.019
2014   11       17    15  50    7.9529   521.7    6.494      58.059
2014   11       17    15  55    7.9520   522.1    6.482      58.098
2014   11       17    16   1    7.9514   522.4    6.471      58.135
2014   11       17    16   6    7.9504   522.7    6.459      58.169
2014   11       17    16  12    7.9492   523.0    6.447      58.202
2014   11       17    16  17    7.9480   523.4    6.435      58.233
2014   11       17    16  23    7.9467   523.7    6.422      58.262
2014   11       17    16  28    7.9450   524.0    6.410      58.290
2014   11       17    16  33    7.9436   524.4    6.397      58.317
2014   11       17    16  39    7.9425   524.7    6.384      58.343
2014   11       17    16  44    7.9408   525.1    6.371      58.369
2014   11       17    16  50    7.9391   525.5    6.357      58.395
2014   11       17    16  55    7.9367   525.9    6.343      58.419
2014   11       17    17   1    7.9345   526.2    6.329      58.441
2014   11       17    17   6    7.9325   526.6    6.314      58.460
2014   11       17    17  12    7.9299   527.0    6.299      58.476
2014   11       17    17  17    7.9271   527.3    6.284      58.489
2014   11       17    17  23    7.9242   527.7    6.269      58.501
2014   11       17    17  28    7.9207   528.0    6.254      58.511
2014   11       17    17  34    7.9176   528.3    6.238      58.520
2014   11       17    17  39    7.9144   528.7    6.223      58.526
2014   11       17    17  44    7.9116   529.0    6.208      58.532
2014   11       17    17  50    7.9084   529.3    6.194      58.536
2014   11       17    17  55    7.9047   529.6    6.179      58.537
2014   11       17    18   1    7.9019   529.8    6.166      58.536
2014   11       17    18   6    7.8983   530.1    6.152      58.535
2014   11       17    18  12    7.8952   530.3    6.139      58.536
2014   11       17    18  17    7.8926   530.6    6.126      58.538
2014   11       17    18  23    7.8892   530.8    6.114      58.542
2014   11       17    18  28    7.8868   531.1    6.102      58.548
2014   11       17    18  34    7.8835   531.3    6.090      58.557
2014   11       17    18  39    7.8813   531.6    6.078      58.570
2014   11       17    18  44    7.8781   531.9    6.067      58.587
2014   11       17    18  50    7.8759   532.2    6.056      58.606
2014   11       17    18  55    7.8732   532.4    6.046      58.628
2014   11       17    19   1    7.8701   532.7    6.035      58.652
2014   11       17    19   6    7.8674   533.0    6.025      58.678
2014   11       17    19  12    7.8647   533.3    6.015      58.705
2014   11       17    19  17    7.8623   533.6    6.005      58.733
2014   11       17    19  23    7.8590   533.9    5.995      58.762
2014   11       17    19  28    7.8566   534.2    5.985      58.791
2014   11       17    19  34    7.8532   534.5    5.975      58.821
2014   11       17    19  39    7.8506   534.8    5.966      58.851
2014   11       17    19  44    7.8470   535.1    5.956      58.882
2014   11       17    19  50    7.8437   535.4    5.947      58.912
2014   11       17    19  55    7.8409   535.7    5.938      58.944
2014   11       17    20   1    7.8374   536.0    5.929      58.977
2014   11       17    20   6    7.8334   536.3    5.919      59.010
2014   11       17    20  12    7.8297   536.6    5.910      59.045
2014   11       17    20  17    7.8259   536.9    5.901      59.082
2014   11       17    20  23    7.8225   537.2    5.892      59.119
2014   11       17    20  28    7.8181   537.5    5.883      59.156
2014   11       17    20  34    7.8145   537.8    5.873      59.194
2014   11       17    20  39    7.8099   538.1    5.864      59.231
2014   11       17    20  44    7.8061   538.4    5.854      59.268
2014   11       17    20  50    7.8018   538.7    5.844      59.305
2014   11       17    20  55    7.7969   539.0    5.834      59.340
2014   11       17    21   1    7.7924   539.3    5.824      59.373
2014   11       17    21   6    7.7878   539.6    5.814      59.405
2014   11       17    21  12    7.7832   539.9    5.803      59.434
2014   11       17    21  17    7.7785   540.2    5.793      59.462
2014   11       17    21  23    7.7738   540.5    5.782      59.489
2014   11       17    21  28    7.7690   540.8    5.772      59.514
2014   11       17    21  34    7.7647   541.0    5.761      59.538
2014   11       17    21  39    7.7599   541.3    5.750      59.562
2014   11       17    21  44    7.7551   541.6    5.740      59.584
2014   11       17    21  50    7.7503   541.9    5.729      59.606
2014   11       17    21  55    7.7450   542.1    5.718      59.627
2014   11       17    22   1    7.7406   542.4    5.707      59.647
2014   11       17    22   6    7.7357   542.7    5.697      59.666
2014   11       17    22  12    7.7309   542.9    5.686      59.684
2014   11       17    22  17    7.7255   543.2    5.675      59.701
2014   11       17    22  23    7.7207   543.5    5.664      59.717
2014   11       17    22  28    7.7158   543.7    5.653      59.731
2014   11       17    22  34    7.7114   544.0    5.642      59.744
2014   11       17    22  39    7.7066   544.2    5.632      59.756
2014   11       17    22  44    7.7017   544.5    5.621      59.766
2014   11       17    22  50    7.6965   544.7    5.610      59.774
2014   11       17    22  55    7.6917   545.0    5.599      59.780
2014   11       17    23   1    7.6870   545.2    5.588      59.784
2014   11       17    23   6    7.6827   545.4    5.578      59.788
2014   11       17    23  12    7.6775   545.6    5.567      59.790
2014   11       17    23  17    7.6733   545.9    5.557      59.790
2014   11       17    23  23    7.6686   546.1    5.546      59.789
2014   11       17    23  28    7.6639   546.3    5.536      59.786
2014   11       17    23  34    7.6592   546.5    5.526      59.783
2014   11       17    23  39    7.6541   546.8    5.515      59.779
2014   11       17    23  44    7.6499   547.0    5.505      59.775
2014   11       17    23  50    7.6448   547.2    5.496      59.772
2014   11       17    23  55    7.6402   547.5    5.486      59.769
2014   11       18     0   1    7.6355   547.7    5.475      59.768
2014   11       18     0   6    7.6308   548.0    5.465      59.769
2014   11       18     0  12    7.6264   548.3    5.455      59.767
2014   11       18     0  17    7.6215   548.5    5.444      59.764
2014   11       18     0  23    7.6166   548.8    5.433      59.759
2014   11       18     0  28    7.6112   549.0    5.422      59.753
2014   11       18     0  34    7.6062   549.3    5.411      59.746
2014   11       18     0  39    7.6014   549.5    5.401      59.737
2014   11       18     0  45    7.5963   549.7    5.390      59.727
2014   11       18     0  50    7.5912   550.0    5.379      59.715
2014   11       18     0  55    7.5861   550.2    5.369      59.703
2014   11       18     1   1    7.5810   550.4    5.358      59.691
2014   11       18     1   6    7.5757   550.6    5.348      59.676
2014   11       18     1  12    7.5710   550.7    5.338      59.658
2014   11       18     1  17    7.5658   550.9    5.329      59.639
2014   11       18     1  23    7.5610   551.0    5.320      59.622
2014   11       18     1  28    7.5564   551.2    5.311      59.606
2014   11       18     1  34    7.5517   551.3    5.302      59.593
2014   11       18     1  39    7.5469   551.5    5.293      59.582
2014   11       18     1  45    7.5425   551.6    5.285      59.574
2014   11       18     1  50    7.5379   551.8    5.277      59.571
2014   11       18     1  55    7.5335   552.0    5.269      59.570
2014   11       18     2   1    7.5290   552.1    5.261      59.573
2014   11       18     2   6    7.5246   552.3    5.254      59.579
2014   11       18     2  12    7.5204   552.5    5.246      59.586
2014   11       18     2  17    7.5158   552.7    5.238      59.594
2014   11       18     2  23    7.5114   552.9    5.231      59.603
2014   11       18     2  28    7.5069   553.1    5.223      59.613
2014   11       18     2  34    7.5023   553.3    5.215      59.623
2014   11       18     2  39    7.4978   553.5    5.207      59.631
2014   11       18     2  45    7.4933   553.7    5.199      59.639
2014   11       18     2  50    7.4885   553.9    5.192      59.647
2014   11       18     2  55    7.4837   554.1    5.183      59.654
2014   11       18     3   1    7.4790   554.4    5.175      59.659
2014   11       18     3   6    7.4741   554.6    5.167      59.662
2014   11       18     3  12    7.4690   554.8    5.159      59.664
2014   11       18     3  17    7.4640   555.0    5.151      59.664
2014   11       18     3  23    7.4589   555.1    5.142      59.663
2014   11       18     3  28    7.4537   555.3    5.134      59.661
2014   11       18     3  34    7.4485   555.5    5.126      59.659
2014   11       18     3  39    7.4432   555.7    5.117      59.655
2014   11       18     3  45    7.4380   555.9    5.109      59.652
2014   11       18     3  50    7.4327   556.1    5.101      59.648
2014   11       18     3  55    7.4274   556.3    5.093      59.644
2014   11       18     4   1    7.4221   556.4    5.084      59.640
2014   11       18     4   6    7.4168   556.6    5.076      59.636
2014   11       18     4  12    7.4116   556.8    5.068      59.632
2014   11       18     4  17    7.4063   557.0    5.060      59.629
2014   11       18     4  23    7.4011   557.1    5.053      59.626
2014   11       18     4  28    7.3959   557.3    5.045      59.623
2014   11       18     4  34    7.3908   557.5    5.037      59.620
2014   11       18     4  39    7.3857   557.7    5.030      59.618
2014   11       18     4  45    7.3805   557.9    5.022      59.615
2014   11       18     4  50    7.3754   558.1    5.015      59.612
2014   11       18     4  55    7.3704   558.2    5.007      59.608
2014   11       18     5   1    7.3653   558.4    5.000      59.604
2014   11       18     5   6    7.3602   558.6    4.992      59.600
2014   11       18     5  12    7.3553   558.8    4.985      59.595
2014   11       18     5  17    7.3504   559.0    4.978      59.589
2014   11       18     5  23    7.3453   559.2    4.971      59.583
2014   11       18     5  28    7.3405   559.3    4.963      59.575
2014   11       18     5  34    7.3355   559.5    4.956      59.567
2014   11       18     5  39    7.3308   559.7    4.949      59.558
2014   11       18     5  45    7.3258   559.8    4.942      59.548
2014   11       18     5  50    7.3212   560.0    4.935      59.538
2014   11       18     5  55    7.3165   560.1    4.928      59.527
2014   11       18     6   1    7.3117   560.3    4.921      59.516
2014   11       18     6   6    7.3073   560.4    4.914      59.505
2014   11       18     6  12    7.3027   560.6    4.907      59.493
2014   11       18     6  17    7.2983   560.7    4.901      59.481
2014   11       18     6  23    7.2937   560.9    4.895      59.470
2014   11       18     6  28    7.2894   561.0    4.888      59.459
2014   11       18     6  34    7.2852   561.1    4.882      59.448
2014   11       18     6  39    7.2812   561.2    4.876      59.438
2014   11       18     6  45    7.2771   561.3    4.871      59.429
2014   11       18     6  50    7.2729   561.5    4.865      59.421
2014   11       18     6  56    7.2691   561.6    4.860      59.413
2014   11       18     7   1    7.2652   561.7    4.855      59.407
2014   11       18     7   6    7.2614   561.8    4.851      59.402
2014   11       18     7  12    7.2577   561.9    4.846      59.399
2014   11       18     7  17    7.2538   562.0    4.842      59.397
2014   11       18     7  23    7.2504   562.1    4.838      59.396
2014   11       18     7  28    7.2468   562.2    4.834      59.397
2014   11       18     7  34    7.2433   562.3    4.830      59.398
2014   11       18     7  39    7.2400   562.4    4.827      59.401
2014   11       18     7  45    7.2367   562.5    4.823      59.404
2014   11       18     7  50    7.2336   562.6    4.819      59.409
2014   11       18     7  56    7.2304   562.8    4.816      59.414
2014   11       18     8   1    7.2275   562.9    4.812      59.419
2014   11       18     8   6    7.2243   563.0    4.809      59.425
2014   11       18     8  12    7.2213   563.1    4.805      59.431
2014   11       18     8  17    7.2179   563.2    4.802      59.438
2014   11       18     8  23    7.2150   563.4    4.798      59.445
2014   11       18     8  28    7.2117   563.5    4.794      59.453
2014   11       18     8  34    7.2088   563.6    4.790      59.459
2014   11       18     8  39    7.2055   563.8    4.787      59.466
2014   11       18     8  45    7.2023   563.9    4.783      59.473
2014   11       18     8  50    7.1989   564.0    4.779      59.479
2014   11       18     8  56    7.1955   564.1    4.775      59.485
2014   11       18     9   1    7.1922   564.3    4.771      59.491
2014   11       18     9   6    7.1888   564.4    4.767      59.497
2014   11       18     9  12    7.1854   564.6    4.762      59.502
2014   11       18     9  17    7.1822   564.7    4.758      59.508
2014   11       18     9  23    7.1787   564.8    4.754      59.513
2014   11       18     9  28    7.1750   565.0    4.750      59.518
2014   11       18     9  34    7.1714   565.1    4.745      59.523
2014   11       18     9  39    7.1681   565.3    4.741      59.527
2014   11       18     9  45    7.1645   565.4    4.736      59.531
2014   11       18     9  50    7.1609   565.5    4.732      59.535
2014   11       18     9  56    7.1570   565.7    4.728      59.539
2014   11       18    10   1    7.1534   565.8    4.723      59.542
2014   11       18    10   7    7.1497   566.0    4.718      59.545
2014   11       18    10  12    7.1462   566.1    4.714      59.548
2014   11       18    10  17    7.1425   566.2    4.709      59.551
2014   11       18    10  23    7.1387   566.4    4.705      59.553
2014   11       18    10  28    7.1351   566.5    4.700      59.555
2014   11       18    10  34    7.1312   566.7    4.695      59.557
2014   11       18    10  39    7.1275   566.8    4.690      59.558
2014   11       18    10  45    7.1238   566.9    4.686      59.560
2014   11       18    10  50    7.1200   567.1    4.681      59.561
2014   11       18    10  56    7.1165   567.2    4.676      59.561
2014   11       18    11   1    7.1126   567.3    4.671      59.562
2014   11       18    11   7    7.1091   567.5    4.667      59.562
2014   11       18    11  12    7.1053   567.6    4.662      59.563
2014   11       18    11  17    7.1015   567.8    4.657      59.563
2014   11       18    11  23    7.0978   567.9    4.652      59.563
2014   11       18    11  28    7.0941   568.0    4.648      59.562
2014   11       18    11  34    7.0904   568.2    4.643      59.562
2014   11       18    11  39    7.0869   568.3    4.638      59.562
2014   11       18    11  45    7.0833   568.4    4.633      59.562
2014   11       18    11  50    7.0795   568.6    4.629      59.562
2014   11       18    11  56    7.0759   568.7    4.624      59.561
2014   11       18    12   1    7.0724   568.8    4.619      59.561
2014   11       18    12   7    7.0690   568.9    4.615      59.561
2014   11       18    12  12    7.0653   569.1    4.610      59.561
2014   11       18    12  17    7.0620   569.2    4.606      59.561
2014   11       18    12  23    7.0585   569.3    4.601      59.561
2014   11       18    12  28    7.0549   569.5    4.597      59.562
2014   11       18    12  34    7.0514   569.6    4.592      59.562
2014   11       18    12  39    7.0482   569.7    4.588      59.563
2014   11       18    12  45    7.0449   569.8    4.584      59.563
2014   11       18    12  50    7.0415   570.0    4.580      59.564
2014   11       18    12  56    7.0382   570.1    4.575      59.565
2014   11       18    13   1    7.0348   570.2    4.571      59.567
2014   11       18    13   7    7.0316   570.3    4.567      59.568
2014   11       18    13  12    7.0284   570.5    4.563      59.570
2014   11       18    13  17    7.0252   570.6    4.559      59.572
2014   11       18    13  23    7.0223   570.7    4.555      59.574
2014   11       18    13  28    7.0192   570.8    4.551      59.576
2014   11       18    13  34    7.0161   570.9    4.547      59.578
2014   11       18    13  39    7.0129   571.1    4.544      59.581
2014   11       18    13  45    7.0099   571.2    4.540      59.584
2014   11       18    13  50    7.0070   571.3    4.536      59.587
2014   11       18    13  56    7.0040   571.4    4.532      59.590
2014   11       18    14   1    7.0013   571.5    4.529      59.593
2014   11       18    14   7    6.9983   571.6    4.525      59.597
2014   11       18    14  12    6.9955   571.8    4.522      59.601
2014   11       18    14  17    6.9928   571.9    4.518      59.605
2014   11       18    14  23    6.9899   572.0    4.515      59.609
2014   11       18    14  28    6.9871   572.1    4.511      59.614
2014   11       18    14  34    6.9844   572.2    4.508      59.618
2014   11       18    14  39    6.9816   572.3    4.504      59.623
2014   11       18    14  45    6.9789   572.5    4.501      59.629
2014   11       18    14  50    6.9762   572.6    4.498      59.634
2014   11       18    14  56    6.9736   572.7    4.494      59.639
2014   11       18    15   1    6.9710   572.8    4.491      59.645
2014   11       18    15   7    6.9684   572.9    4.488      59.651
2014   11       18    15  12    6.9656   573.0    4.484      59.657
2014   11       18    15  17    6.9630   573.1    4.481      59.664
2014   11       18    15  23    6.9603   573.2    4.478      59.670
2014   11       18    15  28    6.9577   573.3    4.475      59.678
2014   11       18    15  34    6.9550   573.5    4.472      59.685
2014   11       18    15  39    6.9524   573.6    4.469      59.693
2014   11       18    15  45    6.9497   573.7    4.465      59.700
2014   11       18    15  50    6.9471   573.8    4.462      59.709
2014   11       18    15  56    6.9445   573.9    4.459      59.717
2014   11       18    16   1    6.9419   574.0    4.456      59.726
2014   11       18    16   7    6.9392   574.1    4.453      59.735
2014   11       18    16  12    6.9365   574.2    4.450      59.744
2014   11       18    16  18    6.9338   574.4    4.447      59.753
2014   11       18    16  23    6.9312   574.5    4.444      59.763
2014   11       18    16  28    6.9284   574.6    4.441      59.773
2014   11       18    16  34    6.9257   574.7    4.438      59.783
2014   11       18    16  39    6.9230   574.8    4.435      59.794
2014   11       18    16  45    6.9202   574.9    4.432      59.804
2014   11       18    16  50    6.9176   575.1    4.429      59.815
2014   11       18    16  56    6.9149   575.2    4.426      59.826
2014   11       18    17   1    6.9121   575.3    4.423      59.837
2014   11       18    17   7    6.9094   575.4    4.420      59.847
2014   11       18    17  12    6.9067   575.5    4.417      59.858
2014   11       18    17  18    6.9039   575.6    4.414      59.868
2014   11       18    17  23    6.9010   575.8    4.411      59.879
2014   11       18    17  28    6.8982   575.9    4.407      59.888
2014   11       18    17  34    6.8955   576.0    4.404      59.898
2014   11       18    17  39    6.8928   576.1    4.401      59.907
2014   11       18    17  45    6.8900   576.2    4.397      59.916
2014   11       18    17  50    6.8871   576.4    4.394      59.925
2014   11       18    17  56    6.8843   576.5    4.390      59.933
2014   11       18    18   1    6.8816   576.6    4.387      59.940
2014   11       18    18   7    6.8787   576.7    4.384      59.948
2014   11       18    18  12    6.8759   576.8    4.380      59.955
2014   11       18    18  18    6.8731   576.9    4.376      59.961
2014   11       18    18  23    6.8705   577.0    4.373      59.968
2014   11       18    18  28    6.8677   577.2    4.369      59.974
2014   11       18    18  34    6.8648   577.3    4.366      59.980
2014   11       18    18  39    6.8622   577.4    4.362      59.986
2014   11       18    18  45    6.8594   577.5    4.359      59.992
2014   11       18    18  50    6.8568   577.6    4.355      59.997
2014   11       18    18  56    6.8540   577.7    4.352      60.002
2014   11       18    19   1    6.8514   577.8    4.348      60.008
2014   11       18    19   7    6.8487   577.9    4.345      60.013
2014   11       18    19  12    6.8460   578.1    4.341      60.019
2014   11       18    19  18    6.8435   578.2    4.338      60.024
2014   11       18    19  23    6.8408   578.3    4.334      60.030
2014   11       18    19  28    6.8382   578.4    4.331      60.036
2014   11       18    19  34    6.8356   578.5    4.327      60.041
2014   11       18    19  39    6.8331   578.6    4.324      60.047
2014   11       18    19  45    6.8307   578.7    4.321      60.054
2014   11       18    19  50    6.8281   578.8    4.318      60.060
2014   11       18    19  56    6.8257   579.0    4.314      60.067
2014   11       18    20   1    6.8231   579.1    4.311      60.074
2014   11       18    20   7    6.8206   579.2    4.308      60.081
2014   11       18    20  12    6.8182   579.3    4.305      60.088
2014   11       18    20  18    6.8159   579.4    4.302      60.095
2014   11       18    20  23    6.8135   579.5    4.299      60.103
2014   11       18    20  28    6.8111   579.6    4.296      60.111
2014   11       18    20  34    6.8087   579.7    4.293      60.119
2014   11       18    20  39    6.8063   579.9    4.290      60.127
2014   11       18    20  45    6.8040   580.0    4.287      60.136
2014   11       18    20  50    6.8016   580.1    4.284      60.144
2014   11       18    20  56    6.7992   580.2    4.282      60.153
2014   11       18    21   1    6.7969   580.3    4.279      60.162
2014   11       18    21   7    6.7946   580.4    4.276      60.171
2014   11       18    21  12    6.7923   580.5    4.273      60.180
2014   11       18    21  18    6.7901   580.6    4.271      60.190
2014   11       18    21  23    6.7878   580.7    4.268      60.199
2014   11       18    21  28    6.7855   580.8    4.265      60.209
2014   11       18    21  34    6.7832   581.0    4.263      60.218
2014   11       18    21  39    6.7809   581.1    4.260      60.228
2014   11       18    21  45    6.7786   581.2    4.257      60.238
2014   11       18    21  50    6.7764   581.3    4.254      60.248
2014   11       18    21  56    6.7741   581.4    4.252      60.258
2014   11       18    22   1    6.7719   581.5    4.249      60.268
2014   11       18    22   7    6.7695   581.6    4.246      60.278
2014   11       18    22  12    6.7674   581.7    4.244      60.288
2014   11       18    22  18    6.7651   581.8    4.241      60.298
2014   11       18    22  23    6.7629   581.9    4.238      60.308
2014   11       18    22  28    6.7607   582.0    4.236      60.319
2014   11       18    22  34    6.7583   582.1    4.233      60.329
2014   11       18    22  39    6.7561   582.3    4.230      60.340
2014   11       18    22  45    6.7540   582.4    4.228      60.350
2014   11       18    22  50    6.7517   582.5    4.225      60.361
2014   11       18    22  56    6.7495   582.6    4.222      60.373
2014   11       18    23   1    6.7473   582.7    4.220      60.384
2014   11       18    23   7    6.7451   582.8    4.217      60.395
2014   11       18    23  12    6.7428   582.9    4.214      60.407
2014   11       18    23  18    6.7406   583.0    4.212      60.419
2014   11       18    23  23    6.7385   583.1    4.209      60.431
2014   11       18    23  29    6.7363   583.2    4.206      60.443
2014   11       18    23  34    6.7341   583.3    4.204      60.456
2014   11       18    23  39    6.7320   583.4    4.201      60.468
2014   11       18    23  45    6.7298   583.5    4.198      60.482
2014   11       18    23  50    6.7276   583.6    4.196      60.495
2014   11       18    23  56    6.7253   583.7    4.193      60.509
2014   11       19     0   1    6.7232   583.8    4.191      60.523
2014   11       19     0   7    6.7210   584.0    4.188      60.537
2014   11       19     0  12    6.7188   584.1    4.185      60.552
2014   11       19     0  18    6.7166   584.2    4.183      60.567
2014   11       19     0  23    6.7145   584.3    4.180      60.582
2014   11       19     0  29    6.7123   584.4    4.178      60.597
2014   11       19     0  34    6.7101   584.5    4.175      60.612
2014   11       19     0  39    6.7080   584.6    4.172      60.627
2014   11       19     0  45    6.7057   584.7    4.170      60.642
2014   11       19     0  50    6.7035   584.8    4.167      60.657
2014   11       19     0  56    6.7013   585.0    4.164      60.672
2014   11       19     1   1    6.6990   585.1    4.161      60.686
2014   11       19     1   7    6.6968   585.2    4.159      60.700
2014   11       19     1  12    6.6945   585.3    4.156      60.714
2014   11       19     1  18    6.6923   585.4    4.153      60.728
2014   11       19     1  23    6.6901   585.5    4.150      60.742
2014   11       19     1  29    6.6879   585.6    4.147      60.755
2014   11       19     1  34    6.6856   585.7    4.144      60.768
2014   11       19     1  39    6.6834   585.8    4.142      60.781
2014   11       19     1  45    6.6811   586.0    4.139      60.793
2014   11       19     1  50    6.6789   586.1    4.136      60.806
2014   11       19     1  56    6.6766   586.2    4.133      60.818
2014   11       19     2   1    6.6744   586.3    4.130      60.830
2014   11       19     2   7    6.6723   586.4    4.127      60.843
2014   11       19     2  12    6.6700   586.5    4.124      60.855
2014   11       19     2  18    6.6679   586.6    4.121      60.867
2014   11       19     2  23    6.6657   586.7    4.119      60.879
2014   11       19     2  29    6.6635   586.8    4.116      60.892
2014   11       19     2  34    6.6613   586.9    4.113      60.904
2014   11       19     2  39    6.6593   587.0    4.110      60.917
2014   11       19     2  45    6.6571   587.2    4.108      60.930
2014   11       19     2  50    6.6550   587.3    4.105      60.943
2014   11       19     2  56    6.6528   587.4    4.102      60.956
2014   11       19     3   1    6.6508   587.5    4.100      60.969
2014   11       19     3   7    6.6487   587.6    4.097      60.983
2014   11       19     3  12    6.6466   587.7    4.095      60.996
2014   11       19     3  18    6.6445   587.8    4.092      61.010
2014   11       19     3  23    6.6425   587.9    4.090      61.024
2014   11       19     3  29    6.6403   588.0    4.087      61.038
2014   11       19     3  34    6.6383   588.1    4.085      61.053
2014   11       19     3  39    6.6363   588.3    4.082      61.067
2014   11       19     3  45    6.6342   588.4    4.080      61.082
2014   11       19     3  50    6.6322   588.5    4.077      61.096
2014   11       19     3  56    6.6302   588.6    4.075      61.111
2014   11       19     4   1    6.6281   588.7    4.073      61.126
2014   11       19     4   7    6.6261   588.8    4.070      61.141
2014   11       19     4  12    6.6241   588.9    4.068      61.156
2014   11       19     4  18    6.6221   589.0    4.066      61.171
2014   11       19     4  23    6.6201   589.1    4.064      61.186
2014   11       19     4  29    6.6181   589.3    4.061      61.201
2014   11       19     4  34    6.6162   589.4    4.059      61.217
2014   11       19     4  39    6.6143   589.5    4.057      61.233
2014   11       19     4  45    6.6123   589.6    4.055      61.249
2014   11       19     4  50    6.6104   589.7    4.053      61.266
2014   11       19     4  56    6.6084   589.8    4.050      61.283
2014   11       19     5   1    6.6065   589.9    4.048      61.301
2014   11       19     5   7    6.6047   590.1    4.046      61.319
2014   11       19     5  12    6.6026   590.2    4.044      61.337
2014   11       19     5  18    6.6008   590.3    4.041      61.355
2014   11       19     5  23    6.5987   590.4    4.039      61.372
2014   11       19     5  29    6.5967   590.5    4.036      61.390
2014   11       19     5  34    6.5948   590.7    4.034      61.407
2014   11       19     5  40    6.5927   590.8    4.031      61.424
2014   11       19     5  45    6.5907   590.9    4.029      61.440
2014   11       19     5  50    6.5887   591.0    4.026      61.456
2014   11       19     5  56    6.5866   591.1    4.023      61.471
2014   11       19     6   1    6.5845   591.3    4.020      61.486
2014   11       19     6   7    6.5824   591.4    4.018      61.500
2014   11       19     6  12    6.5804   591.5    4.015      61.514
2014   11       19     6  18    6.5783   591.6    4.012      61.528
2014   11       19     6  23    6.5762   591.7    4.009      61.542
2014   11       19     6  29    6.5742   591.9    4.006      61.555
2014   11       19     6  34    6.5720   592.0    4.003      61.568
2014   11       19     6  40    6.5700   592.1    4.000      61.581
2014   11       19     6  45    6.5678   592.2    3.997      61.594
2014   11       19     6  50    6.5657   592.3    3.994      61.606
2014   11       19     6  56    6.5636   592.4    3.991      61.619
2014   11       19     7   1    6.5615   592.6    3.988      61.632
2014   11       19     7   7    6.5594   592.7    3.985      61.644
2014   11       19     7  12    6.5573   592.8    3.982      61.656
2014   11       19     7  18    6.5551   592.9    3.979      61.669
2014   11       19     7  23    6.5530   593.0    3.977      61.681
2014   11       19     7  29    6.5509   593.1    3.974      61.694
2014   11       19     7  34    6.5488   593.3    3.971      61.706
2014   11       19     7  40    6.5466   593.4    3.968      61.719
2014   11       19     7  45    6.5445   593.5    3.965      61.732
2014   11       19     7  50    6.5424   593.6    3.962      61.745
2014   11       19     7  56    6.5403   593.7    3.959      61.758
2014   11       19     8   1    6.5381   593.9    3.956      61.771
2014   11       19     8   7    6.5360   594.0    3.953      61.784
2014   11       19     8  12    6.5338   594.1    3.950      61.797
2014   11       19     8  18    6.5317   594.2    3.947      61.810
2014   11       19     8  23    6.5295   594.3    3.944      61.824
2014   11       19     8  29    6.5273   594.5    3.941      61.837
2014   11       19     8  34    6.5252   594.6    3.938      61.851
2014   11       19     8  40    6.5230   594.7    3.935      61.864
2014   11       19     8  45    6.5208   594.8    3.932      61.878
2014   11       19     8  50    6.5186   594.9    3.929      61.892
2014   11       19     8  56    6.5164   595.0    3.926      61.906
2014   11       19     9   1    6.5142   595.2    3.923      61.920
2014   11       19     9   7    6.5120   595.3    3.921      61.934
2014   11       19     9  12    6.5098   595.4    3.918      61.949
2014   11       19     9  18    6.5076   595.5    3.915      61.964
2014   11       19     9  23    6.5054   595.6    3.912      61.978
2014   11       19     9  29    6.5032   595.8    3.909      61.993
2014   11       19     9  34    6.5010   595.9    3.906      62.009
2014   11       19     9  40    6.4988   596.0    3.903      62.024
2014   11       19     9  45    6.4966   596.1    3.901      62.040
2014   11       19     9  50    6.4944   596.2    3.898      62.056
2014   11       19     9  56    6.4922   596.4    3.895      62.072
2014   11       19    10   1    6.4900   596.5    3.892      62.089
2014   11       19    10   7    6.4878   596.6    3.890      62.105
2014   11       19    10  12    6.4856   596.7    3.887      62.122
2014   11       19    10  18    6.4834   596.8    3.884      62.139
2014   11       19    10  23    6.4812   597.0    3.882      62.157
2014   11       19    10  29    6.4790   597.1    3.879      62.174
2014   11       19    10  34    6.4768   597.2    3.877      62.192
2014   11       19    10  40    6.4746   597.3    3.874      62.209
2014   11       19    10  45    6.4725   597.4    3.871      62.227
2014   11       19    10  50    6.4703   597.6    3.869      62.245
2014   11       19    10  56    6.4681   597.7    3.866      62.263
2014   11       19    11   1    6.4659   597.8    3.864      62.281
2014   11       19    11   7    6.4637   597.9    3.862      62.299
2014   11       19    11  12    6.4615   598.0    3.859      62.316
2014   11       19    11  18    6.4594   598.2    3.857      62.334
2014   11       19    11  23    6.4572   598.3    3.855      62.351
2014   11       19    11  29    6.4551   598.4    3.852      62.368
2014   11       19    11  34    6.4529   598.5    3.850      62.386
2014   11       19    11  40    6.4508   598.6    3.848      62.404
2014   11       19    11  45    6.4487   598.8    3.846      62.422
2014   11       19    11  51    6.4465   598.9    3.843      62.441
2014   11       19    11  56    6.4444   599.0    3.841      62.459
2014   11       19    12   1    6.4423   599.2    3.839      62.478
2014   11       19    12   7    6.4401   599.3    3.837      62.498
2014   11       19    12  12    6.4379   599.4    3.834      62.517
2014   11       19    12  18    6.4358   599.5    3.832      62.536
2014   11       19    12  23    6.4335   599.7    3.830      62.555
2014   11       19    12  29    6.4313   599.8    3.827      62.574
2014   11       19    12  34    6.4291   600.0    3.825      62.592
2014   11       19    12  40    6.4268   600.1    3.822      62.609
2014   11       19    12  45    6.4245   600.2    3.819      62.626
2014   11       19    12  51    6.4221   600.4    3.816      62.642
2014   11       19    12  56    6.4198   600.5    3.814      62.658
2014   11       19    13   1    6.4174   600.6    3.811      62.673
2014   11       19    13   7    6.4150   600.8    3.808      62.687
2014   11       19    13  12    6.4126   600.9    3.805      62.701
2014   11       19    13  18    6.4102   601.0    3.802      62.714
2014   11       19    13  23    6.4078   601.2    3.798      62.726
2014   11       19    13  29    6.4054   601.3    3.795      62.738
2014   11       19    13  34    6.4029   601.4    3.792      62.749
2014   11       19    13  40    6.4004   601.6    3.789      62.760
2014   11       19    13  45    6.3980   601.7    3.786      62.770
2014   11       19    13  51    6.3955   601.8    3.782      62.780
2014   11       19    13  56    6.3930   602.0    3.779      62.789
2014   11       19    14   1    6.3905   602.1    3.775      62.798
2014   11       19    14   7    6.3880   602.2    3.772      62.806
2014   11       19    14  12    6.3855   602.4    3.769      62.814
2014   11       19    14  18    6.3830   602.5    3.765      62.822
2014   11       19    14  23    6.3804   602.6    3.762      62.829
2014   11       19    14  29    6.3779   602.7    3.758      62.836
2014   11       19    14  34    6.3753   602.9    3.755      62.843
2014   11       19    14  40    6.3728   603.0    3.751      62.849
2014   11       19    14  45    6.3702   603.1    3.748      62.856
2014   11       19    14  51    6.3676   603.3    3.744      62.862
2014   11       19    14  56    6.3651   603.4    3.741      62.868
2014   11       19    15   2    6.3625   603.5    3.737      62.874
2014   11       19    15   7    6.3599   603.6    3.734      62.880
2014   11       19    15  12    6.3573   603.8    3.730      62.886
2014   11       19    15  18    6.3547   603.9    3.727      62.891
2014   11       19    15  23    6.3521   604.0    3.723      62.897
2014   11       19    15  29    6.3494   604.2    3.720      62.903
2014   11       19    15  34    6.3468   604.3    3.716      62.909
2014   11       19    15  40    6.3442   604.4    3.713      62.915
2014   11       19    15  45    6.3415   604.5    3.709      62.922
2014   11       19    15  51    6.3388   604.7    3.706      62.928
2014   11       19    15  56    6.3362   604.8    3.702      62.935
2014   11       19    16   2    6.3335   604.9    3.699      62.942
2014   11       19    16   7    6.3309   605.0    3.695      62.949
2014   11       19    16  12    6.3281   605.1    3.692      62.957
2014   11       19    16  18    6.3255   605.3    3.689      62.964
2014   11       19    16  23    6.3228   605.4    3.685      62.972
2014   11       19    16  29    6.3201   605.5    3.682      62.981
2014   11       19    16  34    6.3174   605.6    3.679      62.990
2014   11       19    16  40    6.3147   605.8    3.675      62.999
2014   11       19    16  45    6.3119   605.9    3.672      63.008
2014   11       19    16  51    6.3092   606.0    3.669      63.018
2014   11       19    16  56    6.3065   606.1    3.666      63.029
2014   11       19    17   2    6.3038   606.2    3.663      63.039
2014   11       19    17   7    6.3011   606.4    3.660      63.050
2014   11       19    17  12    6.2983   606.5    3.657      63.061
2014   11       19    17  18    6.2956   606.6    3.654      63.073
2014   11       19    17  23    6.2929   606.7    3.651      63.085
2014   11       19    17  29    6.2901   606.8    3.648      63.098
2014   11       19    17  34    6.2874   607.0    3.645      63.111
2014   11       19    17  40    6.2847   607.1    3.642      63.124
2014   11       19    17  45    6.2819   607.2    3.639      63.137
2014   11       19    17  51    6.2792   607.3    3.636      63.151
2014   11       19    17  56    6.2765   607.4    3.634      63.165
2014   11       19    18   2    6.2739   607.6    3.631      63.179
2014   11       19    18   7    6.2712   607.7    3.628      63.193
2014   11       19    18  12    6.2684   607.8    3.626      63.208
2014   11       19    18  18    6.2658   607.9    3.623      63.223
2014   11       19    18  23    6.2631   608.0    3.621      63.237
2014   11       19    18  29    6.2604   608.2    3.618      63.252
2014   11       19    18  34    6.2578   608.3    3.616      63.266
2014   11       19    18  40    6.2551   608.4    3.613      63.281
2014   11       19    18  45    6.2525   608.5    3.611      63.296
2014   11       19    18  51    6.2499   608.6    3.609      63.311
2014   11       19    18  56    6.2472   608.8    3.606      63.326
2014   11       19    19   2    6.2446   608.9    3.604      63.340
2014   11       19    19   7    6.2419   609.0    3.602      63.355
2014   11       19    19  12    6.2393   609.1    3.599      63.370
2014   11       19    19  18    6.2366   609.3    3.597      63.384
2014   11       19    19  23    6.2340   609.4    3.594      63.398
2014   11       19    19  29    6.2313   609.5    3.592      63.411
2014   11       19    19  34    6.2286   609.6    3.590      63.424
2014   11       19    19  40    6.2258   609.8    3.587      63.437
2014   11       19    19  45    6.2231   609.9    3.585      63.449
2014   11       19    19  51    6.2203   610.0    3.582      63.461
2014   11       19    19  56    6.2175   610.1    3.579      63.471
2014   11       19    20   2    6.2147   610.3    3.577      63.482
2014   11       19    20   7    6.2119   610.4    3.574      63.491
2014   11       19    20  12    6.2091   610.5    3.571      63.500
2014   11       19    20  18    6.2062   610.6    3.569      63.508
2014   11       19    20  23    6.2033   610.7    3.566      63.516
2014   11       19    20  29    6.2004   610.9    3.563      63.524
2014   11       19    20  34    6.1975   611.0    3.560      63.530
2014   11       19    20  40    6.1946   611.1    3.557      63.537
2014   11       19    20  45    6.1917   611.2    3.554      63.542
2014   11       19    20  51    6.1887   611.3    3.551      63.548
2014   11       19    20  56    6.1858   611.4    3.548      63.553
2014   11       19    21   2    6.1828   611.6    3.546      63.557
2014   11       19    21   7    6.1798   611.7    3.543      63.562
2014   11       19    21  13    6.1768   611.8    3.540      63.566
2014   11       19    21  18    6.1738   611.9    3.537      63.570
2014   11       19    21  23    6.1708   612.0    3.534      63.574
2014   11       19    21  29    6.1677   612.1    3.531      63.578
2014   11       19    21  34    6.1647   612.2    3.528      63.581
2014   11       19    21  40    6.1616   612.4    3.525      63.585
2014   11       19    21  45    6.1586   612.5    3.521      63.589
2014   11       19    21  51    6.1555   612.6    3.518      63.593
2014   11       19    21  56    6.1524   612.7    3.515      63.597
2014   11       19    22   2    6.1493   612.8    3.512      63.601
2014   11       19    22   7    6.1462   612.9    3.509      63.606
2014   11       19    22  13    6.1430   613.0    3.506      63.610
2014   11       19    22  18    6.1399   613.1    3.503      63.615
2014   11       19    22  23    6.1368   613.2    3.500      63.620
2014   11       19    22  29    6.1336   613.3    3.497      63.626
2014   11       19    22  34    6.1305   613.4    3.494      63.631
2014   11       19    22  40    6.1273   613.5    3.491      63.637
2014   11       19    22  45    6.1241   613.6    3.488      63.643
2014   11       19    22  51    6.1209   613.7    3.486      63.649
2014   11       19    22  56    6.1177   613.8    3.483      63.656
2014   11       19    23   2    6.1145   613.9    3.480      63.663
2014   11       19    23   7    6.1113   614.0    3.477      63.669
2014   11       19    23  13    6.1081   614.1    3.474      63.676
2014   11       19    23  18    6.1049   614.2    3.471      63.682
2014   11       19    23  23    6.1017   614.3    3.468      63.688
2014   11       19    23  29    6.0985   614.4    3.465      63.694
2014   11       19    23  34    6.0953   614.5    3.462      63.699
2014   11       19    23  40    6.0921   614.6    3.459      63.704
2014   11       19    23  45    6.0889   614.7    3.456      63.709
2014   11       19    23  51    6.0857   614.8    3.454      63.713
2014   11       19    23  56    6.0825   614.9    3.451      63.717
2014   11       20     0   2    6.0794   615.0    3.448      63.720
