year    month   day   hour  minute  B_enl V_enl   n_enl       T_enl
[year] [month] [day] [hour][minute] [nT]  [km/s]  [cm-3]      [kK]
2014   11        4     0   5    6.4225   404.9    8.485      41.544
2014   11        4     0  10    6.4255   404.9    8.488      41.559
2014   11        4     0  16    6.4287   405.0    8.491      41.574
2014   11        4     0  21    6.4317   405.0    8.494      41.590
2014   11        4     0  26    6.4349   405.0    8.497      41.605
2014   11        4     0  32    6.4379   405.0    8.500      41.620
2014   11        4     0  37    6.4411   405.0    8.504      41.636
2014   11        4     0  43    6.4443   405.0    8.507      41.652
2014   11        4     0  48    6.4475   405.1    8.511      41.668
2014   11        4     0  54    6.4509   405.1    8.515      41.684
2014   11        4     0  59    6.4542   405.1    8.519      41.702
2014   11        4     1   4    6.4575   405.1    8.523      41.719
2014   11        4     1  10    6.4608   405.1    8.527      41.737
2014   11        4     1  15    6.4642   405.2    8.531      41.756
2014   11        4     1  21    6.4676   405.2    8.535      41.775
2014   11        4     1  26    6.4710   405.2    8.540      41.795
2014   11        4     1  32    6.4745   405.3    8.544      41.815
2014   11        4     1  37    6.4781   405.3    8.549      41.836
2014   11        4     1  43    6.4817   405.3    8.554      41.857
2014   11        4     1  48    6.4852   405.3    8.559      41.878
2014   11        4     1  54    6.4886   405.4    8.564      41.900
2014   11        4     1  59    6.4921   405.4    8.569      41.923
2014   11        4     2   4    6.4956   405.5    8.574      41.947
2014   11        4     2  10    6.4991   405.5    8.580      41.971
2014   11        4     2  15    6.5027   405.5    8.585      41.996
2014   11        4     2  21    6.5060   405.6    8.591      42.021
2014   11        4     2  26    6.5096   405.6    8.596      42.047
2014   11        4     2  32    6.5129   405.7    8.602      42.074
2014   11        4     2  37    6.5163   405.7    8.607      42.100
2014   11        4     2  43    6.5197   405.8    8.612      42.127
2014   11        4     2  48    6.5230   405.8    8.618      42.154
2014   11        4     2  54    6.5263   405.9    8.623      42.181
2014   11        4     2  59    6.5297   405.9    8.629      42.208
2014   11        4     3   5    6.5330   406.0    8.634      42.235
2014   11        4     3  10    6.5362   406.0    8.639      42.263
2014   11        4     3  15    6.5393   406.1    8.644      42.290
2014   11        4     3  21    6.5423   406.1    8.649      42.318
2014   11        4     3  26    6.5454   406.2    8.655      42.344
2014   11        4     3  32    6.5485   406.2    8.660      42.371
2014   11        4     3  37    6.5518   406.3    8.665      42.398
2014   11        4     3  43    6.5547   406.3    8.669      42.424
2014   11        4     3  48    6.5577   406.4    8.674      42.450
2014   11        4     3  54    6.5607   406.4    8.679      42.477
2014   11        4     3  59    6.5639   406.5    8.684      42.502
2014   11        4     4   5    6.5668   406.5    8.689      42.528
2014   11        4     4  10    6.5699   406.6    8.694      42.554
2014   11        4     4  16    6.5728   406.6    8.699      42.580
2014   11        4     4  21    6.5757   406.7    8.704      42.605
2014   11        4     4  27    6.5787   406.7    8.709      42.631
2014   11        4     4  32    6.5817   406.8    8.714      42.656
2014   11        4     4  38    6.5847   406.9    8.719      42.681
2014   11        4     4  43    6.5875   406.9    8.724      42.706
2014   11        4     4  48    6.5905   407.0    8.729      42.732
2014   11        4     4  54    6.5933   407.0    8.734      42.758
2014   11        4     4  59    6.5963   407.1    8.739      42.783
2014   11        4     5   5    6.5991   407.1    8.744      42.810
2014   11        4     5  10    6.6019   407.2    8.749      42.836
2014   11        4     5  16    6.6047   407.3    8.754      42.862
2014   11        4     5  21    6.6075   407.3    8.759      42.889
2014   11        4     5  27    6.6103   407.4    8.764      42.915
2014   11        4     5  32    6.6130   407.4    8.769      42.942
2014   11        4     5  38    6.6158   407.5    8.773      42.968
2014   11        4     5  43    6.6186   407.5    8.778      42.995
2014   11        4     5  49    6.6212   407.6    8.782      43.021
2014   11        4     5  54    6.6240   407.6    8.787      43.048
2014   11        4     6   0    6.6267   407.7    8.791      43.074
2014   11        4     6   5    6.6294   407.8    8.795      43.100
2014   11        4     6  10    6.6320   407.8    8.799      43.126
2014   11        4     6  16    6.6348   407.9    8.803      43.152
2014   11        4     6  21    6.6374   407.9    8.807      43.177
2014   11        4     6  27    6.6401   408.0    8.811      43.202
2014   11        4     6  32    6.6428   408.0    8.814      43.226
2014   11        4     6  38    6.6455   408.1    8.817      43.249
2014   11        4     6  43    6.6481   408.1    8.821      43.272
2014   11        4     6  49    6.6508   408.2    8.824      43.295
2014   11        4     6  54    6.6535   408.3    8.826      43.317
2014   11        4     7   0    6.6562   408.3    8.829      43.339
2014   11        4     7   5    6.6589   408.4    8.832      43.360
2014   11        4     7  11    6.6615   408.4    8.834      43.381
2014   11        4     7  16    6.6642   408.5    8.836      43.401
2014   11        4     7  21    6.6669   408.5    8.838      43.421
2014   11        4     7  27    6.6696   408.6    8.840      43.440
2014   11        4     7  32    6.6723   408.6    8.842      43.459
2014   11        4     7  38    6.6750   408.7    8.844      43.477
2014   11        4     7  43    6.6777   408.7    8.846      43.495
2014   11        4     7  49    6.6804   408.8    8.847      43.512
2014   11        4     7  54    6.6831   408.8    8.848      43.529
2014   11        4     7  59    6.6858   408.9    8.849      43.546
2014   11        4     8   5    6.6884   408.9    8.851      43.562
2014   11        4     8  10    6.6912   409.0    8.852      43.578
2014   11        4     8  16    6.6939   409.1    8.852      43.593
2014   11        4     8  21    6.6965   409.1    8.853      43.608
2014   11        4     8  27    6.6992   409.2    8.854      43.623
2014   11        4     8  32    6.7019   409.2    8.854      43.637
2014   11        4     8  38    6.7046   409.3    8.855      43.651
2014   11        4     8  43    6.7072   409.3    8.855      43.665
2014   11        4     8  48    6.7099   409.4    8.855      43.678
2014   11        4     8  54    6.7125   409.4    8.856      43.692
2014   11        4     8  59    6.7152   409.5    8.856      43.704
2014   11        4     9   5    6.7177   409.5    8.856      43.717
2014   11        4     9  10    6.7204   409.6    8.856      43.729
2014   11        4     9  16    6.7230   409.6    8.856      43.741
2014   11        4     9  21    6.7256   409.7    8.855      43.753
2014   11        4     9  27    6.7282   409.7    8.855      43.765
2014   11        4     9  32    6.7308   409.8    8.855      43.776
2014   11        4     9  38    6.7334   409.8    8.855      43.787
2014   11        4     9  43    6.7360   409.9    8.854      43.798
2014   11        4     9  49    6.7386   410.0    8.854      43.809
2014   11        4     9  54    6.7411   410.0    8.854      43.820
2014   11        4     9  59    6.7437   410.1    8.853      43.831
2014   11        4    10   5    6.7463   410.1    8.853      43.841
2014   11        4    10  10    6.7488   410.2    8.853      43.852
2014   11        4    10  16    6.7514   410.2    8.853      43.862
2014   11        4    10  21    6.7539   410.3    8.852      43.873
2014   11        4    10  27    6.7565   410.3    8.852      43.883
2014   11        4    10  32    6.7591   410.4    8.852      43.894
2014   11        4    10  38    6.7616   410.4    8.852      43.905
2014   11        4    10  43    6.7642   410.5    8.852      43.915
2014   11        4    10  49    6.7668   410.5    8.852      43.926
2014   11        4    10  54    6.7693   410.6    8.852      43.937
2014   11        4    11   0    6.7720   410.6    8.852      43.948
2014   11        4    11   5    6.7745   410.7    8.853      43.959
2014   11        4    11  10    6.7770   410.7    8.853      43.970
2014   11        4    11  16    6.7796   410.8    8.854      43.982
2014   11        4    11  21    6.7822   410.9    8.855      43.993
2014   11        4    11  27    6.7848   410.9    8.855      44.005
2014   11        4    11  32    6.7874   411.0    8.856      44.017
2014   11        4    11  38    6.7899   411.0    8.857      44.030
2014   11        4    11  43    6.7925   411.1    8.859      44.043
2014   11        4    11  49    6.7951   411.1    8.860      44.056
2014   11        4    11  54    6.7977   411.2    8.862      44.069
2014   11        4    12   0    6.8004   411.3    8.863      44.082
2014   11        4    12   5    6.8028   411.3    8.865      44.096
2014   11        4    12  11    6.8054   411.4    8.867      44.111
2014   11        4    12  16    6.8080   411.4    8.869      44.126
2014   11        4    12  22    6.8105   411.5    8.872      44.141
2014   11        4    12  27    6.8131   411.6    8.874      44.157
2014   11        4    12  33    6.8155   411.6    8.876      44.174
2014   11        4    12  38    6.8182   411.7    8.879      44.192
2014   11        4    12  43    6.8206   411.7    8.882      44.210
2014   11        4    12  49    6.8231   411.8    8.884      44.228
2014   11        4    12  54    6.8256   411.9    8.887      44.247
2014   11        4    13   0    6.8282   411.9    8.890      44.266
2014   11        4    13   5    6.8307   412.0    8.893      44.286
2014   11        4    13  11    6.8331   412.1    8.897      44.306
2014   11        4    13  16    6.8356   412.1    8.900      44.327
2014   11        4    13  22    6.8381   412.2    8.903      44.348
2014   11        4    13  27    6.8407   412.3    8.906      44.370
2014   11        4    13  33    6.8433   412.3    8.910      44.392
2014   11        4    13  38    6.8458   412.4    8.913      44.414
2014   11        4    13  44    6.8484   412.5    8.917      44.436
2014   11        4    13  49    6.8509   412.5    8.920      44.459
2014   11        4    13  55    6.8535   412.6    8.924      44.482
2014   11        4    14   0    6.8561   412.7    8.927      44.505
2014   11        4    14   5    6.8588   412.8    8.931      44.528
2014   11        4    14  11    6.8616   412.8    8.935      44.552
2014   11        4    14  16    6.8643   412.9    8.939      44.575
2014   11        4    14  22    6.8670   413.0    8.943      44.600
2014   11        4    14  27    6.8697   413.1    8.946      44.625
2014   11        4    14  33    6.8724   413.1    8.950      44.650
2014   11        4    14  38    6.8751   413.2    8.954      44.676
2014   11        4    14  44    6.8780   413.3    8.957      44.702
2014   11        4    14  49    6.8807   413.4    8.961      44.729
2014   11        4    14  54    6.8835   413.5    8.965      44.755
2014   11        4    15   0    6.8861   413.6    8.968      44.782
2014   11        4    15   5    6.8890   413.6    8.971      44.809
2014   11        4    15  11    6.8916   413.7    8.975      44.835
2014   11        4    15  16    6.8944   413.8    8.978      44.862
2014   11        4    15  22    6.8970   413.9    8.981      44.888
2014   11        4    15  27    6.8997   414.0    8.984      44.915
2014   11        4    15  32    6.9023   414.1    8.986      44.941
2014   11        4    15  38    6.9050   414.2    8.989      44.967
2014   11        4    15  43    6.9076   414.2    8.991      44.993
2014   11        4    15  49    6.9102   414.3    8.994      45.018
2014   11        4    15  54    6.9128   414.4    8.996      45.043
2014   11        4    16   0    6.9153   414.5    8.998      45.068
2014   11        4    16   5    6.9178   414.6    9.000      45.092
2014   11        4    16  11    6.9204   414.7    9.002      45.115
2014   11        4    16  16    6.9229   414.8    9.004      45.138
2014   11        4    16  22    6.9253   414.9    9.006      45.161
2014   11        4    16  27    6.9278   414.9    9.007      45.184
2014   11        4    16  32    6.9302   415.0    9.009      45.207
2014   11        4    16  38    6.9326   415.1    9.010      45.230
2014   11        4    16  43    6.9351   415.2    9.012      45.253
2014   11        4    16  49    6.9374   415.3    9.013      45.275
2014   11        4    16  54    6.9398   415.4    9.014      45.298
2014   11        4    17   0    6.9422   415.5    9.015      45.320
2014   11        4    17   5    6.9445   415.6    9.016      45.342
2014   11        4    17  11    6.9469   415.7    9.016      45.364
2014   11        4    17  16    6.9492   415.7    9.017      45.386
2014   11        4    17  22    6.9516   415.8    9.017      45.407
2014   11        4    17  27    6.9539   415.9    9.017      45.428
2014   11        4    17  33    6.9562   416.0    9.017      45.449
2014   11        4    17  38    6.9585   416.1    9.017      45.470
2014   11        4    17  44    6.9608   416.2    9.017      45.490
2014   11        4    17  49    6.9631   416.3    9.016      45.510
2014   11        4    17  54    6.9653   416.4    9.016      45.530
2014   11        4    18   0    6.9676   416.5    9.015      45.549
2014   11        4    18   5    6.9699   416.5    9.014      45.567
2014   11        4    18  11    6.9722   416.6    9.013      45.585
2014   11        4    18  16    6.9744   416.7    9.012      45.602
2014   11        4    18  22    6.9766   416.8    9.010      45.619
2014   11        4    18  27    6.9788   416.9    9.009      45.636
2014   11        4    18  33    6.9810   417.0    9.007      45.651
2014   11        4    18  38    6.9832   417.1    9.005      45.667
2014   11        4    18  44    6.9855   417.2    9.004      45.682
2014   11        4    18  49    6.9876   417.3    9.002      45.696
2014   11        4    18  55    6.9898   417.3    9.000      45.710
2014   11        4    19   0    6.9919   417.4    8.998      45.724
2014   11        4    19   5    6.9941   417.5    8.995      45.737
2014   11        4    19  11    6.9962   417.6    8.993      45.749
2014   11        4    19  16    6.9984   417.7    8.991      45.761
2014   11        4    19  22    7.0005   417.8    8.988      45.773
2014   11        4    19  27    7.0026   417.9    8.986      45.784
2014   11        4    19  33    7.0047   418.0    8.983      45.795
2014   11        4    19  38    7.0068   418.1    8.981      45.806
2014   11        4    19  44    7.0089   418.1    8.978      45.816
2014   11        4    19  49    7.0110   418.2    8.975      45.826
2014   11        4    19  55    7.0130   418.3    8.973      45.836
2014   11        4    20   0    7.0151   418.4    8.970      45.846
2014   11        4    20   6    7.0172   418.5    8.967      45.855
2014   11        4    20  11    7.0193   418.6    8.965      45.864
2014   11        4    20  17    7.0213   418.7    8.962      45.873
2014   11        4    20  22    7.0234   418.8    8.960      45.882
2014   11        4    20  28    7.0255   418.8    8.957      45.891
2014   11        4    20  33    7.0276   418.9    8.955      45.899
2014   11        4    20  39    7.0297   419.0    8.952      45.908
2014   11        4    20  44    7.0318   419.1    8.950      45.917
2014   11        4    20  49    7.0340   419.2    8.948      45.926
2014   11        4    20  55    7.0361   419.3    8.946      45.935
2014   11        4    21   0    7.0382   419.4    8.944      45.945
2014   11        4    21   6    7.0404   419.5    8.942      45.954
2014   11        4    21  11    7.0426   419.5    8.940      45.964
2014   11        4    21  17    7.0448   419.6    8.939      45.975
2014   11        4    21  22    7.0470   419.7    8.937      45.985
2014   11        4    21  28    7.0492   419.8    8.936      45.996
2014   11        4    21  33    7.0515   419.9    8.935      46.008
2014   11        4    21  39    7.0538   420.0    8.934      46.019
2014   11        4    21  44    7.0560   420.1    8.934      46.032
2014   11        4    21  49    7.0583   420.2    8.933      46.045
2014   11        4    21  55    7.0606   420.3    8.933      46.059
2014   11        4    22   0    7.0630   420.4    8.933      46.074
2014   11        4    22   6    7.0652   420.5    8.932      46.090
2014   11        4    22  11    7.0674   420.6    8.932      46.106
2014   11        4    22  17    7.0698   420.7    8.932      46.123
2014   11        4    22  22    7.0720   420.8    8.932      46.140
2014   11        4    22  28    7.0743   420.9    8.933      46.158
2014   11        4    22  33    7.0765   421.0    8.933      46.176
2014   11        4    22  38    7.0788   421.1    8.933      46.194
2014   11        4    22  44    7.0810   421.2    8.933      46.213
2014   11        4    22  49    7.0831   421.3    8.934      46.232
2014   11        4    22  55    7.0853   421.4    8.934      46.251
2014   11        4    23   0    7.0874   421.6    8.935      46.271
2014   11        4    23   6    7.0897   421.7    8.935      46.291
2014   11        4    23  11    7.0917   421.8    8.936      46.311
2014   11        4    23  17    7.0940   421.9    8.936      46.330
2014   11        4    23  22    7.0961   422.0    8.937      46.350
2014   11        4    23  27    7.0980   422.1    8.938      46.370
2014   11        4    23  33    7.1001   422.2    8.939      46.390
2014   11        4    23  38    7.1023   422.3    8.940      46.410
2014   11        4    23  44    7.1043   422.4    8.941      46.431
2014   11        4    23  49    7.1064   422.5    8.942      46.452
2014   11        4    23  55    7.1086   422.6    8.944      46.474
2014   11        5     0   0    7.1107   422.7    8.945      46.497
2014   11        5     0   6    7.1128   422.8    8.947      46.520
2014   11        5     0  11    7.1150   422.9    8.948      46.544
2014   11        5     0  17    7.1171   423.0    8.950      46.568
2014   11        5     0  22    7.1192   423.1    8.952      46.593
2014   11        5     0  28    7.1215   423.2    8.954      46.618
2014   11        5     0  33    7.1236   423.4    8.956      46.645
2014   11        5     0  39    7.1259   423.5    8.958      46.672
2014   11        5     0  44    7.1283   423.6    8.961      46.701
2014   11        5     0  49    7.1307   423.7    8.963      46.730
2014   11        5     0  55    7.1330   423.8    8.965      46.760
2014   11        5     1   0    7.1354   423.9    8.968      46.791
2014   11        5     1   6    7.1379   424.0    8.970      46.821
2014   11        5     1  11    7.1403   424.1    8.973      46.853
2014   11        5     1  17    7.1428   424.3    8.975      46.884
2014   11        5     1  22    7.1453   424.4    8.978      46.915
2014   11        5     1  28    7.1478   424.5    8.980      46.947
2014   11        5     1  33    7.1503   424.6    8.982      46.980
2014   11        5     1  39    7.1528   424.8    8.985      47.014
2014   11        5     1  44    7.1554   424.9    8.987      47.048
2014   11        5     1  50    7.1579   425.0    8.989      47.082
2014   11        5     1  55    7.1604   425.1    8.991      47.117
2014   11        5     2   0    7.1629   425.3    8.992      47.151
2014   11        5     2   6    7.1653   425.4    8.994      47.184
2014   11        5     2  11    7.1677   425.5    8.995      47.218
2014   11        5     2  17    7.1701   425.7    8.996      47.251
2014   11        5     2  22    7.1725   425.8    8.996      47.283
2014   11        5     2  28    7.1748   425.9    8.996      47.314
2014   11        5     2  33    7.1771   426.1    8.997      47.345
2014   11        5     2  39    7.1793   426.2    8.996      47.376
2014   11        5     2  44    7.1815   426.3    8.996      47.406
2014   11        5     2  50    7.1837   426.5    8.995      47.435
2014   11        5     2  55    7.1859   426.6    8.994      47.463
2014   11        5     3   1    7.1880   426.7    8.992      47.490
2014   11        5     3   6    7.1901   426.9    8.991      47.516
2014   11        5     3  12    7.1921   427.0    8.989      47.541
2014   11        5     3  17    7.1942   427.1    8.987      47.564
2014   11        5     3  23    7.1962   427.3    8.985      47.587
2014   11        5     3  28    7.1982   427.4    8.982      47.609
2014   11        5     3  34    7.2002   427.5    8.979      47.630
2014   11        5     3  39    7.2022   427.7    8.977      47.651
2014   11        5     3  44    7.2042   427.8    8.973      47.670
2014   11        5     3  50    7.2061   427.9    8.970      47.688
2014   11        5     3  55    7.2081   428.1    8.967      47.706
2014   11        5     4   1    7.2100   428.2    8.964      47.724
2014   11        5     4   6    7.2119   428.3    8.960      47.740
2014   11        5     4  12    7.2138   428.5    8.956      47.756
2014   11        5     4  17    7.2157   428.6    8.952      47.771
2014   11        5     4  23    7.2175   428.8    8.949      47.786
2014   11        5     4  28    7.2194   428.9    8.945      47.800
2014   11        5     4  34    7.2213   429.0    8.941      47.814
2014   11        5     4  39    7.2232   429.2    8.937      47.827
2014   11        5     4  45    7.2250   429.3    8.932      47.840
2014   11        5     4  50    7.2268   429.4    8.928      47.853
2014   11        5     4  56    7.2286   429.6    8.924      47.865
2014   11        5     5   1    7.2304   429.7    8.920      47.877
2014   11        5     5   7    7.2322   429.8    8.915      47.888
2014   11        5     5  12    7.2340   430.0    8.911      47.899
2014   11        5     5  18    7.2358   430.1    8.907      47.910
2014   11        5     5  23    7.2376   430.2    8.902      47.921
2014   11        5     5  28    7.2393   430.4    8.898      47.931
2014   11        5     5  34    7.2411   430.5    8.894      47.942
2014   11        5     5  39    7.2428   430.6    8.890      47.952
2014   11        5     5  45    7.2446   430.8    8.885      47.962
2014   11        5     5  50    7.2463   430.9    8.881      47.971
2014   11        5     5  56    7.2480   431.0    8.877      47.981
2014   11        5     6   1    7.2498   431.2    8.873      47.991
2014   11        5     6   7    7.2515   431.3    8.868      48.001
2014   11        5     6  12    7.2532   431.4    8.864      48.010
2014   11        5     6  18    7.2550   431.6    8.860      48.020
2014   11        5     6  23    7.2567   431.7    8.856      48.029
2014   11        5     6  29    7.2584   431.8    8.853      48.039
2014   11        5     6  34    7.2601   432.0    8.849      48.048
2014   11        5     6  40    7.2619   432.1    8.845      48.058
2014   11        5     6  45    7.2636   432.2    8.841      48.068
2014   11        5     6  51    7.2654   432.4    8.838      48.078
2014   11        5     6  56    7.2671   432.5    8.835      48.088
2014   11        5     7   1    7.2689   432.6    8.831      48.099
2014   11        5     7   7    7.2707   432.8    8.828      48.109
2014   11        5     7  12    7.2726   432.9    8.825      48.120
2014   11        5     7  18    7.2744   433.0    8.823      48.132
2014   11        5     7  23    7.2763   433.2    8.820      48.144
2014   11        5     7  29    7.2782   433.3    8.818      48.156
2014   11        5     7  34    7.2801   433.4    8.815      48.169
2014   11        5     7  40    7.2820   433.6    8.813      48.182
2014   11        5     7  45    7.2840   433.7    8.812      48.195
2014   11        5     7  51    7.2860   433.8    8.810      48.210
2014   11        5     7  56    7.2881   434.0    8.809      48.225
2014   11        5     8   2    7.2903   434.1    8.808      48.241
2014   11        5     8   7    7.2924   434.2    8.807      48.259
2014   11        5     8  13    7.2945   434.4    8.806      48.277
2014   11        5     8  18    7.2968   434.5    8.806      48.296
2014   11        5     8  23    7.2990   434.7    8.805      48.316
2014   11        5     8  29    7.3014   434.8    8.805      48.336
2014   11        5     8  34    7.3037   434.9    8.806      48.357
2014   11        5     8  40    7.3062   435.1    8.806      48.379
2014   11        5     8  45    7.3085   435.2    8.806      48.402
2014   11        5     8  51    7.3110   435.4    8.807      48.426
2014   11        5     8  56    7.3134   435.5    8.808      48.451
2014   11        5     9   2    7.3158   435.6    8.808      48.477
2014   11        5     9   7    7.3183   435.8    8.809      48.503
2014   11        5     9  13    7.3207   435.9    8.810      48.531
2014   11        5     9  18    7.3231   436.1    8.810      48.559
2014   11        5     9  24    7.3256   436.2    8.811      48.587
2014   11        5     9  29    7.3280   436.4    8.812      48.615
2014   11        5     9  35    7.3303   436.5    8.812      48.644
2014   11        5     9  40    7.3328   436.7    8.813      48.672
2014   11        5     9  46    7.3352   436.8    8.813      48.700
2014   11        5     9  51    7.3375   437.0    8.813      48.729
2014   11        5     9  56    7.3398   437.2    8.813      48.757
2014   11        5    10   2    7.3421   437.3    8.813      48.785
2014   11        5    10   7    7.3445   437.5    8.813      48.814
2014   11        5    10  13    7.3469   437.6    8.813      48.842
2014   11        5    10  18    7.3492   437.8    8.813      48.869
2014   11        5    10  24    7.3516   437.9    8.812      48.896
2014   11        5    10  29    7.3539   438.1    8.812      48.923
2014   11        5    10  35    7.3563   438.2    8.812      48.950
2014   11        5    10  40    7.3586   438.4    8.811      48.976
2014   11        5    10  46    7.3610   438.6    8.811      49.003
2014   11        5    10  51    7.3633   438.7    8.810      49.030
2014   11        5    10  57    7.3657   438.9    8.809      49.057
2014   11        5    11   2    7.3680   439.1    8.808      49.084
2014   11        5    11   8    7.3703   439.2    8.807      49.112
2014   11        5    11  13    7.3727   439.4    8.806      49.139
2014   11        5    11  19    7.3750   439.6    8.805      49.166
2014   11        5    11  24    7.3773   439.7    8.803      49.193
2014   11        5    11  30    7.3796   439.9    8.802      49.220
2014   11        5    11  35    7.3818   440.1    8.800      49.247
2014   11        5    11  40    7.3840   440.2    8.798      49.273
2014   11        5    11  46    7.3862   440.4    8.795      49.299
2014   11        5    11  51    7.3883   440.6    8.793      49.324
2014   11        5    11  57    7.3904   440.8    8.790      49.349
2014   11        5    12   2    7.3925   440.9    8.787      49.373
2014   11        5    12   8    7.3945   441.1    8.784      49.397
2014   11        5    12  13    7.3965   441.3    8.780      49.419
2014   11        5    12  19    7.3985   441.5    8.777      49.442
2014   11        5    12  24    7.4004   441.6    8.773      49.463
2014   11        5    12  30    7.4022   441.8    8.769      49.484
2014   11        5    12  35    7.4041   442.0    8.765      49.504
2014   11        5    12  41    7.4059   442.2    8.761      49.524
2014   11        5    12  46    7.4077   442.3    8.756      49.542
2014   11        5    12  52    7.4095   442.5    8.752      49.561
2014   11        5    12  57    7.4112   442.7    8.747      49.579
2014   11        5    13   3    7.4130   442.9    8.742      49.596
2014   11        5    13   8    7.4147   443.0    8.737      49.613
2014   11        5    13  13    7.4164   443.2    8.732      49.630
2014   11        5    13  19    7.4181   443.4    8.727      49.646
2014   11        5    13  24    7.4197   443.6    8.721      49.661
2014   11        5    13  30    7.4214   443.7    8.716      49.677
2014   11        5    13  35    7.4230   443.9    8.710      49.692
2014   11        5    13  41    7.4247   444.1    8.705      49.706
2014   11        5    13  46    7.4263   444.3    8.699      49.721
2014   11        5    13  52    7.4280   444.4    8.694      49.734
2014   11        5    13  57    7.4296   444.6    8.688      49.748
2014   11        5    14   3    7.4313   444.8    8.682      49.762
2014   11        5    14   8    7.4329   445.0    8.676      49.775
2014   11        5    14  14    7.4345   445.2    8.670      49.788
2014   11        5    14  19    7.4361   445.3    8.664      49.800
2014   11        5    14  25    7.4378   445.5    8.658      49.813
2014   11        5    14  30    7.4394   445.7    8.652      49.825
2014   11        5    14  35    7.4411   445.9    8.647      49.837
2014   11        5    14  41    7.4427   446.1    8.640      49.848
2014   11        5    14  46    7.4444   446.2    8.634      49.860
2014   11        5    14  52    7.4460   446.4    8.628      49.871
2014   11        5    14  57    7.4477   446.6    8.622      49.883
2014   11        5    15   3    7.4494   446.8    8.616      49.894
2014   11        5    15   8    7.4511   447.0    8.610      49.905
2014   11        5    15  14    7.4528   447.2    8.604      49.916
2014   11        5    15  19    7.4545   447.3    8.598      49.926
2014   11        5    15  25    7.4562   447.5    8.592      49.937
2014   11        5    15  30    7.4580   447.7    8.586      49.948
2014   11        5    15  36    7.4597   447.9    8.580      49.958
2014   11        5    15  41    7.4615   448.1    8.575      49.968
2014   11        5    15  47    7.4633   448.3    8.569      49.979
2014   11        5    15  52    7.4650   448.5    8.563      49.989
2014   11        5    15  58    7.4668   448.7    8.557      50.000
2014   11        5    16   3    7.4687   448.8    8.551      50.010
2014   11        5    16   8    7.4705   449.0    8.545      50.020
2014   11        5    16  14    7.4723   449.2    8.540      50.031
2014   11        5    16  19    7.4742   449.4    8.534      50.041
2014   11        5    16  25    7.4761   449.6    8.528      50.052
2014   11        5    16  30    7.4780   449.8    8.523      50.062
2014   11        5    16  36    7.4799   450.0    8.518      50.073
2014   11        5    16  41    7.4818   450.2    8.512      50.084
2014   11        5    16  47    7.4838   450.4    8.507      50.095
2014   11        5    16  52    7.4858   450.5    8.502      50.106
2014   11        5    16  58    7.4878   450.7    8.497      50.118
2014   11        5    17   3    7.4898   450.9    8.492      50.130
2014   11        5    17   9    7.4919   451.1    8.487      50.142
2014   11        5    17  14    7.4940   451.3    8.482      50.154
2014   11        5    17  20    7.4961   451.5    8.478      50.167
2014   11        5    17  25    7.4982   451.7    8.473      50.181
2014   11        5    17  30    7.5003   451.9    8.469      50.194
2014   11        5    17  36    7.5025   452.1    8.465      50.209
2014   11        5    17  41    7.5047   452.3    8.461      50.224
2014   11        5    17  47    7.5070   452.4    8.457      50.239
2014   11        5    17  52    7.5092   452.6    8.454      50.255
2014   11        5    17  58    7.5114   452.8    8.451      50.273
2014   11        5    18   3    7.5137   453.0    8.448      50.291
2014   11        5    18   9    7.5160   453.2    8.445      50.311
2014   11        5    18  14    7.5183   453.4    8.442      50.332
2014   11        5    18  20    7.5205   453.6    8.439      50.354
2014   11        5    18  25    7.5227   453.8    8.437      50.377
2014   11        5    18  31    7.5249   454.0    8.434      50.401
2014   11        5    18  36    7.5271   454.2    8.432      50.426
2014   11        5    18  42    7.5293   454.4    8.429      50.452
2014   11        5    18  47    7.5314   454.6    8.427      50.479
2014   11        5    18  53    7.5336   454.8    8.425      50.506
2014   11        5    18  58    7.5355   455.0    8.422      50.534
2014   11        5    19   4    7.5376   455.2    8.420      50.562
2014   11        5    19   9    7.5395   455.4    8.418      50.591
2014   11        5    19  14    7.5413   455.7    8.415      50.620
2014   11        5    19  20    7.5433   455.9    8.412      50.650
2014   11        5    19  25    7.5450   456.1    8.410      50.681
2014   11        5    19  31    7.5467   456.3    8.407      50.712
2014   11        5    19  36    7.5484   456.5    8.404      50.743
2014   11        5    19  42    7.5501   456.7    8.400      50.774
2014   11        5    19  47    7.5517   456.9    8.397      50.806
2014   11        5    19  53    7.5532   457.1    8.394      50.838
2014   11        5    19  58    7.5546   457.3    8.390      50.870
2014   11        5    20   4    7.5561   457.5    8.386      50.902
2014   11        5    20   9    7.5575   457.8    8.382      50.934
2014   11        5    20  15    7.5588   458.0    8.378      50.967
2014   11        5    20  20    7.5602   458.2    8.374      50.999
2014   11        5    20  26    7.5615   458.4    8.369      51.032
2014   11        5    20  31    7.5628   458.6    8.365      51.064
2014   11        5    20  37    7.5640   458.8    8.360      51.097
2014   11        5    20  42    7.5652   459.0    8.355      51.129
2014   11        5    20  47    7.5664   459.3    8.350      51.161
2014   11        5    20  53    7.5677   459.5    8.345      51.194
2014   11        5    20  58    7.5687   459.7    8.339      51.225
2014   11        5    21   4    7.5700   459.9    8.334      51.257
2014   11        5    21   9    7.5711   460.1    8.328      51.288
2014   11        5    21  15    7.5722   460.3    8.322      51.320
2014   11        5    21  20    7.5734   460.5    8.316      51.350
2014   11        5    21  26    7.5745   460.8    8.310      51.381
2014   11        5    21  31    7.5755   461.0    8.304      51.411
2014   11        5    21  37    7.5767   461.2    8.298      51.441
2014   11        5    21  42    7.5778   461.4    8.291      51.470
2014   11        5    21  48    7.5788   461.6    8.285      51.499
2014   11        5    21  53    7.5800   461.9    8.278      51.528
2014   11        5    21  59    7.5810   462.1    8.271      51.556
2014   11        5    22   4    7.5821   462.3    8.265      51.584
2014   11        5    22   9    7.5832   462.5    8.258      51.611
2014   11        5    22  15    7.5843   462.8    8.251      51.638
2014   11        5    22  20    7.5854   463.0    8.244      51.664
2014   11        5    22  26    7.5865   463.2    8.237      51.690
2014   11        5    22  31    7.5876   463.4    8.230      51.716
2014   11        5    22  37    7.5887   463.7    8.223      51.741
2014   11        5    22  42    7.5899   463.9    8.215      51.766
2014   11        5    22  48    7.5910   464.1    8.208      51.791
2014   11        5    22  53    7.5921   464.3    8.201      51.815
2014   11        5    22  59    7.5933   464.6    8.194      51.839
2014   11        5    23   4    7.5945   464.8    8.187      51.863
2014   11        5    23  10    7.5956   465.0    8.179      51.887
2014   11        5    23  15    7.5969   465.3    8.172      51.910
2014   11        5    23  21    7.5981   465.5    8.165      51.934
2014   11        5    23  26    7.5994   465.7    8.158      51.957
2014   11        5    23  31    7.6007   466.0    8.150      51.980
2014   11        5    23  37    7.6020   466.2    8.143      52.002
2014   11        5    23  42    7.6033   466.4    8.136      52.025
2014   11        5    23  48    7.6047   466.7    8.129      52.048
2014   11        5    23  53    7.6061   466.9    8.122      52.071
2014   11        5    23  59    7.6076   467.1    8.115      52.093
2014   11        6     0   4    7.6090   467.4    8.108      52.117
2014   11        6     0  10    7.6105   467.6    8.101      52.140
2014   11        6     0  15    7.6120   467.9    8.095      52.165
2014   11        6     0  21    7.6135   468.1    8.088      52.190
2014   11        6     0  26    7.6150   468.3    8.081      52.215
2014   11        6     0  32    7.6165   468.6    8.074      52.242
2014   11        6     0  37    7.6180   468.8    8.068      52.268
2014   11        6     0  43    7.6194   469.1    8.061      52.296
2014   11        6     0  48    7.6208   469.3    8.055      52.324
2014   11        6     0  54    7.6222   469.6    8.048      52.353
2014   11        6     0  59    7.6235   469.9    8.042      52.382
2014   11        6     1   4    7.6247   470.1    8.035      52.412
2014   11        6     1  10    7.6259   470.4    8.029      52.443
2014   11        6     1  15    7.6271   470.6    8.023      52.474
2014   11        6     1  21    7.6282   470.9    8.017      52.505
2014   11        6     1  26    7.6291   471.1    8.011      52.537
2014   11        6     1  32    7.6302   471.4    8.005      52.570
2014   11        6     1  37    7.6310   471.6    7.999      52.603
2014   11        6     1  43    7.6319   471.9    7.993      52.636
2014   11        6     1  48    7.6325   472.1    7.987      52.670
2014   11        6     1  54    7.6332   472.4    7.982      52.704
2014   11        6     1  59    7.6338   472.7    7.977      52.739
2014   11        6     2   5    7.6344   472.9    7.971      52.774
2014   11        6     2  10    7.6349   473.2    7.966      52.810
2014   11        6     2  16    7.6354   473.4    7.961      52.846
2014   11        6     2  21    7.6359   473.7    7.956      52.883
2014   11        6     2  27    7.6363   473.9    7.952      52.921
2014   11        6     2  32    7.6366   474.2    7.947      52.959
2014   11        6     2  37    7.6369   474.4    7.943      52.998
2014   11        6     2  43    7.6372   474.7    7.939      53.038
2014   11        6     2  48    7.6374   475.0    7.935      53.079
2014   11        6     2  54    7.6378   475.2    7.931      53.121
2014   11        6     2  59    7.6379   475.5    7.927      53.164
2014   11        6     3   5    7.6382   475.7    7.923      53.209
2014   11        6     3  10    7.6384   476.0    7.920      53.256
2014   11        6     3  16    7.6385   476.2    7.916      53.304
2014   11        6     3  21    7.6386   476.5    7.913      53.354
2014   11        6     3  27    7.6388   476.7    7.910      53.406
2014   11        6     3  32    7.6390   477.0    7.906      53.459
2014   11        6     3  38    7.6394   477.3    7.903      53.513
2014   11        6     3  43    7.6395   477.5    7.900      53.569
2014   11        6     3  49    7.6399   477.8    7.897      53.627
2014   11        6     3  54    7.6402   478.0    7.893      53.686
2014   11        6     4   0    7.6406   478.3    7.890      53.747
2014   11        6     4   5    7.6410   478.6    7.886      53.808
2014   11        6     4  10    7.6414   478.9    7.883      53.871
2014   11        6     4  16    7.6419   479.1    7.879      53.934
2014   11        6     4  21    7.6424   479.4    7.874      53.998
2014   11        6     4  27    7.6427   479.7    7.870      54.061
2014   11        6     4  32    7.6433   480.0    7.865      54.124
2014   11        6     4  38    7.6436   480.3    7.861      54.186
2014   11        6     4  43    7.6440   480.5    7.855      54.248
2014   11        6     4  49    7.6444   480.8    7.850      54.309
2014   11        6     4  54    7.6448   481.1    7.844      54.370
2014   11        6     5   0    7.6450   481.4    7.837      54.429
2014   11        6     5   5    7.6453   481.7    7.831      54.487
2014   11        6     5  11    7.6454   482.0    7.823      54.543
2014   11        6     5  16    7.6456   482.3    7.816      54.598
2014   11        6     5  22    7.6457   482.6    7.808      54.651
2014   11        6     5  27    7.6459   482.9    7.800      54.703
2014   11        6     5  32    7.6459   483.2    7.792      54.754
2014   11        6     5  38    7.6458   483.5    7.784      54.803
2014   11        6     5  43    7.6458   483.8    7.775      54.850
2014   11        6     5  49    7.6457   484.1    7.766      54.896
2014   11        6     5  54    7.6456   484.4    7.757      54.941
2014   11        6     6   0    7.6453   484.7    7.748      54.985
2014   11        6     6   5    7.6452   485.0    7.738      55.028
2014   11        6     6  11    7.6449   485.3    7.729      55.070
2014   11        6     6  16    7.6448   485.6    7.719      55.111
2014   11        6     6  22    7.6444   485.9    7.709      55.152
2014   11        6     6  27    7.6440   486.2    7.700      55.192
2014   11        6     6  33    7.6436   486.5    7.690      55.232
2014   11        6     6  38    7.6432   486.8    7.680      55.271
2014   11        6     6  44    7.6427   487.1    7.670      55.310
2014   11        6     6  49    7.6422   487.4    7.660      55.348
2014   11        6     6  54    7.6417   487.7    7.650      55.386
2014   11        6     7   0    7.6413   487.9    7.640      55.424
2014   11        6     7   5    7.6406   488.2    7.630      55.462
2014   11        6     7  11    7.6400   488.5    7.620      55.498
2014   11        6     7  16    7.6394   488.8    7.610      55.535
2014   11        6     7  22    7.6388   489.1    7.600      55.572
2014   11        6     7  27    7.6383   489.4    7.590      55.608
2014   11        6     7  33    7.6375   489.7    7.580      55.644
2014   11        6     7  38    7.6369   490.0    7.570      55.680
2014   11        6     7  44    7.6359   490.3    7.560      55.716
2014   11        6     7  49    7.6351   490.6    7.550      55.752
2014   11        6     7  55    7.6345   490.9    7.540      55.788
2014   11        6     8   0    7.6332   491.2    7.530      55.825
2014   11        6     8   6    7.6322   491.6    7.520      55.861
2014   11        6     8  11    7.6313   491.9    7.510      55.899
2014   11        6     8  17    7.6297   492.2    7.499      55.937
2014   11        6     8  22    7.6282   492.6    7.489      55.975
2014   11        6     8  27    7.6269   492.9    7.478      56.012
2014   11        6     8  33    7.6247   493.2    7.467      56.048
2014   11        6     8  38    7.6231   493.6    7.456      56.083
2014   11        6     8  44    7.6206   493.9    7.445      56.118
2014   11        6     8  49    7.6184   494.3    7.433      56.151
2014   11        6     8  55    7.6159   494.6    7.422      56.184
2014   11        6     9   0    7.6137   494.9    7.411      56.215
2014   11        6     9   6    7.6106   495.2    7.400      56.246
2014   11        6     9  11    7.6082   495.5    7.389      56.277
2014   11        6     9  17    7.6049   495.8    7.378      56.306
2014   11        6     9  22    7.6024   496.1    7.367      56.334
2014   11        6     9  28    7.5990   496.4    7.356      56.362
2014   11        6     9  33    7.5959   496.7    7.346      56.390
2014   11        6     9  39    7.5932   497.0    7.336      56.420
2014   11        6     9  44    7.5902   497.2    7.326      56.451
2014   11        6     9  50    7.5867   497.5    7.316      56.483
2014   11        6     9  55    7.5836   497.8    7.307      56.517
2014   11        6    10   0    7.5805   498.1    7.297      56.554
2014   11        6    10   6    7.5775   498.4    7.288      56.594
2014   11        6    10  11    7.5744   498.7    7.280      56.636
2014   11        6    10  17    7.5714   499.0    7.271      56.679
2014   11        6    10  22    7.5683   499.3    7.263      56.724
2014   11        6    10  28    7.5653   499.6    7.254      56.771
2014   11        6    10  33    7.5623   499.9    7.246      56.821
2014   11        6    10  39    7.5593   500.2    7.238      56.872
2014   11        6    10  44    7.5568   500.5    7.230      56.925
2014   11        6    10  50    7.5533   500.8    7.222      56.978
2014   11        6    10  55    7.5503   501.1    7.215      57.032
2014   11        6    11   1    7.5473   501.4    7.207      57.088
2014   11        6    11   6    7.5443   501.7    7.199      57.145
2014   11        6    11  12    7.5413   502.0    7.192      57.203
2014   11        6    11  17    7.5387   502.4    7.184      57.261
2014   11        6    11  22    7.5357   502.7    7.176      57.319
2014   11        6    11  28    7.5321   503.0    7.168      57.377
2014   11        6    11  33    7.5295   503.3    7.160      57.435
2014   11        6    11  39    7.5259   503.6    7.151      57.492
2014   11        6    11  44    7.5232   503.9    7.143      57.549
2014   11        6    11  50    7.5195   504.3    7.134      57.604
2014   11        6    11  55    7.5163   504.6    7.125      57.659
2014   11        6    12   1    7.5134   504.9    7.115      57.713
2014   11        6    12   6    7.5096   505.2    7.106      57.767
2014   11        6    12  12    7.5062   505.6    7.096      57.819
2014   11        6    12  17    7.5027   505.9    7.086      57.871
2014   11        6    12  23    7.4991   506.2    7.075      57.922
2014   11        6    12  28    7.4955   506.6    7.065      57.973
2014   11        6    12  34    7.4923   506.9    7.054      58.023
2014   11        6    12  39    7.4882   507.3    7.043      58.073
2014   11        6    12  44    7.4844   507.6    7.031      58.122
2014   11        6    12  50    7.4806   508.0    7.020      58.171
2014   11        6    12  55    7.4771   508.3    7.008      58.219
2014   11        6    13   1    7.4727   508.7    6.996      58.266
2014   11        6    13   6    7.4691   509.0    6.984      58.312
2014   11        6    13  12    7.4646   509.4    6.971      58.356
2014   11        6    13  17    7.4603   509.7    6.959      58.400
2014   11        6    13  23    7.4566   510.1    6.946      58.443
2014   11        6    13  28    7.4517   510.4    6.934      58.483
2014   11        6    13  34    7.4472   510.8    6.921      58.523
2014   11        6    13  39    7.4426   511.1    6.908      58.560
2014   11        6    13  45    7.4379   511.4    6.895      58.596
2014   11        6    13  50    7.4331   511.8    6.881      58.631
2014   11        6    13  56    7.4287   512.1    6.868      58.664
2014   11        6    14   1    7.4232   512.5    6.855      58.696
2014   11        6    14   6    7.4182   512.8    6.841      58.727
2014   11        6    14  12    7.4135   513.1    6.828      58.756
2014   11        6    14  17    7.4077   513.5    6.814      58.783
2014   11        6    14  23    7.4029   513.8    6.800      58.809
2014   11        6    14  28    7.3976   514.1    6.786      58.833
2014   11        6    14  34    7.3921   514.5    6.772      58.856
2014   11        6    14  39    7.3866   514.8    6.759      58.877
2014   11        6    14  45    7.3810   515.1    6.745      58.897
2014   11        6    14  50    7.3748   515.4    6.731      58.915
2014   11        6    14  56    7.3696   515.8    6.716      58.931
2014   11        6    15   1    7.3633   516.1    6.702      58.947
2014   11        6    15   7    7.3580   516.4    6.688      58.961
2014   11        6    15  12    7.3515   516.8    6.674      58.974
2014   11        6    15  18    7.3454   517.1    6.659      58.985
2014   11        6    15  23    7.3394   517.5    6.645      58.997
2014   11        6    15  29    7.3331   517.8    6.630      59.007
2014   11        6    15  34    7.3268   518.2    6.614      59.016
2014   11        6    15  39    7.3203   518.5    6.599      59.022
2014   11        6    15  45    7.3142   518.9    6.583      59.025
2014   11        6    15  50    7.3069   519.2    6.567      59.026
2014   11        6    15  56    7.3000   519.6    6.552      59.024
2014   11        6    16   1    7.2930   519.9    6.535      59.019
2014   11        6    16   7    7.2865   520.3    6.519      59.013
2014   11        6    16  12    7.2787   520.6    6.503      59.003
2014   11        6    16  18    7.2715   520.9    6.487      58.993
2014   11        6    16  23    7.2642   521.2    6.471      58.980
2014   11        6    16  29    7.2574   521.5    6.456      58.967
2014   11        6    16  34    7.2501   521.8    6.440      58.952
2014   11        6    16  40    7.2423   522.1    6.425      58.937
2014   11        6    16  45    7.2350   522.3    6.410      58.920
2014   11        6    16  51    7.2282   522.6    6.395      58.904
2014   11        6    16  56    7.2210   522.8    6.380      58.890
2014   11        6    17   2    7.2133   523.1    6.366      58.876
2014   11        6    17   7    7.2062   523.3    6.351      58.864
2014   11        6    17  12    7.1991   523.6    6.337      58.854
2014   11        6    17  18    7.1924   523.9    6.323      58.846
2014   11        6    17  23    7.1854   524.1    6.309      58.840
2014   11        6    17  29    7.1779   524.4    6.295      58.837
2014   11        6    17  34    7.1713   524.7    6.281      58.834
2014   11        6    17  40    7.1638   525.0    6.267      58.832
2014   11        6    17  45    7.1568   525.3    6.253      58.830
2014   11        6    17  51    7.1501   525.6    6.239      58.828
2014   11        6    17  56    7.1426   525.8    6.225      58.825
2014   11        6    18   2    7.1355   526.1    6.210      58.822
2014   11        6    18   7    7.1288   526.4    6.196      58.818
2014   11        6    18  13    7.1212   526.7    6.182      58.813
2014   11        6    18  18    7.1140   526.9    6.168      58.807
2014   11        6    18  24    7.1068   527.2    6.154      58.800
2014   11        6    18  29    7.0997   527.5    6.140      58.792
2014   11        6    18  35    7.0924   527.7    6.126      58.784
2014   11        6    18  40    7.0853   528.0    6.112      58.774
2014   11        6    18  45    7.0780   528.2    6.098      58.764
2014   11        6    18  51    7.0713   528.4    6.084      58.753
2014   11        6    18  56    7.0641   528.6    6.070      58.741
2014   11        6    19   2    7.0570   528.9    6.057      58.729
2014   11        6    19   7    7.0498   529.1    6.044      58.718
2014   11        6    19  13    7.0423   529.3    6.031      58.706
2014   11        6    19  18    7.0356   529.5    6.018      58.695
2014   11        6    19  24    7.0285   529.7    6.005      58.685
2014   11        6    19  29    7.0210   529.9    5.992      58.675
2014   11        6    19  35    7.0144   530.1    5.979      58.666
2014   11        6    19  40    7.0069   530.4    5.967      58.659
2014   11        6    19  46    6.9998   530.6    5.954      58.652
2014   11        6    19  51    6.9931   530.8    5.942      58.646
2014   11        6    19  56    6.9857   531.0    5.930      58.642
2014   11        6    20   2    6.9789   531.3    5.918      58.639
2014   11        6    20   7    6.9715   531.5    5.906      58.636
2014   11        6    20  13    6.9643   531.7    5.894      58.633
2014   11        6    20  18    6.9575   532.0    5.882      58.632
2014   11        6    20  24    6.9501   532.2    5.870      58.630
2014   11        6    20  29    6.9425   532.5    5.858      58.627
2014   11        6    20  35    6.9354   532.7    5.846      58.624
2014   11        6    20  40    6.9280   532.9    5.834      58.621
2014   11        6    20  46    6.9200   533.2    5.822      58.615
2014   11        6    20  51    6.9124   533.4    5.810      58.608
2014   11        6    20  57    6.9046   533.7    5.798      58.599
2014   11        6    21   2    6.8971   533.9    5.785      58.589
2014   11        6    21   8    6.8888   534.1    5.773      58.576
2014   11        6    21  13    6.8808   534.4    5.761      58.562
2014   11        6    21  18    6.8727   534.6    5.748      58.546
2014   11        6    21  24    6.8646   534.8    5.736      58.528
2014   11        6    21  29    6.8564   535.0    5.724      58.508
2014   11        6    21  35    6.8482   535.3    5.711      58.487
2014   11        6    21  40    6.8399   535.5    5.699      58.463
2014   11        6    21  46    6.8319   535.7    5.687      58.438
2014   11        6    21  51    6.8236   535.9    5.674      58.410
2014   11        6    21  57    6.8152   536.1    5.662      58.382
2014   11        6    22   2    6.8068   536.3    5.650      58.351
2014   11        6    22   8    6.7986   536.5    5.638      58.319
2014   11        6    22  13    6.7905   536.7    5.625      58.285
2014   11        6    22  19    6.7823   536.9    5.613      58.251
2014   11        6    22  24    6.7739   537.1    5.601      58.215
2014   11        6    22  30    6.7659   537.3    5.589      58.178
2014   11        6    22  35    6.7575   537.5    5.577      58.139
2014   11        6    22  41    6.7493   537.6    5.565      58.099
2014   11        6    22  46    6.7411   537.8    5.553      58.058
2014   11        6    22  51    6.7331   538.0    5.542      58.014
2014   11        6    22  57    6.7248   538.2    5.530      57.969
2014   11        6    23   2    6.7167   538.3    5.518      57.922
2014   11        6    23   8    6.7086   538.5    5.507      57.872
2014   11        6    23  13    6.7007   538.6    5.495      57.821
2014   11        6    23  19    6.6926   538.8    5.484      57.768
2014   11        6    23  24    6.6847   538.9    5.473      57.715
2014   11        6    23  30    6.6768   539.1    5.463      57.660
2014   11        6    23  35    6.6690   539.2    5.452      57.605
2014   11        6    23  41    6.6612   539.3    5.442      57.549
2014   11        6    23  46    6.6536   539.4    5.432      57.493
2014   11        6    23  52    6.6460   539.5    5.423      57.437
2014   11        6    23  57    6.6384   539.7    5.414      57.382
2014   11        7     0   3    6.6310   539.8    5.405      57.328
2014   11        7     0   8    6.6236   539.9    5.396      57.274
2014   11        7     0  14    6.6162   540.0    5.387      57.220
2014   11        7     0  19    6.6090   540.1    5.379      57.167
2014   11        7     0  24    6.6018   540.2    5.370      57.114
2014   11        7     0  30    6.5947   540.4    5.362      57.062
2014   11        7     0  35    6.5876   540.5    5.353      57.009
2014   11        7     0  41    6.5805   540.6    5.345      56.957
2014   11        7     0  46    6.5732   540.7    5.336      56.904
2014   11        7     0  52    6.5663   540.9    5.327      56.850
2014   11        7     0  57    6.5592   541.0    5.318      56.795
2014   11        7     1   3    6.5522   541.1    5.309      56.739
2014   11        7     1   8    6.5451   541.3    5.299      56.682
2014   11        7     1  14    6.5381   541.4    5.290      56.623
2014   11        7     1  19    6.5310   541.5    5.280      56.563
2014   11        7     1  25    6.5240   541.6    5.271      56.502
2014   11        7     1  30    6.5168   541.7    5.261      56.440
2014   11        7     1  36    6.5098   541.8    5.251      56.377
2014   11        7     1  41    6.5031   541.9    5.241      56.313
2014   11        7     1  46    6.4962   542.0    5.232      56.250
2014   11        7     1  52    6.4894   542.0    5.222      56.186
2014   11        7     1  57    6.4827   542.1    5.213      56.123
2014   11        7     2   3    6.4760   542.1    5.203      56.060
2014   11        7     2   8    6.4694   542.2    5.194      55.998
2014   11        7     2  14    6.4628   542.2    5.185      55.936
2014   11        7     2  19    6.4563   542.3    5.176      55.875
2014   11        7     2  25    6.4497   542.3    5.167      55.815
2014   11        7     2  30    6.4433   542.4    5.159      55.756
2014   11        7     2  36    6.4373   542.4    5.150      55.697
2014   11        7     2  41    6.4311   542.4    5.142      55.641
2014   11        7     2  47    6.4249   542.5    5.133      55.584
2014   11        7     2  52    6.4185   542.5    5.125      55.529
2014   11        7     2  58    6.4126   542.6    5.117      55.474
2014   11        7     3   3    6.4063   542.6    5.109      55.420
2014   11        7     3   8    6.4005   542.7    5.101      55.367
2014   11        7     3  14    6.3942   542.7    5.093      55.314
2014   11        7     3  19    6.3881   542.8    5.085      55.261
2014   11        7     3  25    6.3823   542.8    5.077      55.208
2014   11        7     3  30    6.3759   542.9    5.069      55.156
2014   11        7     3  36    6.3699   542.9    5.061      55.103
2014   11        7     3  41    6.3637   543.0    5.054      55.050
2014   11        7     3  47    6.3576   543.0    5.046      54.998
2014   11        7     3  52    6.3517   543.1    5.038      54.944
2014   11        7     3  58    6.3456   543.1    5.031      54.891
2014   11        7     4   3    6.3390   543.2    5.023      54.837
2014   11        7     4   9    6.3331   543.2    5.016      54.782
2014   11        7     4  14    6.3265   543.3    5.008      54.728
2014   11        7     4  20    6.3202   543.3    5.001      54.673
2014   11        7     4  25    6.3142   543.4    4.993      54.617
2014   11        7     4  30    6.3079   543.4    4.986      54.562
2014   11        7     4  36    6.3015   543.4    4.978      54.505
2014   11        7     4  41    6.2953   543.5    4.971      54.450
2014   11        7     4  47    6.2889   543.5    4.963      54.393
2014   11        7     4  52    6.2827   543.5    4.956      54.337
2014   11        7     4  58    6.2761   543.6    4.949      54.280
2014   11        7     5   3    6.2699   543.6    4.942      54.224
2014   11        7     5   9    6.2637   543.6    4.935      54.167
2014   11        7     5  14    6.2579   543.6    4.928      54.110
2014   11        7     5  20    6.2518   543.6    4.921      54.053
2014   11        7     5  25    6.2458   543.7    4.914      53.996
2014   11        7     5  31    6.2398   543.7    4.907      53.939
2014   11        7     5  36    6.2335   543.7    4.901      53.882
2014   11        7     5  42    6.2277   543.7    4.895      53.825
2014   11        7     5  47    6.2222   543.7    4.888      53.768
2014   11        7     5  53    6.2165   543.7    4.882      53.710
2014   11        7     5  58    6.2105   543.7    4.876      53.653
2014   11        7     6   3    6.2050   543.7    4.871      53.596
2014   11        7     6   9    6.1998   543.6    4.865      53.539
2014   11        7     6  14    6.1940   543.6    4.860      53.482
2014   11        7     6  20    6.1887   543.6    4.855      53.426
2014   11        7     6  25    6.1837   543.6    4.850      53.369
2014   11        7     6  31    6.1781   543.6    4.845      53.313
2014   11        7     6  36    6.1733   543.5    4.841      53.257
2014   11        7     6  42    6.1683   543.5    4.837      53.202
2014   11        7     6  47    6.1633   543.5    4.833      53.147
2014   11        7     6  53    6.1583   543.4    4.829      53.093
2014   11        7     6  58    6.1535   543.4    4.826      53.038
2014   11        7     7   4    6.1486   543.4    4.822      52.985
2014   11        7     7   9    6.1439   543.3    4.819      52.931
2014   11        7     7  15    6.1389   543.3    4.817      52.878
2014   11        7     7  20    6.1343   543.2    4.814      52.826
2014   11        7     7  25    6.1298   543.2    4.812      52.773
2014   11        7     7  31    6.1257   543.2    4.810      52.721
2014   11        7     7  36    6.1213   543.1    4.807      52.669
2014   11        7     7  42    6.1166   543.1    4.805      52.617
2014   11        7     7  47    6.1126   543.1    4.803      52.566
2014   11        7     7  53    6.1084   543.1    4.801      52.514
2014   11        7     7  58    6.1042   543.0    4.799      52.462
2014   11        7     8   4    6.1001   543.0    4.798      52.410
2014   11        7     8   9    6.0960   543.0    4.796      52.359
2014   11        7     8  15    6.0919   543.0    4.794      52.306
2014   11        7     8  20    6.0879   542.9    4.791      52.255
2014   11        7     8  26    6.0835   542.9    4.789      52.203
2014   11        7     8  31    6.0799   542.9    4.787      52.151
2014   11        7     8  37    6.0755   542.9    4.785      52.098
2014   11        7     8  42    6.0716   542.8    4.782      52.046
2014   11        7     8  48    6.0676   542.8    4.780      51.993
2014   11        7     8  53    6.0641   542.8    4.777      51.940
2014   11        7     8  58    6.0598   542.8    4.774      51.887
2014   11        7     9   4    6.0563   542.7    4.772      51.834
2014   11        7     9   9    6.0521   542.7    4.769      51.781
2014   11        7     9  15    6.0483   542.7    4.766      51.728
2014   11        7     9  20    6.0445   542.6    4.763      51.675
2014   11        7     9  26    6.0411   542.6    4.761      51.623
2014   11        7     9  31    6.0373   542.6    4.758      51.569
2014   11        7     9  37    6.0336   542.5    4.755      51.517
2014   11        7     9  42    6.0296   542.5    4.752      51.464
2014   11        7     9  48    6.0263   542.5    4.749      51.411
2014   11        7     9  53    6.0227   542.4    4.746      51.358
2014   11        7     9  59    6.0191   542.4    4.743      51.306
2014   11        7    10   4    6.0152   542.3    4.741      51.253
2014   11        7    10   9    6.0117   542.3    4.738      51.201
2014   11        7    10  15    6.0082   542.2    4.735      51.149
2014   11        7    10  20    6.0052   542.2    4.732      51.098
2014   11        7    10  26    6.0014   542.1    4.729      51.046
2014   11        7    10  31    5.9984   542.1    4.727      50.995
2014   11        7    10  37    5.9951   542.0    4.724      50.944
2014   11        7    10  42    5.9918   542.0    4.722      50.894
2014   11        7    10  48    5.9885   542.0    4.719      50.844
2014   11        7    10  53    5.9850   541.9    4.716      50.795
2014   11        7    10  59    5.9821   541.8    4.714      50.745
2014   11        7    11   4    5.9790   541.8    4.712      50.697
2014   11        7    11  10    5.9759   541.7    4.709      50.649
2014   11        7    11  15    5.9729   541.7    4.707      50.601
2014   11        7    11  21    5.9698   541.6    4.705      50.554
2014   11        7    11  26    5.9668   541.6    4.703      50.508
2014   11        7    11  31    5.9635   541.5    4.701      50.462
2014   11        7    11  37    5.9610   541.5    4.699      50.416
2014   11        7    11  42    5.9578   541.4    4.697      50.371
2014   11        7    11  48    5.9549   541.3    4.695      50.327
2014   11        7    11  53    5.9525   541.3    4.693      50.282
2014   11        7    11  59    5.9493   541.2    4.691      50.239
2014   11        7    12   4    5.9470   541.2    4.690      50.196
2014   11        7    12  10    5.9439   541.1    4.688      50.153
2014   11        7    12  15    5.9412   541.0    4.686      50.111
2014   11        7    12  21    5.9389   541.0    4.685      50.071
2014   11        7    12  26    5.9363   540.9    4.683      50.030
2014   11        7    12  32    5.9334   540.8    4.681      49.991
2014   11        7    12  37    5.9312   540.8    4.680      49.951
2014   11        7    12  43    5.9287   540.7    4.678      49.913
2014   11        7    12  48    5.9259   540.6    4.677      49.875
2014   11        7    12  53    5.9235   540.5    4.675      49.837
2014   11        7    12  59    5.9211   540.5    4.673      49.799
2014   11        7    13   4    5.9188   540.4    4.672      49.762
2014   11        7    13  10    5.9165   540.3    4.670      49.725
2014   11        7    13  15    5.9143   540.2    4.669      49.688
2014   11        7    13  21    5.9123   540.1    4.667      49.651
2014   11        7    13  26    5.9099   540.1    4.665      49.614
2014   11        7    13  32    5.9077   540.0    4.664      49.577
2014   11        7    13  37    5.9057   539.9    4.662      49.540
2014   11        7    13  43    5.9039   539.8    4.661      49.503
2014   11        7    13  48    5.9019   539.8    4.659      49.466
2014   11        7    13  54    5.9000   539.7    4.658      49.428
2014   11        7    13  59    5.8980   539.6    4.656      49.390
2014   11        7    14   5    5.8962   539.5    4.655      49.352
2014   11        7    14  10    5.8941   539.4    4.654      49.314
2014   11        7    14  16    5.8923   539.4    4.652      49.275
2014   11        7    14  21    5.8908   539.3    4.651      49.237
2014   11        7    14  27    5.8891   539.2    4.650      49.198
2014   11        7    14  32    5.8871   539.1    4.648      49.159
2014   11        7    14  37    5.8857   539.0    4.647      49.120
2014   11        7    14  43    5.8839   539.0    4.646      49.080
2014   11        7    14  48    5.8823   538.9    4.645      49.041
2014   11        7    14  54    5.8807   538.8    4.644      49.001
2014   11        7    14  59    5.8791   538.7    4.643      48.961
2014   11        7    15   5    5.8776   538.7    4.642      48.921
2014   11        7    15  10    5.8761   538.6    4.641      48.880
2014   11        7    15  16    5.8745   538.5    4.640      48.840
2014   11        7    15  21    5.8732   538.4    4.639      48.800
2014   11        7    15  27    5.8715   538.4    4.638      48.759
2014   11        7    15  32    5.8702   538.3    4.637      48.718
2014   11        7    15  38    5.8684   538.2    4.636      48.678
2014   11        7    15  43    5.8669   538.1    4.636      48.637
2014   11        7    15  49    5.8654   538.1    4.635      48.596
2014   11        7    15  54    5.8640   538.0    4.634      48.556
2014   11        7    15  59    5.8625   537.9    4.633      48.515
2014   11        7    16   5    5.8607   537.8    4.632      48.474
2014   11        7    16  10    5.8592   537.8    4.632      48.434
2014   11        7    16  16    5.8578   537.7    4.631      48.393
2014   11        7    16  21    5.8560   537.6    4.630      48.353
2014   11        7    16  27    5.8547   537.5    4.630      48.312
2014   11        7    16  32    5.8529   537.4    4.629      48.272
2014   11        7    16  38    5.8513   537.4    4.629      48.232
2014   11        7    16  43    5.8497   537.3    4.628      48.192
2014   11        7    16  49    5.8483   537.2    4.628      48.151
2014   11        7    16  54    5.8466   537.1    4.627      48.112
2014   11        7    17   0    5.8450   537.1    4.627      48.072
2014   11        7    17   5    5.8436   537.0    4.626      48.032
2014   11        7    17  10    5.8418   536.9    4.626      47.993
2014   11        7    17  16    5.8404   536.8    4.626      47.954
2014   11        7    17  21    5.8386   536.7    4.625      47.914
2014   11        7    17  27    5.8372   536.7    4.625      47.876
2014   11        7    17  32    5.8355   536.6    4.625      47.837
2014   11        7    17  38    5.8341   536.5    4.625      47.798
2014   11        7    17  43    5.8325   536.4    4.624      47.760
2014   11        7    17  49    5.8307   536.3    4.624      47.722
2014   11        7    17  54    5.8291   536.3    4.624      47.684
2014   11        7    18   0    5.8275   536.2    4.624      47.646
2014   11        7    18   5    5.8260   536.1    4.624      47.609
2014   11        7    18  11    5.8244   536.0    4.625      47.572
2014   11        7    18  16    5.8230   535.9    4.625      47.536
2014   11        7    18  22    5.8213   535.8    4.625      47.500
2014   11        7    18  27    5.8199   535.8    4.625      47.465
2014   11        7    18  32    5.8182   535.7    4.625      47.431
2014   11        7    18  38    5.8168   535.6    4.626      47.397
2014   11        7    18  43    5.8153   535.5    4.626      47.364
2014   11        7    18  49    5.8137   535.4    4.626      47.331
2014   11        7    18  54    5.8122   535.3    4.626      47.299
2014   11        7    19   0    5.8107   535.2    4.627      47.267
2014   11        7    19   5    5.8092   535.1    4.627      47.237
2014   11        7    19  11    5.8077   535.0    4.628      47.206
2014   11        7    19  16    5.8063   535.0    4.628      47.177
2014   11        7    19  22    5.8046   534.9    4.628      47.147
2014   11        7    19  27    5.8032   534.8    4.629      47.119
2014   11        7    19  33    5.8019   534.7    4.629      47.090
2014   11        7    19  38    5.8005   534.6    4.630      47.062
2014   11        7    19  44    5.7989   534.5    4.631      47.034
2014   11        7    19  49    5.7975   534.4    4.631      47.007
2014   11        7    19  54    5.7962   534.3    4.632      46.980
2014   11        7    20   0    5.7949   534.2    4.632      46.954
2014   11        7    20   5    5.7935   534.1    4.633      46.928
2014   11        7    20  11    5.7921   534.0    4.633      46.904
2014   11        7    20  16    5.7908   533.9    4.634      46.879
2014   11        7    20  22    5.7894   533.8    4.635      46.855
2014   11        7    20  27    5.7882   533.7    4.635      46.830
2014   11        7    20  33    5.7869   533.6    4.636      46.806
2014   11        7    20  38    5.7856   533.5    4.636      46.783
2014   11        7    20  44    5.7844   533.4    4.637      46.759
2014   11        7    20  49    5.7832   533.3    4.638      46.736
2014   11        7    20  55    5.7818   533.2    4.638      46.713
2014   11        7    21   0    5.7808   533.1    4.639      46.690
2014   11        7    21   6    5.7795   533.0    4.639      46.667
2014   11        7    21  11    5.7785   532.9    4.640      46.644
2014   11        7    21  17    5.7773   532.8    4.640      46.621
2014   11        7    21  22    5.7762   532.7    4.641      46.597
2014   11        7    21  27    5.7751   532.6    4.641      46.574
2014   11        7    21  33    5.7740   532.5    4.642      46.551
2014   11        7    21  38    5.7730   532.4    4.642      46.528
2014   11        7    21  44    5.7720   532.3    4.643      46.504
2014   11        7    21  49    5.7710   532.2    4.643      46.481
2014   11        7    21  55    5.7699   532.1    4.644      46.457
2014   11        7    22   0    5.7690   532.0    4.644      46.434
2014   11        7    22   6    5.7680   531.9    4.644      46.410
2014   11        7    22  11    5.7670   531.8    4.644      46.387
2014   11        7    22  17    5.7660   531.7    4.645      46.363
2014   11        7    22  22    5.7651   531.6    4.645      46.339
2014   11        7    22  28    5.7641   531.5    4.645      46.315
2014   11        7    22  33    5.7631   531.4    4.645      46.290
2014   11        7    22  39    5.7622   531.3    4.645      46.266
2014   11        7    22  44    5.7613   531.2    4.645      46.241
2014   11        7    22  50    5.7604   531.1    4.645      46.216
2014   11        7    22  55    5.7595   531.0    4.645      46.191
2014   11        7    23   0    5.7585   530.9    4.645      46.166
2014   11        7    23   6    5.7576   530.9    4.645      46.140
2014   11        7    23  11    5.7568   530.8    4.645      46.114
2014   11        7    23  17    5.7558   530.7    4.645      46.088
2014   11        7    23  22    5.7549   530.6    4.645      46.062
2014   11        7    23  28    5.7541   530.5    4.644      46.036
2014   11        7    23  33    5.7532   530.4    4.644      46.009
2014   11        7    23  39    5.7522   530.3    4.644      45.983
2014   11        7    23  44    5.7515   530.2    4.644      45.956
2014   11        7    23  50    5.7506   530.1    4.644      45.929
2014   11        7    23  55    5.7497   530.0    4.644      45.902
2014   11        8     0   1    5.7487   529.9    4.644      45.875
2014   11        8     0   6    5.7479   529.8    4.643      45.848
2014   11        8     0  11    5.7471   529.7    4.643      45.822
2014   11        8     0  17    5.7462   529.6    4.643      45.795
2014   11        8     0  22    5.7453   529.5    4.643      45.768
2014   11        8     0  28    5.7444   529.4    4.643      45.741
2014   11        8     0  33    5.7435   529.4    4.643      45.714
2014   11        8     0  39    5.7427   529.3    4.643      45.687
2014   11        8     0  44    5.7418   529.2    4.643      45.661
2014   11        8     0  50    5.7409   529.1    4.643      45.634
2014   11        8     0  55    5.7400   529.0    4.643      45.607
2014   11        8     1   1    5.7391   528.9    4.643      45.581
2014   11        8     1   6    5.7383   528.8    4.643      45.554
2014   11        8     1  12    5.7374   528.7    4.643      45.528
2014   11        8     1  17    5.7365   528.6    4.643      45.502
2014   11        8     1  23    5.7358   528.5    4.643      45.475
2014   11        8     1  28    5.7348   528.5    4.643      45.450
2014   11        8     1  33    5.7341   528.4    4.643      45.423
2014   11        8     1  39    5.7332   528.3    4.643      45.398
2014   11        8     1  44    5.7324   528.2    4.643      45.372
2014   11        8     1  50    5.7316   528.1    4.643      45.346
2014   11        8     1  55    5.7307   528.0    4.643      45.320
2014   11        8     2   1    5.7299   527.9    4.643      45.295
2014   11        8     2   6    5.7291   527.8    4.643      45.269
2014   11        8     2  12    5.7284   527.7    4.644      45.244
2014   11        8     2  17    5.7277   527.6    4.644      45.219
2014   11        8     2  23    5.7269   527.5    4.644      45.194
2014   11        8     2  28    5.7261   527.5    4.644      45.169
2014   11        8     2  34    5.7253   527.4    4.644      45.144
2014   11        8     2  39    5.7246   527.3    4.644      45.119
2014   11        8     2  44    5.7240   527.2    4.645      45.094
2014   11        8     2  50    5.7233   527.1    4.645      45.070
2014   11        8     2  55    5.7226   527.0    4.645      45.046
2014   11        8     3   1    5.7218   526.9    4.645      45.022
2014   11        8     3   6    5.7213   526.8    4.646      44.998
2014   11        8     3  12    5.7205   526.7    4.646      44.975
2014   11        8     3  17    5.7199   526.6    4.646      44.952
2014   11        8     3  23    5.7193   526.5    4.647      44.929
2014   11        8     3  28    5.7189   526.4    4.647      44.907
2014   11        8     3  34    5.7182   526.3    4.648      44.885
2014   11        8     3  39    5.7177   526.2    4.648      44.863
2014   11        8     3  45    5.7172   526.1    4.649      44.842
2014   11        8     3  50    5.7168   526.0    4.650      44.822
2014   11        8     3  56    5.7164   525.9    4.650      44.802
2014   11        8     4   1    5.7160   525.8    4.651      44.783
2014   11        8     4   7    5.7156   525.7    4.652      44.765
2014   11        8     4  12    5.7154   525.5    4.653      44.747
2014   11        8     4  17    5.7152   525.4    4.654      44.730
2014   11        8     4  23    5.7148   525.3    4.655      44.713
2014   11        8     4  28    5.7146   525.2    4.656      44.697
2014   11        8     4  34    5.7145   525.1    4.658      44.683
2014   11        8     4  39    5.7145   525.0    4.659      44.668
2014   11        8     4  45    5.7143   524.9    4.660      44.655
2014   11        8     4  50    5.7144   524.8    4.662      44.642
2014   11        8     4  56    5.7143   524.7    4.664      44.630
2014   11        8     5   1    5.7145   524.6    4.665      44.619
2014   11        8     5   7    5.7145   524.5    4.667      44.608
2014   11        8     5  12    5.7146   524.4    4.669      44.599
2014   11        8     5  18    5.7149   524.3    4.671      44.590
2014   11        8     5  23    5.7153   524.2    4.673      44.581
2014   11        8     5  29    5.7156   524.0    4.675      44.573
2014   11        8     5  34    5.7159   523.9    4.677      44.566
2014   11        8     5  40    5.7162   523.8    4.679      44.560
2014   11        8     5  45    5.7167   523.7    4.681      44.554
2014   11        8     5  50    5.7172   523.6    4.683      44.548
2014   11        8     5  56    5.7178   523.5    4.686      44.543
2014   11        8     6   1    5.7184   523.4    4.688      44.538
2014   11        8     6   7    5.7191   523.3    4.690      44.534
2014   11        8     6  12    5.7198   523.2    4.693      44.531
2014   11        8     6  18    5.7205   523.1    4.695      44.527
2014   11        8     6  23    5.7212   523.0    4.698      44.524
2014   11        8     6  29    5.7218   522.9    4.700      44.521
2014   11        8     6  34    5.7225   522.9    4.702      44.517
2014   11        8     6  40    5.7233   522.8    4.705      44.514
2014   11        8     6  45    5.7242   522.7    4.707      44.511
2014   11        8     6  51    5.7248   522.6    4.709      44.507
2014   11        8     6  56    5.7257   522.5    4.711      44.503
2014   11        8     7   1    5.7263   522.4    4.713      44.499
2014   11        8     7   7    5.7271   522.3    4.715      44.495
2014   11        8     7  12    5.7279   522.2    4.718      44.490
2014   11        8     7  18    5.7285   522.1    4.720      44.484
2014   11        8     7  23    5.7293   522.1    4.722      44.479
2014   11        8     7  29    5.7302   522.0    4.723      44.473
2014   11        8     7  34    5.7309   521.9    4.725      44.466
2014   11        8     7  40    5.7315   521.8    4.727      44.460
2014   11        8     7  45    5.7322   521.7    4.729      44.452
2014   11        8     7  51    5.7331   521.6    4.731      44.445
2014   11        8     7  56    5.7339   521.5    4.733      44.438
2014   11        8     8   2    5.7346   521.5    4.735      44.430
2014   11        8     8   7    5.7353   521.4    4.736      44.422
2014   11        8     8  12    5.7360   521.3    4.738      44.414
2014   11        8     8  18    5.7368   521.2    4.740      44.405
2014   11        8     8  23    5.7377   521.1    4.742      44.397
2014   11        8     8  29    5.7386   521.0    4.744      44.388
2014   11        8     8  34    5.7394   521.0    4.746      44.380
2014   11        8     8  40    5.7401   520.9    4.748      44.371
2014   11        8     8  45    5.7409   520.8    4.750      44.363
2014   11        8     8  51    5.7418   520.7    4.752      44.354
2014   11        8     8  56    5.7427   520.6    4.754      44.345
2014   11        8     9   2    5.7437   520.5    4.756      44.337
2014   11        8     9   7    5.7446   520.5    4.758      44.329
2014   11        8     9  13    5.7454   520.4    4.760      44.320
2014   11        8     9  18    5.7465   520.3    4.762      44.312
2014   11        8     9  24    5.7473   520.2    4.764      44.304
2014   11        8     9  29    5.7483   520.2    4.767      44.297
2014   11        8     9  34    5.7495   520.1    4.769      44.289
2014   11        8     9  40    5.7504   520.0    4.771      44.282
2014   11        8     9  45    5.7516   519.9    4.774      44.276
2014   11        8     9  51    5.7526   519.9    4.776      44.270
2014   11        8     9  56    5.7536   519.8    4.779      44.265
2014   11        8    10   2    5.7547   519.7    4.781      44.260
2014   11        8    10   7    5.7560   519.6    4.784      44.256
2014   11        8    10  13    5.7571   519.6    4.787      44.252
2014   11        8    10  18    5.7582   519.5    4.789      44.249
2014   11        8    10  24    5.7592   519.4    4.792      44.246
2014   11        8    10  29    5.7604   519.4    4.795      44.244
2014   11        8    10  35    5.7616   519.3    4.797      44.242
2014   11        8    10  40    5.7629   519.2    4.800      44.241
2014   11        8    10  46    5.7642   519.2    4.803      44.240
2014   11        8    10  51    5.7653   519.1    4.805      44.239
2014   11        8    10  56    5.7666   519.0    4.808      44.239
2014   11        8    11   2    5.7679   519.0    4.811      44.239
2014   11        8    11   7    5.7692   518.9    4.814      44.239
2014   11        8    11  13    5.7705   518.9    4.817      44.239
2014   11        8    11  18    5.7719   518.8    4.820      44.240
2014   11        8    11  24    5.7734   518.7    4.823      44.241
2014   11        8    11  29    5.7747   518.7    4.826      44.243
2014   11        8    11  35    5.7761   518.6    4.830      44.245
2014   11        8    11  40    5.7775   518.5    4.833      44.248
2014   11        8    11  46    5.7792   518.5    4.836      44.251
2014   11        8    11  51    5.7805   518.4    4.840      44.254
2014   11        8    11  57    5.7821   518.4    4.844      44.258
2014   11        8    12   2    5.7836   518.3    4.847      44.263
2014   11        8    12   8    5.7854   518.3    4.851      44.269
2014   11        8    12  13    5.7869   518.2    4.855      44.275
2014   11        8    12  19    5.7885   518.2    4.859      44.283
2014   11        8    12  24    5.7904   518.1    4.863      44.292
2014   11        8    12  30    5.7919   518.1    4.867      44.301
2014   11        8    12  35    5.7936   518.0    4.871      44.311
2014   11        8    12  40    5.7954   518.0    4.875      44.322
2014   11        8    12  46    5.7973   517.9    4.879      44.333
2014   11        8    12  51    5.7991   517.9    4.883      44.344
2014   11        8    12  57    5.8007   517.8    4.887      44.356
2014   11        8    13   2    5.8027   517.8    4.891      44.369
2014   11        8    13   8    5.8046   517.7    4.894      44.382
2014   11        8    13  13    5.8063   517.7    4.898      44.394
2014   11        8    13  19    5.8082   517.7    4.902      44.407
2014   11        8    13  24    5.8102   517.6    4.905      44.419
2014   11        8    13  30    5.8120   517.6    4.909      44.432
2014   11        8    13  35    5.8141   517.5    4.913      44.444
2014   11        8    13  41    5.8159   517.5    4.916      44.457
2014   11        8    13  46    5.8181   517.5    4.919      44.469
2014   11        8    13  51    5.8200   517.4    4.923      44.481
2014   11        8    13  57    5.8220   517.4    4.926      44.494
2014   11        8    14   2    5.8240   517.4    4.929      44.506
2014   11        8    14   8    5.8262   517.3    4.933      44.519
2014   11        8    14  13    5.8283   517.3    4.936      44.531
2014   11        8    14  19    5.8302   517.3    4.939      44.543
2014   11        8    14  24    5.8324   517.2    4.942      44.554
2014   11        8    14  30    5.8344   517.2    4.945      44.566
2014   11        8    14  35    5.8364   517.2    4.948      44.577
2014   11        8    14  41    5.8387   517.1    4.951      44.588
2014   11        8    14  46    5.8407   517.1    4.954      44.599
2014   11        8    14  52    5.8429   517.1    4.957      44.609
2014   11        8    14  57    5.8449   517.0    4.960      44.619
2014   11        8    15   2    5.8471   517.0    4.963      44.629
2014   11        8    15   8    5.8491   517.0    4.966      44.638
2014   11        8    15  13    5.8512   516.9    4.969      44.648
2014   11        8    15  19    5.8534   516.9    4.972      44.657
2014   11        8    15  24    5.8557   516.9    4.975      44.666
2014   11        8    15  30    5.8579   516.9    4.977      44.676
2014   11        8    15  35    5.8600   516.8    4.981      44.685
2014   11        8    15  41    5.8622   516.8    4.984      44.694
2014   11        8    15  46    5.8646   516.8    4.987      44.704
2014   11        8    15  52    5.8667   516.7    4.990      44.713
2014   11        8    15  57    5.8692   516.7    4.993      44.723
2014   11        8    16   3    5.8715   516.7    4.997      44.733
2014   11        8    16   8    5.8740   516.7    5.000      44.745
2014   11        8    16  13    5.8763   516.6    5.003      44.757
2014   11        8    16  19    5.8788   516.6    5.007      44.770
2014   11        8    16  24    5.8815   516.6    5.010      44.783
2014   11        8    16  30    5.8839   516.6    5.014      44.797
2014   11        8    16  35    5.8865   516.6    5.018      44.812
2014   11        8    16  41    5.8893   516.5    5.021      44.827
2014   11        8    16  46    5.8920   516.5    5.025      44.843
2014   11        8    16  52    5.8945   516.5    5.028      44.859
2014   11        8    16  57    5.8974   516.5    5.032      44.875
2014   11        8    17   3    5.9000   516.5    5.036      44.892
2014   11        8    17   8    5.9028   516.5    5.039      44.909
2014   11        8    17  14    5.9058   516.5    5.043      44.927
2014   11        8    17  19    5.9086   516.5    5.046      44.944
2014   11        8    17  25    5.9113   516.5    5.050      44.962
2014   11        8    17  30    5.9143   516.5    5.054      44.979
2014   11        8    17  36    5.9173   516.5    5.057      44.997
2014   11        8    17  41    5.9201   516.5    5.061      45.016
2014   11        8    17  46    5.9232   516.5    5.065      45.035
2014   11        8    17  52    5.9260   516.5    5.069      45.054
2014   11        8    17  57    5.9292   516.5    5.072      45.073
2014   11        8    18   3    5.9323   516.5    5.076      45.093
2014   11        8    18   8    5.9352   516.5    5.080      45.113
2014   11        8    18  14    5.9384   516.5    5.083      45.133
2014   11        8    18  19    5.9416   516.5    5.087      45.154
2014   11        8    18  25    5.9445   516.5    5.091      45.175
2014   11        8    18  30    5.9477   516.5    5.094      45.196
2014   11        8    18  36    5.9509   516.6    5.098      45.217
2014   11        8    18  41    5.9542   516.6    5.102      45.238
2014   11        8    18  47    5.9572   516.6    5.105      45.260
2014   11        8    18  52    5.9606   516.6    5.109      45.282
2014   11        8    18  58    5.9638   516.6    5.113      45.304
2014   11        8    19   3    5.9671   516.7    5.116      45.327
2014   11        8    19   8    5.9702   516.7    5.120      45.350
2014   11        8    19  14    5.9736   516.7    5.124      45.373
2014   11        8    19  19    5.9768   516.8    5.127      45.396
2014   11        8    19  25    5.9800   516.8    5.131      45.420
2014   11        8    19  30    5.9834   516.8    5.135      45.444
2014   11        8    19  36    5.9866   516.9    5.138      45.469
2014   11        8    19  41    5.9898   516.9    5.142      45.493
2014   11        8    19  47    5.9932   517.0    5.145      45.518
2014   11        8    19  52    5.9964   517.0    5.148      45.543
2014   11        8    19  58    5.9995   517.1    5.151      45.568
2014   11        8    20   3    6.0026   517.1    5.154      45.592
2014   11        8    20   9    6.0058   517.2    5.157      45.617
2014   11        8    20  14    6.0089   517.2    5.160      45.641
2014   11        8    20  20    6.0120   517.3    5.163      45.664
2014   11        8    20  25    6.0151   517.3    5.166      45.688
2014   11        8    20  30    6.0182   517.4    5.168      45.711
2014   11        8    20  36    6.0212   517.4    5.171      45.733
2014   11        8    20  41    6.0243   517.5    5.173      45.755
2014   11        8    20  47    6.0273   517.5    5.175      45.776
2014   11        8    20  52    6.0304   517.6    5.178      45.797
2014   11        8    20  58    6.0333   517.6    5.180      45.818
2014   11        8    21   3    6.0363   517.7    5.182      45.838
2014   11        8    21   9    6.0393   517.7    5.184      45.858
2014   11        8    21  14    6.0423   517.8    5.186      45.878
2014   11        8    21  20    6.0453   517.8    5.188      45.898
2014   11        8    21  25    6.0483   517.9    5.190      45.918
2014   11        8    21  30    6.0513   517.9    5.192      45.938
2014   11        8    21  36    6.0542   518.0    5.194      45.958
2014   11        8    21  41    6.0572   518.0    5.196      45.978
2014   11        8    21  47    6.0602   518.1    5.198      45.998
2014   11        8    21  52    6.0632   518.1    5.200      46.019
2014   11        8    21  58    6.0662   518.2    5.203      46.040
2014   11        8    22   3    6.0692   518.2    5.205      46.061
2014   11        8    22   9    6.0722   518.3    5.207      46.083
2014   11        8    22  14    6.0753   518.3    5.210      46.105
2014   11        8    22  20    6.0783   518.4    5.212      46.128
2014   11        8    22  25    6.0814   518.4    5.215      46.152
2014   11        8    22  31    6.0845   518.5    5.218      46.176
2014   11        8    22  36    6.0875   518.5    5.220      46.201
2014   11        8    22  41    6.0907   518.6    5.223      46.226
2014   11        8    22  47    6.0938   518.6    5.227      46.253
2014   11        8    22  52    6.0970   518.7    5.230      46.281
2014   11        8    22  58    6.1002   518.7    5.234      46.310
2014   11        8    23   3    6.1035   518.8    5.237      46.341
2014   11        8    23   9    6.1068   518.9    5.241      46.373
2014   11        8    23  14    6.1101   518.9    5.244      46.407
2014   11        8    23  20    6.1135   519.0    5.248      46.440
2014   11        8    23  25    6.1169   519.1    5.252      46.475
2014   11        8    23  31    6.1203   519.1    5.256      46.510
2014   11        8    23  36    6.1237   519.2    5.259      46.546
2014   11        8    23  42    6.1271   519.3    5.263      46.582
2014   11        8    23  47    6.1306   519.4    5.267      46.619
2014   11        8    23  52    6.1341   519.5    5.270      46.656
2014   11        8    23  58    6.1376   519.6    5.273      46.694
2014   11        9     0   3    6.1411   519.7    5.276      46.731
2014   11        9     0   9    6.1446   519.7    5.280      46.767
2014   11        9     0  14    6.1481   519.8    5.283      46.803
2014   11        9     0  20    6.1516   519.9    5.285      46.839
2014   11        9     0  25    6.1551   520.0    5.288      46.875
2014   11        9     0  31    6.1585   520.1    5.291      46.910
2014   11        9     0  36    6.1620   520.2    5.293      46.944
2014   11        9     0  42    6.1655   520.3    5.296      46.979
2014   11        9     0  47    6.1690   520.4    5.298      47.012
2014   11        9     0  53    6.1726   520.5    5.300      47.045
2014   11        9     0  58    6.1761   520.6    5.302      47.078
2014   11        9     1   4    6.1795   520.7    5.304      47.111
2014   11        9     1   9    6.1831   520.8    5.306      47.143
2014   11        9     1  15    6.1866   520.9    5.308      47.174
2014   11        9     1  20    6.1901   521.0    5.310      47.206
2014   11        9     1  25    6.1937   521.1    5.312      47.237
2014   11        9     1  31    6.1973   521.2    5.314      47.268
2014   11        9     1  36    6.2009   521.3    5.316      47.298
2014   11        9     1  42    6.2045   521.4    5.318      47.329
2014   11        9     1  47    6.2081   521.5    5.320      47.359
2014   11        9     1  53    6.2117   521.6    5.322      47.389
2014   11        9     1  58    6.2153   521.7    5.324      47.420
2014   11        9     2   4    6.2190   521.8    5.326      47.451
2014   11        9     2   9    6.2226   521.9    5.328      47.482
2014   11        9     2  15    6.2263   522.0    5.330      47.513
2014   11        9     2  20    6.2301   522.1    5.332      47.545
2014   11        9     2  26    6.2337   522.2    5.334      47.577
2014   11        9     2  31    6.2375   522.4    5.336      47.608
2014   11        9     2  37    6.2411   522.5    5.338      47.641
2014   11        9     2  42    6.2449   522.6    5.340      47.673
2014   11        9     2  47    6.2485   522.7    5.342      47.705
2014   11        9     2  53    6.2522   522.8    5.344      47.738
2014   11        9     2  58    6.2559   523.0    5.347      47.771
2014   11        9     3   4    6.2595   523.1    5.349      47.804
2014   11        9     3   9    6.2632   523.2    5.351      47.838
2014   11        9     3  15    6.2668   523.4    5.353      47.873
2014   11        9     3  20    6.2704   523.5    5.355      47.909
2014   11        9     3  26    6.2741   523.6    5.358      47.947
2014   11        9     3  31    6.2776   523.8    5.360      47.985
2014   11        9     3  37    6.2812   523.9    5.362      48.024
2014   11        9     3  42    6.2847   524.1    5.364      48.065
2014   11        9     3  48    6.2882   524.2    5.366      48.106
2014   11        9     3  53    6.2917   524.4    5.368      48.148
2014   11        9     3  58    6.2952   524.5    5.369      48.191
2014   11        9     4   4    6.2986   524.7    5.371      48.234
2014   11        9     4   9    6.3020   524.8    5.372      48.277
2014   11        9     4  15    6.3054   525.0    5.373      48.321
2014   11        9     4  20    6.3088   525.1    5.374      48.364
2014   11        9     4  26    6.3121   525.3    5.375      48.407
2014   11        9     4  31    6.3155   525.4    5.376      48.450
2014   11        9     4  37    6.3187   525.6    5.377      48.493
2014   11        9     4  42    6.3221   525.7    5.378      48.536
2014   11        9     4  47    6.3254   525.9    5.379      48.578
2014   11        9     4  53    6.3286   526.0    5.379      48.620
2014   11        9     4  58    6.3319   526.2    5.380      48.662
2014   11        9     5   4    6.3352   526.3    5.381      48.704
2014   11        9     5   9    6.3385   526.4    5.381      48.745
2014   11        9     5  15    6.3418   526.6    5.382      48.787
2014   11        9     5  20    6.3451   526.7    5.383      48.829
2014   11        9     5  26    6.3484   526.9    5.383      48.871
2014   11        9     5  31    6.3516   527.0    5.384      48.913
2014   11        9     5  37    6.3549   527.2    5.385      48.955
2014   11        9     5  42    6.3582   527.3    5.386      48.998
2014   11        9     5  48    6.3615   527.5    5.387      49.041
2014   11        9     5  53    6.3648   527.6    5.388      49.084
2014   11        9     5  58    6.3682   527.7    5.389      49.128
2014   11        9     6   4    6.3715   527.9    5.390      49.172
2014   11        9     6   9    6.3748   528.0    5.392      49.218
2014   11        9     6  15    6.3782   528.2    5.393      49.265
2014   11        9     6  20    6.3816   528.3    5.394      49.313
2014   11        9     6  26    6.3849   528.5    5.396      49.361
2014   11        9     6  31    6.3883   528.7    5.397      49.410
2014   11        9     6  37    6.3917   528.8    5.398      49.459
2014   11        9     6  42    6.3951   529.0    5.400      49.509
2014   11        9     6  48    6.3984   529.1    5.401      49.558
2014   11        9     6  53    6.4018   529.3    5.402      49.608
2014   11        9     6  59    6.4051   529.5    5.403      49.657
2014   11        9     7   4    6.4085   529.6    5.404      49.706
2014   11        9     7   9    6.4118   529.8    5.404      49.754
2014   11        9     7  15    6.4151   530.0    5.405      49.802
2014   11        9     7  20    6.4184   530.1    5.405      49.848
2014   11        9     7  26    6.4217   530.3    5.406      49.894
2014   11        9     7  31    6.4250   530.5    5.406      49.939
2014   11        9     7  37    6.4283   530.6    5.406      49.983
2014   11        9     7  42    6.4315   530.8    5.406      50.026
2014   11        9     7  48    6.4348   531.0    5.406      50.069
2014   11        9     7  53    6.4381   531.1    5.406      50.111
2014   11        9     7  59    6.4414   531.3    5.406      50.152
2014   11        9     8   4    6.4447   531.5    5.406      50.193
2014   11        9     8  10    6.4480   531.6    5.406      50.233
2014   11        9     8  15    6.4512   531.8    5.406      50.273
2014   11        9     8  21    6.4545   532.0    5.406      50.312
2014   11        9     8  26    6.4578   532.2    5.406      50.351
2014   11        9     8  32    6.4611   532.3    5.406      50.389
2014   11        9     8  37    6.4643   532.5    5.406      50.427
2014   11        9     8  42    6.4676   532.7    5.405      50.464
2014   11        9     8  48    6.4709   532.8    5.405      50.501
2014   11        9     8  53    6.4741   533.0    5.405      50.538
2014   11        9     8  59    6.4775   533.2    5.405      50.574
2014   11        9     9   4    6.4807   533.3    5.405      50.610
2014   11        9     9  10    6.4840   533.5    5.405      50.646
2014   11        9     9  15    6.4873   533.7    5.405      50.682
2014   11        9     9  21    6.4904   533.9    5.406      50.718
2014   11        9     9  26    6.4938   534.0    5.406      50.754
2014   11        9     9  32    6.4970   534.2    5.406      50.789
2014   11        9     9  37    6.5003   534.4    5.407      50.826
2014   11        9     9  43    6.5035   534.5    5.408      50.862
2014   11        9     9  48    6.5070   534.7    5.408      50.898
2014   11        9     9  54    6.5102   534.9    5.409      50.935
2014   11        9     9  59    6.5137   535.0    5.411      50.973
2014   11        9    10   4    6.5171   535.2    5.412      51.012
2014   11        9    10  10    6.5205   535.3    5.414      51.052
2014   11        9    10  15    6.5240   535.5    5.416      51.092
2014   11        9    10  21    6.5273   535.7    5.419      51.134
2014   11        9    10  26    6.5308   535.8    5.422      51.178
2014   11        9    10  32    6.5345   536.0    5.425      51.226
2014   11        9    10  37    6.5380   536.2    5.428      51.277
2014   11        9    10  43    6.5417   536.4    5.431      51.332
2014   11        9    10  48    6.5451   536.6    5.435      51.391
2014   11        9    10  54    6.5487   536.8    5.438      51.453
2014   11        9    10  59    6.5523   536.9    5.442      51.517
2014   11        9    11   4    6.5560   537.1    5.446      51.584
2014   11        9    11  10    6.5595   537.3    5.450      51.653
2014   11        9    11  15    6.5629   537.6    5.453      51.725
2014   11        9    11  21    6.5664   537.8    5.457      51.800
2014   11        9    11  26    6.5698   538.0    5.460      51.878
2014   11        9    11  32    6.5731   538.2    5.463      51.957
2014   11        9    11  37    6.5764   538.4    5.465      52.037
2014   11        9    11  42    6.5797   538.7    5.468      52.115
2014   11        9    11  48    6.5829   538.9    5.470      52.194
2014   11        9    11  53    6.5860   539.1    5.471      52.272
2014   11        9    11  59    6.5890   539.3    5.473      52.349
2014   11        9    12   4    6.5920   539.6    5.474      52.425
2014   11        9    12  10    6.5951   539.8    5.475      52.501
2014   11        9    12  15    6.5979   540.1    5.475      52.575
2014   11        9    12  21    6.6009   540.3    5.475      52.648
2014   11        9    12  26    6.6037   540.5    5.475      52.719
2014   11        9    12  32    6.6066   540.8    5.475      52.789
2014   11        9    12  37    6.6094   541.0    5.474      52.856
2014   11        9    12  42    6.6122   541.3    5.474      52.922
2014   11        9    12  48    6.6149   541.5    5.473      52.987
2014   11        9    12  53    6.6177   541.7    5.471      53.050
2014   11        9    12  59    6.6203   542.0    5.470      53.112
2014   11        9    13   4    6.6231   542.2    5.468      53.172
2014   11        9    13  10    6.6257   542.5    5.467      53.232
2014   11        9    13  15    6.6285   542.7    5.465      53.290
2014   11        9    13  21    6.6311   543.0    5.463      53.347
2014   11        9    13  26    6.6338   543.2    5.461      53.403
2014   11        9    13  32    6.6365   543.4    5.459      53.458
2014   11        9    13  37    6.6391   543.7    5.456      53.513
2014   11        9    13  42    6.6418   543.9    5.454      53.566
2014   11        9    13  48    6.6445   544.2    5.451      53.619
2014   11        9    13  53    6.6472   544.4    5.449      53.670
2014   11        9    13  59    6.6498   544.7    5.446      53.722
2014   11        9    14   4    6.6525   544.9    5.444      53.772
2014   11        9    14  10    6.6552   545.2    5.441      53.822
2014   11        9    14  15    6.6578   545.4    5.439      53.871
2014   11        9    14  21    6.6605   545.6    5.436      53.920
2014   11        9    14  26    6.6632   545.9    5.433      53.968
2014   11        9    14  32    6.6659   546.1    5.431      54.016
2014   11        9    14  37    6.6686   546.4    5.428      54.063
2014   11        9    14  43    6.6714   546.6    5.425      54.110
2014   11        9    14  48    6.6741   546.9    5.423      54.157
2014   11        9    14  54    6.6769   547.1    5.420      54.204
2014   11        9    14  59    6.6797   547.3    5.418      54.250
2014   11        9    15   4    6.6826   547.6    5.416      54.297
2014   11        9    15  10    6.6854   547.8    5.413      54.344
2014   11        9    15  15    6.6883   548.1    5.411      54.391
2014   11        9    15  21    6.6912   548.3    5.409      54.438
2014   11        9    15  26    6.6942   548.6    5.408      54.486
2014   11        9    15  32    6.6971   548.8    5.406      54.534
2014   11        9    15  37    6.7001   549.1    5.404      54.584
2014   11        9    15  43    6.7030   549.3    5.403      54.635
2014   11        9    15  48    6.7060   549.6    5.402      54.688
2014   11        9    15  54    6.7089   549.8    5.400      54.742
2014   11        9    15  59    6.7119   550.1    5.399      54.798
2014   11        9    16   5    6.7149   550.3    5.398      54.855
2014   11        9    16  10    6.7178   550.6    5.397      54.912
2014   11        9    16  16    6.7208   550.8    5.396      54.970
2014   11        9    16  21    6.7237   551.1    5.395      55.029
2014   11        9    16  27    6.7265   551.4    5.394      55.089
2014   11        9    16  32    6.7294   551.6    5.393      55.151
2014   11        9    16  37    6.7322   551.9    5.392      55.213
2014   11        9    16  43    6.7350   552.2    5.391      55.275
2014   11        9    16  48    6.7378   552.4    5.390      55.337
2014   11        9    16  54    6.7406   552.7    5.389      55.398
2014   11        9    16  59    6.7433   553.0    5.388      55.460
2014   11        9    17   5    6.7460   553.2    5.387      55.522
2014   11        9    17  10    6.7487   553.5    5.386      55.583
2014   11        9    17  16    6.7514   553.7    5.386      55.645
2014   11        9    17  21    6.7540   554.0    5.385      55.706
2014   11        9    17  27    6.7567   554.3    5.384      55.768
2014   11        9    17  32    6.7593   554.5    5.383      55.829
2014   11        9    17  38    6.7619   554.8    5.383      55.891
2014   11        9    17  43    6.7645   555.0    5.382      55.954
2014   11        9    17  49    6.7672   555.3    5.382      56.018
2014   11        9    17  54    6.7697   555.6    5.381      56.084
2014   11        9    17  59    6.7724   555.8    5.381      56.151
2014   11        9    18   5    6.7749   556.1    5.380      56.219
2014   11        9    18  10    6.7775   556.3    5.380      56.288
2014   11        9    18  16    6.7800   556.6    5.379      56.356
2014   11        9    18  21    6.7825   556.9    5.379      56.425
2014   11        9    18  27    6.7850   557.1    5.378      56.495
2014   11        9    18  32    6.7875   557.4    5.377      56.567
2014   11        9    18  38    6.7898   557.7    5.376      56.639
2014   11        9    18  43    6.7922   558.0    5.375      56.712
2014   11        9    18  48    6.7945   558.2    5.374      56.785
2014   11        9    18  54    6.7968   558.5    5.373      56.857
2014   11        9    18  59    6.7990   558.8    5.371      56.928
2014   11        9    19   5    6.8013   559.1    5.369      56.998
2014   11        9    19  10    6.8034   559.4    5.367      57.067
2014   11        9    19  16    6.8054   559.7    5.365      57.136
2014   11        9    19  21    6.8073   560.0    5.362      57.202
2014   11        9    19  27    6.8094   560.3    5.359      57.269
2014   11        9    19  32    6.8113   560.6    5.356      57.334
2014   11        9    19  38    6.8129   560.9    5.353      57.397
2014   11        9    19  43    6.8147   561.2    5.350      57.459
2014   11        9    19  48    6.8166   561.5    5.346      57.519
2014   11        9    19  54    6.8183   561.8    5.342      57.578
2014   11        9    19  59    6.8200   562.1    5.338      57.635
2014   11        9    20   5    6.8214   562.4    5.334      57.691
2014   11        9    20  10    6.8231   562.7    5.330      57.745
2014   11        9    20  16    6.8245   563.0    5.325      57.798
2014   11        9    20  21    6.8259   563.3    5.321      57.851
2014   11        9    20  27    6.8276   563.6    5.316      57.901
2014   11        9    20  32    6.8288   564.0    5.311      57.951
2014   11        9    20  38    6.8302   564.3    5.306      58.000
2014   11        9    20  43    6.8315   564.6    5.301      58.048
2014   11        9    20  48    6.8328   564.9    5.296      58.095
2014   11        9    20  54    6.8342   565.2    5.291      58.141
2014   11        9    20  59    6.8355   565.5    5.286      58.186
2014   11        9    21   5    6.8366   565.9    5.280      58.231
2014   11        9    21  10    6.8376   566.2    5.275      58.274
2014   11        9    21  16    6.8387   566.5    5.270      58.318
2014   11        9    21  21    6.8400   566.8    5.265      58.360
2014   11        9    21  27    6.8408   567.1    5.259      58.402
2014   11        9    21  32    6.8421   567.4    5.254      58.443
2014   11        9    21  38    6.8428   567.8    5.249      58.484
2014   11        9    21  43    6.8438   568.1    5.244      58.525
2014   11        9    21  49    6.8448   568.4    5.239      58.566
2014   11        9    21  54    6.8457   568.7    5.234      58.606
2014   11        9    22   0    6.8469   569.0    5.229      58.647
2014   11        9    22   5    6.8475   569.3    5.224      58.687
2014   11        9    22  10    6.8486   569.6    5.219      58.729
2014   11        9    22  16    6.8492   570.0    5.215      58.771
2014   11        9    22  21    6.8500   570.3    5.210      58.814
2014   11        9    22  27    6.8508   570.6    5.206      58.858
2014   11        9    22  32    6.8515   570.9    5.201      58.904
2014   11        9    22  38    6.8522   571.2    5.197      58.949
2014   11        9    22  43    6.8532   571.5    5.193      58.995
2014   11        9    22  49    6.8536   571.9    5.189      59.042
2014   11        9    22  54    6.8545   572.2    5.185      59.090
2014   11        9    23   0    6.8547   572.5    5.181      59.141
2014   11        9    23   5    6.8555   572.8    5.177      59.194
2014   11        9    23  11    6.8556   573.1    5.173      59.248
2014   11        9    23  16    6.8563   573.5    5.169      59.303
2014   11        9    23  22    6.8563   573.8    5.165      59.359
2014   11        9    23  27    6.8568   574.1    5.161      59.416
2014   11        9    23  32    6.8566   574.4    5.156      59.473
2014   11        9    23  38    6.8566   574.8    5.152      59.531
2014   11        9    23  43    6.8569   575.1    5.147      59.590
2014   11        9    23  49    6.8568   575.4    5.142      59.649
2014   11        9    23  54    6.8563   575.8    5.137      59.707
2014   11       10     0   0    6.8560   576.1    5.132      59.766
2014   11       10     0   5    6.8556   576.5    5.126      59.822
2014   11       10     0  11    6.8555   576.8    5.120      59.878
2014   11       10     0  16    6.8547   577.1    5.115      59.932
2014   11       10     0  22    6.8544   577.5    5.108      59.984
2014   11       10     0  27    6.8534   577.8    5.102      60.036
2014   11       10     0  33    6.8527   578.1    5.095      60.086
2014   11       10     0  38    6.8519   578.5    5.089      60.134
2014   11       10     0  44    6.8514   578.8    5.082      60.180
2014   11       10     0  49    6.8502   579.1    5.075      60.225
2014   11       10     0  55    6.8492   579.4    5.067      60.268
2014   11       10     1   0    6.8482   579.8    5.060      60.310
2014   11       10     1   5    6.8475   580.1    5.052      60.349
2014   11       10     1  11    6.8460   580.4    5.045      60.388
2014   11       10     1  16    6.8449   580.8    5.037      60.424
2014   11       10     1  22    6.8437   581.1    5.029      60.459
2014   11       10     1  27    6.8427   581.4    5.021      60.493
2014   11       10     1  33    6.8411   581.7    5.013      60.525
2014   11       10     1  38    6.8397   582.1    5.004      60.556
2014   11       10     1  44    6.8387   582.4    4.996      60.585
2014   11       10     1  49    6.8368   582.7    4.987      60.613
2014   11       10     1  54    6.8353   583.0    4.979      60.639
2014   11       10     2   0    6.8337   583.4    4.970      60.664
2014   11       10     2   5    6.8320   583.7    4.962      60.687
2014   11       10     2  11    6.8307   584.0    4.953      60.709
2014   11       10     2  16    6.8289   584.3    4.944      60.729
2014   11       10     2  22    6.8271   584.6    4.935      60.748
2014   11       10     2  27    6.8250   584.9    4.927      60.766
2014   11       10     2  33    6.8231   585.2    4.918      60.783
2014   11       10     2  38    6.8212   585.5    4.909      60.799
2014   11       10     2  43    6.8193   585.8    4.900      60.814
2014   11       10     2  49    6.8174   586.1    4.892      60.830
2014   11       10     2  54    6.8154   586.4    4.883      60.845
2014   11       10     3   0    6.8137   586.6    4.875      60.860
2014   11       10     3   5    6.8117   586.9    4.866      60.875
2014   11       10     3  11    6.8093   587.2    4.858      60.890
2014   11       10     3  16    6.8072   587.5    4.849      60.904
2014   11       10     3  22    6.8055   587.8    4.841      60.919
2014   11       10     3  27    6.8030   588.1    4.833      60.932
2014   11       10     3  33    6.8008   588.4    4.824      60.946
2014   11       10     3  38    6.7990   588.7    4.816      60.958
2014   11       10     3  44    6.7968   589.0    4.808      60.970
2014   11       10     3  49    6.7945   589.3    4.800      60.981
2014   11       10     3  54    6.7918   589.6    4.792      60.991
2014   11       10     4   0    6.7894   589.9    4.784      61.001
2014   11       10     4   5    6.7870   590.2    4.776      61.010
2014   11       10     4  11    6.7849   590.5    4.768      61.019
2014   11       10     4  16    6.7824   590.8    4.760      61.027
2014   11       10     4  22    6.7798   591.1    4.752      61.035
2014   11       10     4  27    6.7773   591.4    4.745      61.043
2014   11       10     4  33    6.7746   591.6    4.737      61.050
2014   11       10     4  38    6.7720   591.9    4.730      61.058
2014   11       10     4  44    6.7692   592.2    4.723      61.066
2014   11       10     4  49    6.7661   592.5    4.716      61.075
2014   11       10     4  55    6.7637   592.7    4.709      61.084
2014   11       10     5   0    6.7606   593.0    4.703      61.093
2014   11       10     5   5    6.7581   593.3    4.696      61.102
2014   11       10     5  11    6.7548   593.5    4.690      61.114
2014   11       10     5  16    6.7523   593.8    4.684      61.126
2014   11       10     5  22    6.7494   594.1    4.678      61.140
2014   11       10     5  27    6.7463   594.4    4.672      61.155
2014   11       10     5  33    6.7433   594.6    4.666      61.171
2014   11       10     5  38    6.7397   594.9    4.660      61.188
2014   11       10     5  44    6.7370   595.1    4.654      61.206
2014   11       10     5  49    6.7338   595.4    4.648      61.223
2014   11       10     5  55    6.7306   595.6    4.643      61.242
2014   11       10     6   0    6.7272   595.9    4.637      61.260
2014   11       10     6   6    6.7235   596.1    4.631      61.278
2014   11       10     6  11    6.7205   596.4    4.625      61.296
2014   11       10     6  17    6.7171   596.6    4.619      61.313
2014   11       10     6  22    6.7131   596.9    4.612      61.329
2014   11       10     6  28    6.7097   597.1    4.606      61.344
2014   11       10     6  33    6.7061   597.4    4.600      61.359
2014   11       10     6  38    6.7025   597.6    4.593      61.372
2014   11       10     6  44    6.6993   597.8    4.587      61.384
2014   11       10     6  49    6.6957   598.1    4.580      61.394
2014   11       10     6  55    6.6916   598.3    4.573      61.404
2014   11       10     7   0    6.6884   598.5    4.567      61.412
2014   11       10     7   6    6.6842   598.8    4.560      61.419
2014   11       10     7  11    6.6809   599.0    4.553      61.425
2014   11       10     7  17    6.6771   599.2    4.546      61.429
2014   11       10     7  22    6.6733   599.4    4.539      61.432
2014   11       10     7  28    6.6695   599.7    4.531      61.434
2014   11       10     7  33    6.6653   599.9    4.524      61.435
2014   11       10     7  39    6.6613   600.1    4.517      61.434
2014   11       10     7  44    6.6575   600.3    4.510      61.432
2014   11       10     7  50    6.6535   600.5    4.502      61.429
2014   11       10     7  55    6.6495   600.7    4.495      61.425
2014   11       10     8   1    6.6455   600.9    4.487      61.420
2014   11       10     8   6    6.6418   601.1    4.480      61.414
2014   11       10     8  11    6.6373   601.4    4.472      61.407
2014   11       10     8  17    6.6336   601.6    4.465      61.398
2014   11       10     8  22    6.6294   601.8    4.457      61.388
2014   11       10     8  28    6.6252   602.0    4.449      61.378
2014   11       10     8  33    6.6210   602.1    4.442      61.366
2014   11       10     8  39    6.6164   602.3    4.434      61.353
2014   11       10     8  44    6.6120   602.5    4.427      61.339
2014   11       10     8  50    6.6081   602.7    4.419      61.325
2014   11       10     8  55    6.6037   602.9    4.412      61.310
2014   11       10     9   0    6.5993   603.1    4.405      61.295
2014   11       10     9   6    6.5949   603.3    4.397      61.279
2014   11       10     9  11    6.5904   603.4    4.390      61.263
2014   11       10     9  17    6.5855   603.6    4.383      61.246
2014   11       10     9  22    6.5811   603.8    4.376      61.229
2014   11       10     9  28    6.5769   604.0    4.370      61.211
2014   11       10     9  33    6.5720   604.1    4.363      61.194
2014   11       10     9  39    6.5678   604.3    4.357      61.177
2014   11       10     9  44    6.5633   604.4    4.351      61.162
2014   11       10     9  49    6.5588   604.6    4.345      61.148
2014   11       10     9  55    6.5543   604.7    4.339      61.136
2014   11       10    10   0    6.5494   604.9    4.333      61.124
2014   11       10    10   6    6.5450   605.1    4.327      61.115
2014   11       10    10  11    6.5407   605.2    4.321      61.106
2014   11       10    10  17    6.5359   605.4    4.315      61.098
2014   11       10    10  22    6.5313   605.6    4.309      61.090
2014   11       10    10  28    6.5267   605.7    4.304      61.082
2014   11       10    10  33    6.5221   605.9    4.298      61.074
2014   11       10    10  39    6.5175   606.1    4.292      61.066
2014   11       10    10  44    6.5130   606.3    4.286      61.057
2014   11       10    10  49    6.5081   606.5    4.280      61.047
2014   11       10    10  55    6.5035   606.6    4.273      61.035
2014   11       10    11   0    6.4985   606.8    4.267      61.022
2014   11       10    11   6    6.4939   607.0    4.261      61.008
2014   11       10    11  11    6.4890   607.1    4.255      60.993
2014   11       10    11  17    6.4841   607.3    4.248      60.977
2014   11       10    11  22    6.4791   607.5    4.242      60.960
2014   11       10    11  28    6.4743   607.6    4.236      60.943
2014   11       10    11  33    6.4692   607.8    4.230      60.925
2014   11       10    11  39    6.4642   607.9    4.224      60.907
2014   11       10    11  44    6.4595   608.1    4.218      60.889
2014   11       10    11  50    6.4545   608.2    4.212      60.871
2014   11       10    11  55    6.4494   608.4    4.206      60.853
2014   11       10    12   1    6.4446   608.5    4.200      60.835
2014   11       10    12   6    6.4395   608.6    4.194      60.818
2014   11       10    12  11    6.4347   608.8    4.189      60.800
2014   11       10    12  17    6.4297   608.9    4.183      60.783
2014   11       10    12  22    6.4249   609.0    4.178      60.767
2014   11       10    12  28    6.4200   609.1    4.173      60.751
2014   11       10    12  33    6.4150   609.3    4.168      60.735
2014   11       10    12  39    6.4103   609.4    4.163      60.721
2014   11       10    12  44    6.4053   609.5    4.158      60.706
2014   11       10    12  50    6.4005   609.6    4.153      60.691
2014   11       10    12  55    6.3957   609.7    4.148      60.677
2014   11       10    13   1    6.3910   609.8    4.143      60.662
2014   11       10    13   6    6.3862   609.9    4.138      60.648
2014   11       10    13  12    6.3815   610.0    4.133      60.633
2014   11       10    13  17    6.3767   610.1    4.128      60.618
2014   11       10    13  23    6.3721   610.2    4.124      60.602
2014   11       10    13  28    6.3674   610.3    4.119      60.587
2014   11       10    13  33    6.3628   610.4    4.114      60.571
2014   11       10    13  39    6.3582   610.5    4.109      60.554
2014   11       10    13  44    6.3536   610.6    4.105      60.538
2014   11       10    13  50    6.3491   610.7    4.100      60.520
2014   11       10    13  55    6.3446   610.7    4.096      60.503
2014   11       10    14   1    6.3402   610.8    4.091      60.485
2014   11       10    14   6    6.3357   610.9    4.087      60.468
2014   11       10    14  12    6.3313   611.0    4.083      60.449
2014   11       10    14  17    6.3269   611.1    4.078      60.431
2014   11       10    14  23    6.3226   611.1    4.074      60.413
2014   11       10    14  28    6.3183   611.2    4.070      60.394
2014   11       10    14  34    6.3139   611.3    4.066      60.375
2014   11       10    14  39    6.3096   611.3    4.062      60.356
2014   11       10    14  45    6.3053   611.4    4.058      60.338
2014   11       10    14  50    6.3011   611.5    4.054      60.319
2014   11       10    14  56    6.2968   611.5    4.050      60.300
2014   11       10    15   1    6.2924   611.6    4.047      60.282
2014   11       10    15   6    6.2881   611.7    4.043      60.264
2014   11       10    15  12    6.2838   611.7    4.040      60.247
2014   11       10    15  17    6.2795   611.8    4.036      60.230
2014   11       10    15  23    6.2752   611.8    4.033      60.215
2014   11       10    15  28    6.2708   611.9    4.030      60.199
2014   11       10    15  34    6.2664   611.9    4.026      60.183
2014   11       10    15  39    6.2621   612.0    4.023      60.167
2014   11       10    15  45    6.2576   612.0    4.020      60.151
2014   11       10    15  50    6.2533   612.1    4.016      60.134
2014   11       10    15  56    6.2489   612.1    4.013      60.118
2014   11       10    16   1    6.2444   612.2    4.009      60.102
2014   11       10    16   6    6.2402   612.2    4.006      60.085
2014   11       10    16  12    6.2358   612.2    4.003      60.068
2014   11       10    16  17    6.2314   612.3    4.000      60.051
2014   11       10    16  23    6.2269   612.3    3.997      60.033
2014   11       10    16  28    6.2226   612.3    3.994      60.017
2014   11       10    16  34    6.2183   612.4    3.991      59.999
2014   11       10    16  39    6.2139   612.4    3.988      59.983
2014   11       10    16  45    6.2096   612.4    3.985      59.967
2014   11       10    16  50    6.2053   612.5    3.982      59.953
2014   11       10    16  55    6.2011   612.5    3.979      59.939
2014   11       10    17   1    6.1967   612.5    3.977      59.926
2014   11       10    17   6    6.1924   612.6    3.974      59.913
2014   11       10    17  12    6.1882   612.6    3.971      59.900
2014   11       10    17  17    6.1839   612.7    3.968      59.887
2014   11       10    17  23    6.1795   612.7    3.965      59.873
2014   11       10    17  28    6.1752   612.8    3.962      59.857
2014   11       10    17  34    6.1709   612.8    3.959      59.841
2014   11       10    17  39    6.1665   612.9    3.955      59.825
2014   11       10    17  45    6.1619   612.9    3.951      59.807
2014   11       10    17  50    6.1575   613.0    3.948      59.787
2014   11       10    17  55    6.1532   613.0    3.944      59.766
2014   11       10    18   1    6.1486   613.0    3.940      59.742
2014   11       10    18   6    6.1441   613.1    3.936      59.718
2014   11       10    18  12    6.1397   613.1    3.931      59.693
2014   11       10    18  17    6.1352   613.2    3.927      59.666
2014   11       10    18  23    6.1307   613.2    3.922      59.638
2014   11       10    18  28    6.1263   613.2    3.918      59.610
2014   11       10    18  34    6.1220   613.3    3.913      59.580
2014   11       10    18  39    6.1175   613.3    3.909      59.550
2014   11       10    18  45    6.1130   613.3    3.904      59.518
2014   11       10    18  50    6.1087   613.4    3.900      59.487
2014   11       10    18  56    6.1041   613.4    3.895      59.454
2014   11       10    19   1    6.0999   613.4    3.890      59.421
2014   11       10    19   6    6.0953   613.4    3.885      59.387
2014   11       10    19  12    6.0910   613.5    3.881      59.353
2014   11       10    19  17    6.0867   613.5    3.876      59.319
2014   11       10    19  23    6.0822   613.5    3.871      59.284
2014   11       10    19  28    6.0778   613.5    3.866      59.248
2014   11       10    19  34    6.0735   613.5    3.862      59.212
2014   11       10    19  39    6.0692   613.6    3.857      59.176
2014   11       10    19  45    6.0647   613.6    3.852      59.140
2014   11       10    19  50    6.0605   613.6    3.848      59.103
2014   11       10    19  56    6.0560   613.6    3.843      59.066
2014   11       10    20   1    6.0517   613.6    3.839      59.029
2014   11       10    20   7    6.0473   613.6    3.834      58.993
2014   11       10    20  12    6.0430   613.6    3.830      58.956
2014   11       10    20  18    6.0388   613.6    3.826      58.921
2014   11       10    20  23    6.0344   613.6    3.821      58.885
2014   11       10    20  28    6.0301   613.6    3.817      58.850
2014   11       10    20  34    6.0258   613.6    3.814      58.816
2014   11       10    20  39    6.0215   613.6    3.810      58.783
2014   11       10    20  45    6.0173   613.6    3.807      58.751
2014   11       10    20  50    6.0132   613.6    3.803      58.720
2014   11       10    20  56    6.0089   613.6    3.800      58.690
2014   11       10    21   1    6.0047   613.6    3.798      58.662
2014   11       10    21   7    6.0007   613.6    3.795      58.635
2014   11       10    21  12    5.9965   613.6    3.793      58.611
2014   11       10    21  18    5.9924   613.6    3.791      58.589
2014   11       10    21  23    5.9884   613.6    3.790      58.569
2014   11       10    21  29    5.9843   613.6    3.788      58.551
2014   11       10    21  34    5.9803   613.6    3.787      58.534
2014   11       10    21  40    5.9763   613.6    3.785      58.519
2014   11       10    21  45    5.9723   613.6    3.784      58.505
2014   11       10    21  51    5.9681   613.6    3.783      58.492
2014   11       10    21  56    5.9641   613.6    3.782      58.480
2014   11       10    22   1    5.9600   613.6    3.782      58.471
2014   11       10    22   7    5.9558   613.7    3.781      58.464
2014   11       10    22  12    5.9516   613.7    3.780      58.456
2014   11       10    22  18    5.9474   613.7    3.779      58.450
2014   11       10    22  23    5.9433   613.7    3.778      58.443
2014   11       10    22  29    5.9389   613.7    3.777      58.436
2014   11       10    22  34    5.9347   613.7    3.775      58.429
2014   11       10    22  40    5.9303   613.7    3.774      58.421
2014   11       10    22  45    5.9260   613.7    3.772      58.412
2014   11       10    22  51    5.9215   613.6    3.770      58.402
2014   11       10    22  56    5.9172   613.6    3.768      58.390
2014   11       10    23   2    5.9128   613.6    3.766      58.377
2014   11       10    23   7    5.9084   613.6    3.764      58.360
2014   11       10    23  12    5.9040   613.6    3.761      58.343
2014   11       10    23  18    5.8994   613.6    3.758      58.323
2014   11       10    23  23    5.8952   613.6    3.755      58.301
2014   11       10    23  29    5.8906   613.5    3.752      58.277
2014   11       10    23  34    5.8862   613.5    3.749      58.251
2014   11       10    23  40    5.8817   613.5    3.746      58.223
2014   11       10    23  45    5.8773   613.5    3.742      58.194
2014   11       10    23  51    5.8730   613.4    3.739      58.163
2014   11       10    23  56    5.8686   613.4    3.735      58.130
2014   11       11     0   2    5.8642   613.4    3.731      58.096
2014   11       11     0   7    5.8599   613.3    3.727      58.060
2014   11       11     0  12    5.8557   613.3    3.723      58.023
2014   11       11     0  18    5.8514   613.2    3.719      57.985
2014   11       11     0  23    5.8471   613.2    3.715      57.944
2014   11       11     0  29    5.8427   613.1    3.711      57.904
2014   11       11     0  34    5.8386   613.1    3.707      57.861
2014   11       11     0  40    5.8342   613.0    3.703      57.818
2014   11       11     0  45    5.8301   613.0    3.699      57.773
2014   11       11     0  50    5.8257   612.9    3.694      57.728
2014   11       11     0  56    5.8217   612.9    3.690      57.681
2014   11       11     1   1    5.8173   612.8    3.686      57.634
2014   11       11     1   7    5.8132   612.8    3.681      57.585
2014   11       11     1  12    5.8090   612.7    3.677      57.536
2014   11       11     1  18    5.8051   612.7    3.673      57.486
2014   11       11     1  23    5.8008   612.6    3.668      57.436
2014   11       11     1  29    5.7967   612.5    3.664      57.385
2014   11       11     1  34    5.7928   612.5    3.659      57.333
2014   11       11     1  40    5.7886   612.4    3.655      57.281
2014   11       11     1  45    5.7846   612.3    3.651      57.228
2014   11       11     1  51    5.7807   612.3    3.646      57.175
2014   11       11     1  56    5.7765   612.2    3.642      57.122
2014   11       11     2   1    5.7725   612.1    3.638      57.068
2014   11       11     2   7    5.7685   612.0    3.634      57.014
2014   11       11     2  12    5.7645   612.0    3.630      56.959
2014   11       11     2  18    5.7605   611.9    3.626      56.905
2014   11       11     2  23    5.7567   611.8    3.622      56.850
2014   11       11     2  29    5.7527   611.7    3.618      56.796
2014   11       11     2  34    5.7485   611.6    3.614      56.741
2014   11       11     2  40    5.7446   611.6    3.610      56.688
2014   11       11     2  45    5.7405   611.5    3.606      56.633
2014   11       11     2  51    5.7365   611.4    3.603      56.580
2014   11       11     2  56    5.7326   611.3    3.599      56.527
2014   11       11     3   2    5.7285   611.2    3.596      56.475
2014   11       11     3   7    5.7243   611.1    3.592      56.423
2014   11       11     3  13    5.7203   611.1    3.589      56.373
2014   11       11     3  18    5.7162   611.0    3.586      56.322
2014   11       11     3  23    5.7122   610.9    3.583      56.274
2014   11       11     3  29    5.7081   610.8    3.580      56.225
2014   11       11     3  34    5.7039   610.7    3.578      56.179
2014   11       11     3  40    5.6998   610.6    3.575      56.133
2014   11       11     3  45    5.6957   610.5    3.573      56.089
2014   11       11     3  51    5.6916   610.4    3.571      56.046
2014   11       11     3  56    5.6875   610.3    3.569      56.004
2014   11       11     4   2    5.6833   610.2    3.567      55.963
2014   11       11     4   7    5.6793   610.1    3.565      55.925
2014   11       11     4  13    5.6751   610.0    3.564      55.889
2014   11       11     4  18    5.6710   609.9    3.562      55.855
2014   11       11     4  24    5.6670   609.8    3.561      55.822
2014   11       11     4  29    5.6628   609.8    3.560      55.791
2014   11       11     4  35    5.6587   609.7    3.558      55.761
2014   11       11     4  40    5.6547   609.6    3.557      55.733
2014   11       11     4  46    5.6505   609.5    3.556      55.704
2014   11       11     4  51    5.6464   609.4    3.555      55.677
2014   11       11     4  56    5.6423   609.3    3.554      55.649
2014   11       11     5   2    5.6382   609.2    3.553      55.622
2014   11       11     5   7    5.6340   609.1    3.552      55.595
2014   11       11     5  13    5.6298   609.0    3.550      55.568
2014   11       11     5  18    5.6256   608.9    3.549      55.539
2014   11       11     5  24    5.6215   608.8    3.548      55.511
2014   11       11     5  29    5.6173   608.7    3.546      55.481
2014   11       11     5  35    5.6131   608.5    3.545      55.451
2014   11       11     5  40    5.6089   608.4    3.543      55.420
2014   11       11     5  46    5.6047   608.3    3.542      55.388
2014   11       11     5  51    5.6006   608.2    3.540      55.355
2014   11       11     5  57    5.5964   608.1    3.538      55.321
2014   11       11     6   2    5.5922   608.0    3.536      55.286
2014   11       11     6   8    5.5881   607.8    3.534      55.251
2014   11       11     6  13    5.5841   607.7    3.533      55.213
2014   11       11     6  18    5.5800   607.6    3.531      55.176
2014   11       11     6  24    5.5759   607.5    3.529      55.136
2014   11       11     6  29    5.5719   607.3    3.527      55.097
2014   11       11     6  35    5.5679   607.2    3.525      55.056
2014   11       11     6  40    5.5640   607.1    3.523      55.015
2014   11       11     6  46    5.5600   606.9    3.521      54.973
2014   11       11     6  51    5.5562   606.8    3.519      54.930
2014   11       11     6  57    5.5523   606.7    3.517      54.887
2014   11       11     7   2    5.5484   606.5    3.515      54.843
2014   11       11     7   7    5.5446   606.4    3.513      54.799
2014   11       11     7  13    5.5409   606.2    3.511      54.754
2014   11       11     7  18    5.5373   606.1    3.509      54.709
2014   11       11     7  24    5.5335   606.0    3.507      54.664
2014   11       11     7  29    5.5299   605.8    3.505      54.619
2014   11       11     7  35    5.5261   605.7    3.503      54.573
2014   11       11     7  40    5.5225   605.5    3.501      54.527
2014   11       11     7  46    5.5188   605.4    3.499      54.481
2014   11       11     7  51    5.5152   605.3    3.498      54.435
2014   11       11     7  56    5.5115   605.1    3.496      54.389
2014   11       11     8   2    5.5079   605.0    3.494      54.342
2014   11       11     8   7    5.5043   604.8    3.492      54.295
2014   11       11     8  13    5.5007   604.7    3.490      54.248
2014   11       11     8  18    5.4971   604.5    3.488      54.201
2014   11       11     8  24    5.4935   604.4    3.486      54.154
2014   11       11     8  29    5.4899   604.3    3.485      54.106
2014   11       11     8  35    5.4862   604.1    3.483      54.059
2014   11       11     8  40    5.4827   604.0    3.481      54.011
2014   11       11     8  46    5.4790   603.8    3.479      53.963
2014   11       11     8  51    5.4755   603.7    3.477      53.915
2014   11       11     8  57    5.4719   603.5    3.475      53.866
2014   11       11     9   2    5.4683   603.4    3.473      53.818
2014   11       11     9   7    5.4646   603.2    3.472      53.769
2014   11       11     9  13    5.4611   603.0    3.470      53.721
2014   11       11     9  18    5.4575   602.9    3.468      53.672
2014   11       11     9  24    5.4539   602.7    3.466      53.624
2014   11       11     9  29    5.4505   602.6    3.465      53.576
2014   11       11     9  35    5.4468   602.4    3.463      53.528
2014   11       11     9  40    5.4434   602.3    3.461      53.480
2014   11       11     9  46    5.4399   602.1    3.460      53.433
2014   11       11     9  51    5.4363   602.0    3.458      53.386
2014   11       11     9  57    5.4327   601.8    3.457      53.339
2014   11       11    10   2    5.4292   601.7    3.455      53.292
2014   11       11    10   8    5.4257   601.5    3.454      53.246
2014   11       11    10  13    5.4221   601.4    3.452      53.199
2014   11       11    10  18    5.4188   601.2    3.451      53.153
2014   11       11    10  24    5.4151   601.1    3.449      53.107
2014   11       11    10  29    5.4116   600.9    3.448      53.060
2014   11       11    10  35    5.4081   600.8    3.446      53.014
2014   11       11    10  40    5.4046   600.6    3.445      52.967
2014   11       11    10  46    5.4010   600.4    3.443      52.920
2014   11       11    10  51    5.3975   600.3    3.442      52.873
2014   11       11    10  57    5.3941   600.1    3.440      52.825
2014   11       11    11   2    5.3906   599.9    3.438      52.777
2014   11       11    11   8    5.3871   599.8    3.437      52.728
2014   11       11    11  13    5.3838   599.6    3.435      52.680
2014   11       11    11  19    5.3804   599.4    3.433      52.630
2014   11       11    11  24    5.3768   599.3    3.431      52.580
2014   11       11    11  30    5.3735   599.1    3.429      52.529
2014   11       11    11  35    5.3700   598.9    3.427      52.479
2014   11       11    11  41    5.3664   598.7    3.426      52.427
2014   11       11    11  46    5.3632   598.5    3.424      52.375
2014   11       11    11  51    5.3598   598.4    3.422      52.322
2014   11       11    11  57    5.3562   598.2    3.420      52.269
2014   11       11    12   2    5.3528   598.0    3.418      52.216
2014   11       11    12   8    5.3495   597.8    3.416      52.162
2014   11       11    12  13    5.3460   597.6    3.414      52.108
2014   11       11    12  19    5.3427   597.4    3.412      52.053
2014   11       11    12  24    5.3392   597.2    3.410      51.999
2014   11       11    12  30    5.3360   597.0    3.408      51.944
2014   11       11    12  35    5.3325   596.9    3.406      51.889
2014   11       11    12  41    5.3291   596.7    3.404      51.834
2014   11       11    12  46    5.3258   596.5    3.402      51.779
2014   11       11    12  52    5.3226   596.3    3.400      51.724
2014   11       11    12  57    5.3193   596.1    3.398      51.668
2014   11       11    13   3    5.3160   595.9    3.396      51.613
2014   11       11    13   8    5.3127   595.6    3.394      51.557
2014   11       11    13  13    5.3093   595.4    3.392      51.502
2014   11       11    13  19    5.3061   595.2    3.390      51.446
2014   11       11    13  24    5.3028   595.0    3.389      51.390
2014   11       11    13  30    5.2996   594.8    3.387      51.334
2014   11       11    13  35    5.2964   594.6    3.385      51.279
2014   11       11    13  41    5.2932   594.4    3.383      51.222
2014   11       11    13  46    5.2901   594.2    3.382      51.167
2014   11       11    13  52    5.2869   594.0    3.380      51.111
2014   11       11    13  57    5.2838   593.7    3.378      51.056
2014   11       11    14   3    5.2807   593.5    3.377      51.000
2014   11       11    14   8    5.2776   593.3    3.375      50.946
2014   11       11    14  13    5.2745   593.1    3.374      50.891
2014   11       11    14  19    5.2715   592.9    3.373      50.837
2014   11       11    14  24    5.2685   592.7    3.372      50.783
2014   11       11    14  30    5.2655   592.5    3.370      50.730
2014   11       11    14  35    5.2625   592.2    3.369      50.677
2014   11       11    14  41    5.2595   592.0    3.369      50.625
2014   11       11    14  46    5.2565   591.8    3.368      50.574
2014   11       11    14  52    5.2536   591.6    3.367      50.523
2014   11       11    14  57    5.2506   591.4    3.366      50.473
2014   11       11    15   2    5.2476   591.2    3.366      50.424
2014   11       11    15   8    5.2447   591.0    3.365      50.374
2014   11       11    15  13    5.2417   590.8    3.365      50.326
2014   11       11    15  19    5.2387   590.6    3.364      50.278
2014   11       11    15  24    5.2357   590.4    3.364      50.231
2014   11       11    15  30    5.2326   590.1    3.364      50.184
2014   11       11    15  35    5.2296   589.9    3.363      50.138
2014   11       11    15  41    5.2265   589.7    3.363      50.092
2014   11       11    15  46    5.2235   589.5    3.363      50.047
2014   11       11    15  52    5.2204   589.3    3.363      50.002
2014   11       11    15  57    5.2173   589.1    3.362      49.958
2014   11       11    16   2    5.2142   588.9    3.362      49.914
2014   11       11    16   8    5.2111   588.7    3.362      49.870
2014   11       11    16  13    5.2080   588.5    3.362      49.827
2014   11       11    16  19    5.2049   588.3    3.362      49.783
2014   11       11    16  24    5.2017   588.0    3.362      49.740
2014   11       11    16  30    5.1986   587.8    3.362      49.697
2014   11       11    16  35    5.1955   587.6    3.362      49.655
2014   11       11    16  41    5.1924   587.4    3.362      49.612
2014   11       11    16  46    5.1894   587.2    3.362      49.570
2014   11       11    16  52    5.1863   586.9    3.362      49.529
2014   11       11    16  57    5.1833   586.7    3.363      49.487
2014   11       11    17   3    5.1803   586.5    3.363      49.446
2014   11       11    17   8    5.1773   586.3    3.364      49.406
2014   11       11    17  13    5.1744   586.0    3.364      49.366
2014   11       11    17  19    5.1715   585.8    3.365      49.327
2014   11       11    17  24    5.1686   585.6    3.366      49.289
2014   11       11    17  30    5.1658   585.3    3.367      49.251
2014   11       11    17  35    5.1631   585.1    3.368      49.215
2014   11       11    17  41    5.1604   584.9    3.369      49.179
2014   11       11    17  46    5.1577   584.7    3.371      49.144
2014   11       11    17  52    5.1551   584.4    3.372      49.110
2014   11       11    17  57    5.1525   584.2    3.373      49.077
2014   11       11    18   3    5.1500   584.0    3.375      49.044
2014   11       11    18   8    5.1475   583.8    3.376      49.011
2014   11       11    18  14    5.1450   583.6    3.378      48.979
2014   11       11    18  19    5.1425   583.3    3.379      48.947
2014   11       11    18  25    5.1401   583.1    3.380      48.914
2014   11       11    18  30    5.1376   582.9    3.381      48.880
2014   11       11    18  36    5.1351   582.7    3.382      48.846
2014   11       11    18  41    5.1325   582.5    3.383      48.811
2014   11       11    18  46    5.1300   582.3    3.383      48.774
2014   11       11    18  52    5.1274   582.1    3.384      48.738
2014   11       11    18  57    5.1249   581.9    3.384      48.699
2014   11       11    19   3    5.1222   581.7    3.384      48.659
2014   11       11    19   8    5.1197   581.5    3.384      48.618
2014   11       11    19  14    5.1171   581.3    3.384      48.575
2014   11       11    19  19    5.1143   581.1    3.383      48.531
2014   11       11    19  25    5.1117   580.9    3.383      48.486
2014   11       11    19  30    5.1090   580.7    3.382      48.440
2014   11       11    19  36    5.1064   580.5    3.382      48.393
2014   11       11    19  41    5.1038   580.3    3.381      48.344
2014   11       11    19  47    5.1011   580.1    3.380      48.295
2014   11       11    19  52    5.0984   579.9    3.379      48.244
2014   11       11    19  58    5.0955   579.7    3.378      48.193
2014   11       11    20   3    5.0930   579.5    3.376      48.140
2014   11       11    20   8    5.0902   579.3    3.375      48.087
2014   11       11    20  14    5.0875   579.1    3.374      48.033
2014   11       11    20  19    5.0848   578.9    3.372      47.978
2014   11       11    20  25    5.0819   578.7    3.371      47.923
2014   11       11    20  30    5.0793   578.5    3.369      47.867
2014   11       11    20  36    5.0767   578.2    3.368      47.809
2014   11       11    20  41    5.0740   578.0    3.366      47.752
2014   11       11    20  47    5.0713   577.8    3.364      47.693
2014   11       11    20  52    5.0685   577.6    3.363      47.634
2014   11       11    20  58    5.0659   577.4    3.361      47.574
2014   11       11    21   3    5.0633   577.2    3.359      47.514
2014   11       11    21   9    5.0606   576.9    3.357      47.452
2014   11       11    21  14    5.0578   576.7    3.355      47.390
2014   11       11    21  19    5.0552   576.5    3.354      47.328
2014   11       11    21  25    5.0525   576.3    3.352      47.265
2014   11       11    21  30    5.0500   576.0    3.350      47.201
2014   11       11    21  36    5.0473   575.8    3.348      47.138
2014   11       11    21  41    5.0448   575.6    3.346      47.074
2014   11       11    21  47    5.0421   575.3    3.344      47.010
2014   11       11    21  52    5.0395   575.1    3.343      46.945
2014   11       11    21  58    5.0370   574.8    3.341      46.881
2014   11       11    22   3    5.0343   574.6    3.339      46.816
2014   11       11    22   8    5.0318   574.4    3.337      46.751
2014   11       11    22  14    5.0292   574.1    3.335      46.686
2014   11       11    22  19    5.0268   573.9    3.334      46.621
2014   11       11    22  25    5.0241   573.6    3.332      46.556
2014   11       11    22  30    5.0217   573.4    3.330      46.492
2014   11       11    22  36    5.0192   573.1    3.329      46.426
2014   11       11    22  41    5.0167   572.9    3.327      46.362
2014   11       11    22  47    5.0142   572.6    3.325      46.297
2014   11       11    22  52    5.0116   572.4    3.324      46.233
2014   11       11    22  57    5.0092   572.1    3.323      46.169
2014   11       11    23   3    5.0066   571.8    3.321      46.105
2014   11       11    23   8    5.0042   571.6    3.320      46.042
2014   11       11    23  14    5.0017   571.3    3.319      45.979
2014   11       11    23  19    4.9991   571.1    3.317      45.916
2014   11       11    23  25    4.9968   570.8    3.316      45.854
2014   11       11    23  30    4.9942   570.5    3.315      45.793
2014   11       11    23  36    4.9919   570.3    3.314      45.732
2014   11       11    23  41    4.9894   570.0    3.314      45.672
2014   11       11    23  47    4.9870   569.7    3.313      45.613
2014   11       11    23  52    4.9846   569.4    3.312      45.555
2014   11       11    23  58    4.9822   569.2    3.312      45.498
2014   11       12     0   3    4.9799   568.9    3.312      45.443
2014   11       12     0   8    4.9776   568.6    3.311      45.388
2014   11       12     0  14    4.9753   568.4    3.311      45.335
2014   11       12     0  19    4.9730   568.1    3.312      45.284
2014   11       12     0  25    4.9708   567.8    3.312      45.234
2014   11       12     0  30    4.9686   567.6    3.313      45.185
2014   11       12     0  36    4.9664   567.3    3.313      45.138
2014   11       12     0  41    4.9643   567.1    3.314      45.094
2014   11       12     0  47    4.9622   566.8    3.315      45.051
2014   11       12     0  52    4.9601   566.5    3.317      45.010
2014   11       12     0  58    4.9581   566.3    3.318      44.970
2014   11       12     1   3    4.9560   566.0    3.320      44.933
2014   11       12     1   9    4.9540   565.8    3.322      44.897
2014   11       12     1  14    4.9520   565.6    3.324      44.862
2014   11       12     1  20    4.9499   565.3    3.325      44.829
2014   11       12     1  25    4.9478   565.1    3.327      44.796
2014   11       12     1  30    4.9457   564.9    3.329      44.763
2014   11       12     1  36    4.9436   564.6    3.331      44.731
2014   11       12     1  41    4.9415   564.4    3.333      44.698
2014   11       12     1  47    4.9393   564.2    3.334      44.665
2014   11       12     1  52    4.9371   563.9    3.336      44.632
2014   11       12     1  58    4.9349   563.7    3.337      44.597
2014   11       12     2   3    4.9325   563.5    3.339      44.562
2014   11       12     2   9    4.9302   563.2    3.340      44.526
2014   11       12     2  14    4.9278   563.0    3.341      44.489
2014   11       12     2  20    4.9254   562.8    3.342      44.451
2014   11       12     2  25    4.9229   562.5    3.343      44.412
2014   11       12     2  31    4.9204   562.3    3.344      44.372
2014   11       12     2  36    4.9179   562.1    3.345      44.331
2014   11       12     2  42    4.9154   561.8    3.346      44.290
2014   11       12     2  47    4.9128   561.6    3.346      44.248
2014   11       12     2  53    4.9103   561.4    3.347      44.206
2014   11       12     2  58    4.9078   561.1    3.348      44.163
2014   11       12     3   3    4.9051   560.9    3.349      44.120
2014   11       12     3   9    4.9026   560.6    3.349      44.076
2014   11       12     3  14    4.9000   560.4    3.350      44.033
2014   11       12     3  20    4.8975   560.1    3.351      43.989
2014   11       12     3  25    4.8949   559.9    3.352      43.945
2014   11       12     3  31    4.8924   559.6    3.353      43.901
2014   11       12     3  36    4.8899   559.4    3.353      43.857
2014   11       12     3  42    4.8874   559.1    3.354      43.813
2014   11       12     3  47    4.8850   558.9    3.355      43.770
2014   11       12     3  53    4.8825   558.6    3.356      43.727
2014   11       12     3  58    4.8801   558.4    3.357      43.685
2014   11       12     4   4    4.8777   558.1    3.358      43.642
2014   11       12     4   9    4.8753   557.9    3.359      43.600
2014   11       12     4  14    4.8729   557.6    3.360      43.557
2014   11       12     4  20    4.8706   557.4    3.361      43.515
2014   11       12     4  25    4.8683   557.1    3.362      43.473
2014   11       12     4  31    4.8660   556.9    3.363      43.431
2014   11       12     4  36    4.8637   556.6    3.364      43.388
2014   11       12     4  42    4.8614   556.4    3.365      43.346
2014   11       12     4  47    4.8591   556.1    3.366      43.304
2014   11       12     4  53    4.8569   555.9    3.367      43.262
2014   11       12     4  58    4.8546   555.6    3.368      43.219
2014   11       12     5   3    4.8524   555.3    3.369      43.176
2014   11       12     5   9    4.8503   555.1    3.369      43.133
2014   11       12     5  14    4.8481   554.8    3.370      43.090
2014   11       12     5  20    4.8459   554.6    3.371      43.047
2014   11       12     5  25    4.8438   554.3    3.371      43.004
2014   11       12     5  31    4.8416   554.1    3.372      42.961
2014   11       12     5  36    4.8396   553.8    3.373      42.918
2014   11       12     5  42    4.8374   553.6    3.373      42.876
2014   11       12     5  47    4.8354   553.3    3.374      42.833
2014   11       12     5  53    4.8333   553.1    3.375      42.791
2014   11       12     5  58    4.8313   552.8    3.375      42.748
2014   11       12     6   3    4.8292   552.6    3.375      42.705
2014   11       12     6   9    4.8272   552.3    3.376      42.661
2014   11       12     6  14    4.8251   552.1    3.376      42.617
2014   11       12     6  20    4.8229   551.8    3.376      42.573
2014   11       12     6  25    4.8210   551.6    3.376      42.528
2014   11       12     6  31    4.8188   551.3    3.376      42.482
2014   11       12     6  36    4.8167   551.1    3.376      42.435
2014   11       12     6  42    4.8146   550.8    3.375      42.388
2014   11       12     6  47    4.8126   550.6    3.375      42.340
2014   11       12     6  53    4.8106   550.3    3.374      42.291
2014   11       12     6  58    4.8085   550.1    3.374      42.240
2014   11       12     7   3    4.8064   549.8    3.373      42.190
2014   11       12     7   9    4.8043   549.6    3.373      42.139
2014   11       12     7  14    4.8021   549.3    3.372      42.087
2014   11       12     7  20    4.8002   549.1    3.371      42.035
2014   11       12     7  25    4.7981   548.8    3.370      41.983
2014   11       12     7  31    4.7960   548.6    3.370      41.930
2014   11       12     7  36    4.7939   548.3    3.369      41.877
2014   11       12     7  42    4.7919   548.1    3.368      41.823
2014   11       12     7  47    4.7899   547.8    3.367      41.770
2014   11       12     7  53    4.7878   547.6    3.366      41.716
2014   11       12     7  58    4.7858   547.3    3.365      41.662
2014   11       12     8   4    4.7838   547.1    3.364      41.608
2014   11       12     8   9    4.7817   546.8    3.363      41.553
2014   11       12     8  15    4.7797   546.6    3.362      41.499
2014   11       12     8  20    4.7776   546.3    3.361      41.444
2014   11       12     8  25    4.7755   546.1    3.360      41.389
2014   11       12     8  31    4.7735   545.8    3.359      41.334
2014   11       12     8  36    4.7715   545.6    3.358      41.279
2014   11       12     8  42    4.7694   545.3    3.357      41.223
2014   11       12     8  47    4.7673   545.1    3.356      41.167
2014   11       12     8  53    4.7652   544.8    3.355      41.112
2014   11       12     8  58    4.7629   544.5    3.354      41.055
2014   11       12     9   4    4.7609   544.3    3.353      40.999
2014   11       12     9   9    4.7587   544.0    3.352      40.942
2014   11       12     9  15    4.7565   543.8    3.351      40.885
2014   11       12     9  20    4.7544   543.5    3.350      40.828
2014   11       12     9  26    4.7522   543.2    3.350      40.771
2014   11       12     9  31    4.7499   542.9    3.349      40.713
2014   11       12     9  37    4.7478   542.7    3.348      40.656
2014   11       12     9  42    4.7456   542.4    3.347      40.599
2014   11       12     9  48    4.7434   542.1    3.346      40.541
2014   11       12     9  53    4.7411   541.8    3.346      40.484
2014   11       12     9  58    4.7389   541.5    3.345      40.427
2014   11       12    10   4    4.7367   541.2    3.345      40.371
2014   11       12    10   9    4.7345   541.0    3.344      40.315
2014   11       12    10  15    4.7323   540.7    3.344      40.259
2014   11       12    10  20    4.7301   540.4    3.344      40.204
2014   11       12    10  26    4.7279   540.1    3.343      40.149
2014   11       12    10  31    4.7258   539.8    3.343      40.096
2014   11       12    10  37    4.7236   539.5    3.344      40.043
2014   11       12    10  42    4.7215   539.2    3.344      39.991
2014   11       12    10  48    4.7194   538.9    3.344      39.939
2014   11       12    10  53    4.7173   538.6    3.345      39.889
2014   11       12    10  59    4.7152   538.3    3.345      39.840
2014   11       12    11   4    4.7132   538.0    3.346      39.792
2014   11       12    11  10    4.7112   537.7    3.347      39.745
2014   11       12    11  15    4.7092   537.4    3.348      39.700
2014   11       12    11  20    4.7073   537.1    3.349      39.655
2014   11       12    11  26    4.7053   536.8    3.350      39.613
2014   11       12    11  31    4.7034   536.5    3.352      39.571
2014   11       12    11  37    4.7015   536.2    3.353      39.530
2014   11       12    11  42    4.6997   535.9    3.355      39.490
2014   11       12    11  48    4.6978   535.6    3.357      39.452
2014   11       12    11  53    4.6960   535.3    3.359      39.414
2014   11       12    11  59    4.6943   535.0    3.361      39.377
2014   11       12    12   4    4.6925   534.7    3.363      39.341
2014   11       12    12   9    4.6908   534.4    3.365      39.306
2014   11       12    12  15    4.6890   534.1    3.367      39.272
2014   11       12    12  20    4.6873   533.8    3.369      39.239
2014   11       12    12  26    4.6855   533.6    3.371      39.206
2014   11       12    12  31    4.6838   533.3    3.374      39.174
2014   11       12    12  37    4.6821   533.0    3.376      39.142
2014   11       12    12  42    4.6805   532.7    3.379      39.111
2014   11       12    12  48    4.6788   532.4    3.381      39.081
2014   11       12    12  53    4.6772   532.1    3.384      39.052
2014   11       12    12  58    4.6755   531.8    3.387      39.024
2014   11       12    13   4    4.6738   531.5    3.390      38.996
2014   11       12    13   9    4.6722   531.2    3.393      38.968
2014   11       12    13  15    4.6705   531.0    3.395      38.941
2014   11       12    13  20    4.6688   530.7    3.398      38.914
2014   11       12    13  26    4.6672   530.4    3.401      38.888
2014   11       12    13  31    4.6655   530.1    3.404      38.861
2014   11       12    13  37    4.6639   529.9    3.407      38.834
2014   11       12    13  42    4.6621   529.6    3.410      38.807
2014   11       12    13  48    4.6605   529.3    3.413      38.779
2014   11       12    13  53    4.6588   529.0    3.415      38.751
2014   11       12    13  58    4.6571   528.8    3.418      38.723
2014   11       12    14   4    4.6554   528.5    3.421      38.694
2014   11       12    14   9    4.6537   528.2    3.424      38.664
2014   11       12    14  15    4.6520   527.9    3.426      38.634
2014   11       12    14  20    4.6503   527.7    3.429      38.604
2014   11       12    14  26    4.6486   527.4    3.431      38.573
2014   11       12    14  31    4.6468   527.1    3.434      38.542
2014   11       12    14  37    4.6451   526.9    3.437      38.510
2014   11       12    14  42    4.6434   526.6    3.439      38.479
2014   11       12    14  48    4.6417   526.3    3.442      38.446
2014   11       12    14  53    4.6399   526.0    3.444      38.414
2014   11       12    14  59    4.6382   525.8    3.446      38.382
2014   11       12    15   4    4.6365   525.5    3.449      38.349
2014   11       12    15  10    4.6348   525.2    3.451      38.316
2014   11       12    15  15    4.6331   524.9    3.453      38.282
2014   11       12    15  20    4.6314   524.7    3.456      38.249
2014   11       12    15  26    4.6296   524.4    3.458      38.215
2014   11       12    15  31    4.6279   524.1    3.460      38.181
2014   11       12    15  37    4.6262   523.8    3.462      38.147
2014   11       12    15  42    4.6245   523.6    3.464      38.112
2014   11       12    15  48    4.6228   523.3    3.466      38.078
2014   11       12    15  53    4.6211   523.0    3.468      38.043
2014   11       12    15  59    4.6194   522.7    3.470      38.008
2014   11       12    16   4    4.6177   522.4    3.471      37.973
2014   11       12    16  10    4.6160   522.2    3.473      37.937
2014   11       12    16  15    4.6144   521.9    3.475      37.901
2014   11       12    16  21    4.6127   521.6    3.476      37.865
2014   11       12    16  26    4.6110   521.3    3.478      37.828
2014   11       12    16  32    4.6094   521.0    3.479      37.792
2014   11       12    16  37    4.6079   520.8    3.481      37.755
2014   11       12    16  42    4.6063   520.5    3.482      37.718
2014   11       12    16  48    4.6046   520.2    3.484      37.680
2014   11       12    16  53    4.6031   519.9    3.485      37.643
2014   11       12    16  59    4.6016   519.6    3.486      37.605
2014   11       12    17   4    4.5999   519.3    3.488      37.567
2014   11       12    17  10    4.5985   519.1    3.489      37.529
2014   11       12    17  15    4.5970   518.8    3.490      37.491
2014   11       12    17  21    4.5956   518.5    3.491      37.452
2014   11       12    17  26    4.5940   518.2    3.492      37.414
2014   11       12    17  32    4.5927   517.9    3.493      37.375
2014   11       12    17  37    4.5912   517.6    3.494      37.336
2014   11       12    17  43    4.5900   517.3    3.495      37.296
2014   11       12    17  48    4.5886   517.1    3.496      37.257
2014   11       12    17  54    4.5872   516.8    3.497      37.217
2014   11       12    17  59    4.5860   516.5    3.498      37.177
2014   11       12    18   5    4.5846   516.2    3.499      37.137
2014   11       12    18  10    4.5833   515.9    3.500      37.097
2014   11       12    18  15    4.5821   515.6    3.501      37.056
2014   11       12    18  21    4.5808   515.3    3.502      37.016
2014   11       12    18  26    4.5796   515.0    3.502      36.974
2014   11       12    18  32    4.5784   514.7    3.503      36.934
2014   11       12    18  37    4.5772   514.5    3.504      36.892
2014   11       12    18  43    4.5761   514.2    3.505      36.851
2014   11       12    18  48    4.5750   513.9    3.506      36.809
2014   11       12    18  54    4.5737   513.6    3.507      36.767
2014   11       12    18  59    4.5726   513.3    3.508      36.725
2014   11       12    19   5    4.5716   513.0    3.508      36.683
2014   11       12    19  10    4.5704   512.7    3.509      36.641
2014   11       12    19  15    4.5693   512.4    3.510      36.600
2014   11       12    19  21    4.5681   512.1    3.511      36.557
2014   11       12    19  26    4.5671   511.8    3.512      36.516
2014   11       12    19  32    4.5660   511.5    3.513      36.474
2014   11       12    19  37    4.5649   511.2    3.515      36.432
2014   11       12    19  43    4.5639   511.0    3.516      36.391
2014   11       12    19  48    4.5627   510.7    3.517      36.350
2014   11       12    19  54    4.5616   510.4    3.518      36.308
2014   11       12    19  59    4.5607   510.1    3.520      36.267
2014   11       12    20   4    4.5596   509.8    3.521      36.226
2014   11       12    20  10    4.5585   509.5    3.522      36.185
2014   11       12    20  15    4.5574   509.2    3.524      36.144
2014   11       12    20  21    4.5563   508.9    3.526      36.104
2014   11       12    20  26    4.5552   508.6    3.527      36.063
2014   11       12    20  32    4.5541   508.4    3.529      36.022
2014   11       12    20  37    4.5531   508.1    3.531      35.981
2014   11       12    20  43    4.5520   507.8    3.532      35.941
2014   11       12    20  48    4.5509   507.5    3.534      35.900
2014   11       12    20  53    4.5498   507.2    3.536      35.860
2014   11       12    20  59    4.5487   506.9    3.538      35.819
2014   11       12    21   4    4.5477   506.6    3.540      35.779
2014   11       12    21  10    4.5466   506.3    3.542      35.738
2014   11       12    21  15    4.5455   506.0    3.544      35.698
2014   11       12    21  21    4.5445   505.7    3.546      35.658
2014   11       12    21  26    4.5434   505.4    3.549      35.619
2014   11       12    21  32    4.5423   505.1    3.551      35.579
2014   11       12    21  37    4.5412   504.9    3.553      35.540
2014   11       12    21  43    4.5402   504.6    3.556      35.501
2014   11       12    21  48    4.5392   504.3    3.558      35.462
2014   11       12    21  54    4.5381   504.0    3.561      35.424
2014   11       12    21  59    4.5371   503.7    3.564      35.386
2014   11       12    22   5    4.5360   503.4    3.567      35.349
2014   11       12    22  10    4.5350   503.1    3.569      35.311
2014   11       12    22  15    4.5339   502.8    3.572      35.274
2014   11       12    22  21    4.5329   502.5    3.575      35.238
2014   11       12    22  26    4.5319   502.2    3.578      35.201
2014   11       12    22  32    4.5309   501.9    3.581      35.166
2014   11       12    22  37    4.5299   501.7    3.584      35.130
2014   11       12    22  43    4.5288   501.4    3.588      35.095
2014   11       12    22  48    4.5278   501.1    3.591      35.060
2014   11       12    22  54    4.5268   500.8    3.594      35.026
2014   11       12    22  59    4.5259   500.5    3.597      34.992
2014   11       12    23   5    4.5249   500.2    3.601      34.958
2014   11       12    23  10    4.5239   499.9    3.604      34.925
2014   11       12    23  16    4.5230   499.6    3.608      34.892
2014   11       12    23  21    4.5221   499.3    3.611      34.859
2014   11       12    23  27    4.5212   499.0    3.615      34.828
2014   11       12    23  32    4.5203   498.7    3.618      34.796
2014   11       12    23  37    4.5194   498.4    3.622      34.765
2014   11       12    23  43    4.5186   498.1    3.625      34.734
2014   11       12    23  48    4.5178   497.8    3.629      34.704
2014   11       12    23  54    4.5170   497.5    3.633      34.673
2014   11       12    23  59    4.5163   497.2    3.637      34.644
2014   11       13     0   5    4.5155   496.9    3.641      34.615
2014   11       13     0  10    4.5148   496.6    3.645      34.586
2014   11       13     0  16    4.5141   496.3    3.649      34.558
2014   11       13     0  21    4.5135   496.0    3.653      34.530
2014   11       13     0  27    4.5129   495.7    3.657      34.503
2014   11       13     0  32    4.5124   495.4    3.661      34.476
2014   11       13     0  38    4.5118   495.1    3.666      34.449
2014   11       13     0  43    4.5113   494.8    3.670      34.423
2014   11       13     0  49    4.5109   494.5    3.675      34.398
2014   11       13     0  54    4.5105   494.2    3.679      34.373
2014   11       13     1   0    4.5102   493.9    3.684      34.348
2014   11       13     1   5    4.5098   493.6    3.688      34.325
2014   11       13     1  10    4.5095   493.3    3.693      34.301
2014   11       13     1  16    4.5093   493.0    3.698      34.278
2014   11       13     1  21    4.5091   492.7    3.703      34.255
2014   11       13     1  27    4.5090   492.4    3.708      34.233
2014   11       13     1  32    4.5090   492.1    3.713      34.211
2014   11       13     1  38    4.5088   491.8    3.718      34.189
2014   11       13     1  43    4.5087   491.5    3.723      34.167
2014   11       13     1  49    4.5087   491.3    3.728      34.146
2014   11       13     1  54    4.5089   491.0    3.733      34.125
2014   11       13     2   0    4.5088   490.7    3.738      34.104
2014   11       13     2   5    4.5089   490.4    3.743      34.083
2014   11       13     2  10    4.5089   490.1    3.748      34.062
2014   11       13     2  16    4.5091   489.8    3.753      34.040
2014   11       13     2  21    4.5091   489.6    3.758      34.019
2014   11       13     2  27    4.5092   489.3    3.763      33.996
2014   11       13     2  32    4.5094   489.0    3.768      33.974
2014   11       13     2  38    4.5095   488.7    3.773      33.951
2014   11       13     2  43    4.5095   488.5    3.778      33.928
2014   11       13     2  49    4.5097   488.2    3.783      33.904
2014   11       13     2  54    4.5097   487.9    3.787      33.879
2014   11       13     3   0    4.5098   487.7    3.792      33.854
2014   11       13     3   5    4.5099   487.4    3.796      33.829
2014   11       13     3  10    4.5101   487.1    3.801      33.802
2014   11       13     3  16    4.5100   486.9    3.805      33.775
2014   11       13     3  21    4.5103   486.6    3.809      33.748
2014   11       13     3  27    4.5103   486.3    3.813      33.720
2014   11       13     3  32    4.5104   486.1    3.817      33.691
2014   11       13     3  38    4.5103   485.8    3.821      33.661
2014   11       13     3  43    4.5106   485.5    3.825      33.631
2014   11       13     3  49    4.5106   485.3    3.829      33.601
2014   11       13     3  54    4.5107   485.0    3.832      33.570
2014   11       13     3  59    4.5106   484.7    3.836      33.538
2014   11       13     4   5    4.5108   484.5    3.840      33.506
2014   11       13     4  10    4.5108   484.2    3.843      33.474
2014   11       13     4  16    4.5107   483.9    3.846      33.441
2014   11       13     4  21    4.5109   483.7    3.850      33.408
2014   11       13     4  27    4.5109   483.4    3.853      33.374
2014   11       13     4  32    4.5108   483.2    3.856      33.340
2014   11       13     4  38    4.5108   482.9    3.859      33.305
2014   11       13     4  43    4.5110   482.6    3.862      33.270
2014   11       13     4  49    4.5111   482.4    3.865      33.234
2014   11       13     4  54    4.5111   482.1    3.868      33.198
2014   11       13     5   0    4.5110   481.8    3.871      33.162
2014   11       13     5   5    4.5111   481.6    3.874      33.125
2014   11       13     5  10    4.5110   481.3    3.877      33.088
2014   11       13     5  16    4.5111   481.1    3.880      33.051
2014   11       13     5  21    4.5111   480.8    3.883      33.013
2014   11       13     5  27    4.5111   480.5    3.885      32.975
2014   11       13     5  32    4.5112   480.3    3.888      32.937
2014   11       13     5  38    4.5112   480.0    3.891      32.898
2014   11       13     5  43    4.5113   479.7    3.893      32.859
2014   11       13     5  49    4.5114   479.5    3.896      32.820
2014   11       13     5  54    4.5114   479.2    3.899      32.781
2014   11       13     6   0    4.5116   478.9    3.901      32.742
2014   11       13     6   5    4.5115   478.7    3.904      32.702
2014   11       13     6  11    4.5116   478.4    3.906      32.663
2014   11       13     6  16    4.5118   478.1    3.909      32.623
2014   11       13     6  21    4.5119   477.8    3.912      32.583
2014   11       13     6  27    4.5119   477.6    3.914      32.543
2014   11       13     6  32    4.5120   477.3    3.917      32.504
2014   11       13     6  38    4.5123   477.0    3.920      32.464
2014   11       13     6  43    4.5123   476.8    3.922      32.424
2014   11       13     6  49    4.5125   476.5    3.925      32.385
2014   11       13     6  54    4.5128   476.2    3.928      32.345
2014   11       13     7   0    4.5129   475.9    3.931      32.306
2014   11       13     7   5    4.5133   475.6    3.934      32.267
2014   11       13     7  11    4.5134   475.4    3.936      32.228
2014   11       13     7  16    4.5138   475.1    3.940      32.190
2014   11       13     7  22    4.5140   474.8    3.943      32.152
2014   11       13     7  27    4.5145   474.5    3.946      32.115
2014   11       13     7  33    4.5147   474.3    3.949      32.077
2014   11       13     7  38    4.5152   474.0    3.953      32.041
2014   11       13     7  44    4.5156   473.7    3.956      32.004
2014   11       13     7  49    4.5161   473.4    3.960      31.969
2014   11       13     7  54    4.5166   473.2    3.963      31.933
2014   11       13     8   0    4.5171   472.9    3.967      31.898
2014   11       13     8   5    4.5176   472.6    3.971      31.864
2014   11       13     8  11    4.5180   472.3    3.975      31.830
2014   11       13     8  16    4.5187   472.0    3.979      31.797
2014   11       13     8  22    4.5194   471.8    3.984      31.764
2014   11       13     8  27    4.5199   471.5    3.988      31.732
2014   11       13     8  33    4.5206   471.2    3.993      31.700
2014   11       13     8  38    4.5214   470.9    3.997      31.669
2014   11       13     8  44    4.5221   470.7    4.002      31.639
2014   11       13     8  49    4.5228   470.4    4.007      31.609
2014   11       13     8  55    4.5237   470.1    4.012      31.580
2014   11       13     9   0    4.5245   469.9    4.018      31.551
2014   11       13     9   5    4.5253   469.6    4.023      31.523
2014   11       13     9  11    4.5262   469.3    4.028      31.496
2014   11       13     9  16    4.5271   469.0    4.034      31.469
2014   11       13     9  22    4.5281   468.8    4.040      31.443
2014   11       13     9  27    4.5291   468.5    4.046      31.418
2014   11       13     9  33    4.5301   468.3    4.052      31.393
2014   11       13     9  38    4.5311   468.0    4.058      31.369
2014   11       13     9  44    4.5322   467.7    4.064      31.345
2014   11       13     9  49    4.5332   467.5    4.070      31.321
2014   11       13     9  55    4.5342   467.2    4.076      31.297
2014   11       13    10   0    4.5353   467.0    4.083      31.274
2014   11       13    10   5    4.5364   466.7    4.089      31.251
2014   11       13    10  11    4.5375   466.4    4.095      31.227
2014   11       13    10  16    4.5387   466.2    4.102      31.204
2014   11       13    10  22    4.5398   465.9    4.108      31.181
2014   11       13    10  27    4.5409   465.7    4.115      31.158
2014   11       13    10  33    4.5420   465.4    4.121      31.134
2014   11       13    10  38    4.5432   465.2    4.127      31.110
2014   11       13    10  44    4.5444   464.9    4.134      31.087
2014   11       13    10  49    4.5455   464.6    4.140      31.063
2014   11       13    10  54    4.5468   464.4    4.146      31.039
2014   11       13    11   0    4.5480   464.1    4.153      31.014
2014   11       13    11   5    4.5491   463.9    4.159      30.990
2014   11       13    11  11    4.5504   463.6    4.165      30.965
2014   11       13    11  16    4.5516   463.4    4.172      30.941
2014   11       13    11  22    4.5527   463.1    4.178      30.916
2014   11       13    11  27    4.5539   462.9    4.184      30.891
2014   11       13    11  33    4.5552   462.6    4.190      30.866
2014   11       13    11  38    4.5565   462.4    4.196      30.842
2014   11       13    11  44    4.5577   462.1    4.203      30.817
2014   11       13    11  49    4.5590   461.9    4.209      30.792
2014   11       13    11  55    4.5603   461.6    4.215      30.767
2014   11       13    12   0    4.5616   461.4    4.221      30.742
2014   11       13    12   5    4.5628   461.1    4.227      30.717
2014   11       13    12  11    4.5641   460.8    4.233      30.692
2014   11       13    12  16    4.5654   460.6    4.239      30.666
2014   11       13    12  22    4.5668   460.3    4.245      30.641
2014   11       13    12  27    4.5683   460.1    4.251      30.616
2014   11       13    12  33    4.5695   459.9    4.257      30.591
2014   11       13    12  38    4.5709   459.6    4.263      30.565
2014   11       13    12  44    4.5723   459.4    4.269      30.540
2014   11       13    12  49    4.5738   459.1    4.275      30.515
2014   11       13    12  55    4.5753   458.9    4.281      30.489
2014   11       13    13   0    4.5768   458.6    4.287      30.463
2014   11       13    13   6    4.5781   458.4    4.293      30.438
2014   11       13    13  11    4.5798   458.1    4.299      30.412
2014   11       13    13  16    4.5812   457.9    4.304      30.386
2014   11       13    13  22    4.5827   457.6    4.310      30.360
2014   11       13    13  27    4.5843   457.4    4.316      30.334
2014   11       13    13  33    4.5859   457.1    4.321      30.308
2014   11       13    13  38    4.5873   456.9    4.327      30.281
2014   11       13    13  44    4.5889   456.7    4.332      30.255
2014   11       13    13  49    4.5907   456.4    4.338      30.228
2014   11       13    13  55    4.5922   456.2    4.343      30.202
2014   11       13    14   0    4.5939   455.9    4.348      30.175
2014   11       13    14   6    4.5954   455.7    4.354      30.148
2014   11       13    14  11    4.5972   455.5    4.359      30.121
2014   11       13    14  17    4.5989   455.2    4.364      30.094
2014   11       13    14  22    4.6006   455.0    4.370      30.067
2014   11       13    14  28    4.6022   454.7    4.375      30.039
2014   11       13    14  33    4.6039   454.5    4.380      30.012
2014   11       13    14  38    4.6058   454.2    4.385      29.984
2014   11       13    14  44    4.6076   454.0    4.390      29.957
2014   11       13    14  49    4.6094   453.8    4.395      29.929
2014   11       13    14  55    4.6112   453.5    4.400      29.901
2014   11       13    15   0    4.6130   453.3    4.405      29.873
2014   11       13    15   6    4.6148   453.1    4.410      29.846
2014   11       13    15  11    4.6167   452.8    4.415      29.817
2014   11       13    15  17    4.6184   452.6    4.420      29.789
2014   11       13    15  22    4.6203   452.3    4.425      29.761
2014   11       13    15  28    4.6223   452.1    4.430      29.733
2014   11       13    15  33    4.6241   451.9    4.435      29.705
2014   11       13    15  39    4.6261   451.6    4.440      29.677
2014   11       13    15  44    4.6281   451.4    4.445      29.649
2014   11       13    15  50    4.6299   451.2    4.450      29.621
2014   11       13    15  55    4.6319   450.9    4.455      29.593
2014   11       13    16   0    4.6340   450.7    4.460      29.565
2014   11       13    16   6    4.6360   450.5    4.466      29.537
2014   11       13    16  11    4.6379   450.2    4.471      29.509
2014   11       13    16  17    4.6399   450.0    4.476      29.481
2014   11       13    16  22    4.6420   449.7    4.481      29.454
2014   11       13    16  28    4.6442   449.5    4.487      29.426
2014   11       13    16  33    4.6463   449.3    4.492      29.399
2014   11       13    16  39    4.6483   449.0    4.498      29.372
2014   11       13    16  44    4.6506   448.8    4.503      29.346
2014   11       13    16  50    4.6528   448.6    4.509      29.319
2014   11       13    16  55    4.6548   448.3    4.514      29.293
2014   11       13    17   1    4.6570   448.1    4.520      29.267
2014   11       13    17   6    4.6593   447.9    4.526      29.241
2014   11       13    17  11    4.6616   447.6    4.532      29.216
2014   11       13    17  17    4.6639   447.4    4.538      29.191
2014   11       13    17  22    4.6662   447.2    4.545      29.166
2014   11       13    17  28    4.6685   446.9    4.551      29.142
2014   11       13    17  33    4.6709   446.7    4.558      29.118
2014   11       13    17  39    4.6733   446.5    4.564      29.095
2014   11       13    17  44    4.6757   446.2    4.571      29.072
2014   11       13    17  49    4.6781   446.0    4.578      29.049
2014   11       13    17  55    4.6806   445.8    4.585      29.026
2014   11       13    18   0    4.6830   445.6    4.592      29.004
2014   11       13    18   6    4.6855   445.3    4.599      28.983
2014   11       13    18  11    4.6880   445.1    4.606      28.961
2014   11       13    18  17    4.6906   444.9    4.614      28.940
2014   11       13    18  22    4.6932   444.6    4.622      28.920
2014   11       13    18  28    4.6957   444.4    4.629      28.899
2014   11       13    18  33    4.6983   444.2    4.637      28.880
2014   11       13    18  39    4.7009   443.9    4.645      28.860
2014   11       13    18  44    4.7036   443.7    4.653      28.841
2014   11       13    18  49    4.7062   443.5    4.661      28.822
2014   11       13    18  55    4.7089   443.3    4.669      28.804
2014   11       13    19   0    4.7116   443.0    4.678      28.786
2014   11       13    19   6    4.7144   442.8    4.686      28.768
2014   11       13    19  11    4.7172   442.6    4.695      28.751
2014   11       13    19  17    4.7199   442.3    4.703      28.734
2014   11       13    19  22    4.7228   442.1    4.712      28.717
2014   11       13    19  28    4.7256   441.9    4.721      28.701
2014   11       13    19  33    4.7285   441.7    4.730      28.685
2014   11       13    19  39    4.7313   441.4    4.739      28.669
2014   11       13    19  44    4.7341   441.2    4.748      28.653
2014   11       13    19  50    4.7370   441.0    4.757      28.638
2014   11       13    19  55    4.7400   440.8    4.766      28.623
2014   11       13    20   0    4.7430   440.6    4.775      28.608
2014   11       13    20   6    4.7459   440.3    4.784      28.593
2014   11       13    20  11    4.7488   440.1    4.793      28.579
2014   11       13    20  17    4.7519   439.9    4.802      28.564
2014   11       13    20  22    4.7548   439.7    4.811      28.550
2014   11       13    20  28    4.7579   439.4    4.820      28.535
2014   11       13    20  33    4.7610   439.2    4.829      28.521
2014   11       13    20  39    4.7640   439.0    4.838      28.507
2014   11       13    20  44    4.7670   438.8    4.847      28.493
2014   11       13    20  50    4.7702   438.6    4.856      28.479
2014   11       13    20  55    4.7732   438.3    4.865      28.465
2014   11       13    21   1    4.7765   438.1    4.874      28.450
2014   11       13    21   6    4.7796   437.9    4.883      28.436
2014   11       13    21  12    4.7828   437.7    4.892      28.422
2014   11       13    21  17    4.7860   437.5    4.901      28.408
2014   11       13    21  23    4.7894   437.2    4.910      28.394
2014   11       13    21  28    4.7926   437.0    4.919      28.380
2014   11       13    21  33    4.7960   436.8    4.928      28.365
2014   11       13    21  39    4.7993   436.6    4.936      28.351
2014   11       13    21  44    4.8027   436.4    4.945      28.337
2014   11       13    21  50    4.8061   436.2    4.954      28.323
2014   11       13    21  55    4.8095   435.9    4.963      28.308
2014   11       13    22   1    4.8129   435.7    4.971      28.294
2014   11       13    22   6    4.8164   435.5    4.980      28.279
2014   11       13    22  12    4.8199   435.3    4.988      28.265
2014   11       13    22  17    4.8237   435.1    4.997      28.250
2014   11       13    22  23    4.8271   434.9    5.005      28.235
2014   11       13    22  28    4.8308   434.7    5.014      28.221
2014   11       13    22  34    4.8345   434.4    5.022      28.206
2014   11       13    22  39    4.8382   434.2    5.031      28.191
2014   11       13    22  45    4.8419   434.0    5.039      28.176
2014   11       13    22  50    4.8457   433.8    5.048      28.161
2014   11       13    22  55    4.8495   433.6    5.056      28.147
2014   11       13    23   1    4.8534   433.4    5.065      28.132
2014   11       13    23   6    4.8574   433.2    5.073      28.117
2014   11       13    23  12    4.8614   433.0    5.081      28.102
2014   11       13    23  17    4.8652   432.8    5.090      28.087
2014   11       13    23  23    4.8693   432.6    5.098      28.072
2014   11       13    23  28    4.8732   432.4    5.106      28.057
2014   11       13    23  34    4.8774   432.2    5.115      28.042
2014   11       13    23  39    4.8815   432.0    5.123      28.027
2014   11       13    23  45    4.8855   431.8    5.132      28.012
2014   11       13    23  50    4.8898   431.6    5.140      27.998
2014   11       13    23  56    4.8938   431.4    5.149      27.983
2014   11       14     0   1    4.8980   431.2    5.157      27.969
