year    month   day   hour  minute  B_enl V_enl   n_enl       T_enl
[year] [month] [day] [hour][minute] [nT]  [km/s]  [cm-3]      [kK]
2014   11        9     0   2    6.0627   532.1    5.000      49.283
2014   11        9     0   7    6.0660   532.1    5.003      49.307
2014   11        9     0  12    6.0694   532.2    5.005      49.331
2014   11        9     0  17    6.0726   532.3    5.008      49.356
2014   11        9     0  23    6.0759   532.3    5.011      49.380
2014   11        9     0  28    6.0792   532.4    5.013      49.405
2014   11        9     0  33    6.0825   532.4    5.016      49.430
2014   11        9     0  39    6.0858   532.5    5.018      49.455
2014   11        9     0  44    6.0891   532.6    5.021      49.481
2014   11        9     0  49    6.0924   532.6    5.023      49.507
2014   11        9     0  54    6.0957   532.7    5.026      49.533
2014   11        9     1   0    6.0989   532.8    5.028      49.560
2014   11        9     1   5    6.1023   532.8    5.030      49.587
2014   11        9     1  10    6.1055   532.9    5.033      49.614
2014   11        9     1  16    6.1088   533.0    5.035      49.642
2014   11        9     1  21    6.1120   533.0    5.037      49.670
2014   11        9     1  26    6.1153   533.1    5.040      49.699
2014   11        9     1  31    6.1185   533.1    5.042      49.727
2014   11        9     1  37    6.1218   533.2    5.044      49.755
2014   11        9     1  42    6.1250   533.3    5.046      49.784
2014   11        9     1  47    6.1282   533.3    5.048      49.812
2014   11        9     1  53    6.1314   533.4    5.050      49.841
2014   11        9     1  58    6.1347   533.4    5.052      49.869
2014   11        9     2   3    6.1379   533.5    5.054      49.898
2014   11        9     2   8    6.1411   533.6    5.056      49.926
2014   11        9     2  14    6.1444   533.6    5.058      49.954
2014   11        9     2  19    6.1476   533.7    5.059      49.982
2014   11        9     2  24    6.1508   533.8    5.061      50.010
2014   11        9     2  30    6.1540   533.8    5.063      50.037
2014   11        9     2  35    6.1572   533.9    5.065      50.064
2014   11        9     2  40    6.1604   533.9    5.066      50.091
2014   11        9     2  45    6.1637   534.0    5.068      50.118
2014   11        9     2  51    6.1669   534.1    5.069      50.144
2014   11        9     2  56    6.1701   534.1    5.071      50.171
2014   11        9     3   1    6.1734   534.2    5.073      50.197
2014   11        9     3   7    6.1766   534.2    5.074      50.223
2014   11        9     3  12    6.1799   534.3    5.076      50.249
2014   11        9     3  17    6.1831   534.4    5.077      50.275
2014   11        9     3  22    6.1864   534.4    5.079      50.301
2014   11        9     3  28    6.1897   534.5    5.080      50.326
2014   11        9     3  33    6.1929   534.5    5.082      50.352
2014   11        9     3  38    6.1963   534.6    5.083      50.378
2014   11        9     3  44    6.1996   534.7    5.085      50.404
2014   11        9     3  49    6.2029   534.7    5.087      50.430
2014   11        9     3  54    6.2062   534.8    5.089      50.456
2014   11        9     3  59    6.2095   534.9    5.090      50.483
2014   11        9     4   5    6.2129   534.9    5.092      50.510
2014   11        9     4  10    6.2163   535.0    5.094      50.537
2014   11        9     4  15    6.2196   535.0    5.096      50.565
2014   11        9     4  21    6.2231   535.1    5.098      50.593
2014   11        9     4  26    6.2265   535.2    5.100      50.622
2014   11        9     4  31    6.2299   535.3    5.102      50.652
2014   11        9     4  37    6.2333   535.3    5.105      50.683
2014   11        9     4  42    6.2368   535.4    5.107      50.715
2014   11        9     4  47    6.2402   535.5    5.109      50.748
2014   11        9     4  52    6.2436   535.6    5.112      50.781
2014   11        9     4  58    6.2471   535.6    5.114      50.816
2014   11        9     5   3    6.2505   535.7    5.116      50.851
2014   11        9     5   8    6.2540   535.8    5.119      50.887
2014   11        9     5  14    6.2574   535.9    5.121      50.924
2014   11        9     5  19    6.2608   536.0    5.124      50.962
2014   11        9     5  24    6.2643   536.1    5.126      51.000
2014   11        9     5  29    6.2677   536.2    5.129      51.039
2014   11        9     5  35    6.2711   536.3    5.131      51.078
2014   11        9     5  40    6.2745   536.4    5.133      51.117
2014   11        9     5  45    6.2779   536.5    5.136      51.158
2014   11        9     5  51    6.2813   536.6    5.138      51.198
2014   11        9     5  56    6.2847   536.7    5.140      51.239
2014   11        9     6   1    6.2880   536.8    5.143      51.281
2014   11        9     6   6    6.2915   536.9    5.145      51.322
2014   11        9     6  12    6.2947   537.0    5.148      51.363
2014   11        9     6  17    6.2981   537.1    5.150      51.406
2014   11        9     6  22    6.3014   537.2    5.152      51.448
2014   11        9     6  28    6.3048   537.3    5.154      51.491
2014   11        9     6  33    6.3080   537.4    5.157      51.535
2014   11        9     6  38    6.3114   537.5    5.159      51.579
2014   11        9     6  43    6.3146   537.6    5.161      51.623
2014   11        9     6  49    6.3178   537.7    5.163      51.666
2014   11        9     6  54    6.3211   537.8    5.165      51.709
2014   11        9     6  59    6.3243   537.9    5.167      51.753
2014   11        9     7   5    6.3275   538.1    5.169      51.796
2014   11        9     7  10    6.3307   538.2    5.171      51.839
2014   11        9     7  15    6.3338   538.3    5.172      51.881
2014   11        9     7  20    6.3370   538.4    5.174      51.923
2014   11        9     7  26    6.3401   538.5    5.176      51.965
2014   11        9     7  31    6.3433   538.6    5.177      52.006
2014   11        9     7  36    6.3464   538.7    5.179      52.047
2014   11        9     7  42    6.3496   538.9    5.181      52.088
2014   11        9     7  47    6.3527   539.0    5.182      52.128
2014   11        9     7  52    6.3559   539.1    5.184      52.168
2014   11        9     7  57    6.3590   539.2    5.185      52.208
2014   11        9     8   3    6.3622   539.3    5.187      52.249
2014   11        9     8   8    6.3654   539.4    5.189      52.289
2014   11        9     8  13    6.3686   539.5    5.191      52.329
2014   11        9     8  19    6.3719   539.7    5.193      52.370
2014   11        9     8  24    6.3751   539.8    5.194      52.411
2014   11        9     8  29    6.3783   539.9    5.196      52.454
2014   11        9     8  34    6.3815   540.0    5.198      52.498
2014   11        9     8  40    6.3848   540.2    5.200      52.543
2014   11        9     8  45    6.3880   540.3    5.202      52.589
2014   11        9     8  50    6.3912   540.4    5.204      52.636
2014   11        9     8  56    6.3944   540.5    5.205      52.682
2014   11        9     9   1    6.3975   540.7    5.207      52.730
2014   11        9     9   6    6.4007   540.8    5.208      52.777
2014   11        9     9  11    6.4038   540.9    5.210      52.825
2014   11        9     9  17    6.4069   541.1    5.211      52.873
2014   11        9     9  22    6.4100   541.2    5.212      52.921
2014   11        9     9  27    6.4130   541.3    5.213      52.969
2014   11        9     9  33    6.4161   541.5    5.214      53.016
2014   11        9     9  38    6.4191   541.6    5.214      53.062
2014   11        9     9  43    6.4220   541.7    5.215      53.108
2014   11        9     9  48    6.4250   541.9    5.215      53.153
2014   11        9     9  54    6.4279   542.0    5.216      53.198
2014   11        9     9  59    6.4308   542.1    5.216      53.242
2014   11        9    10   4    6.4337   542.2    5.216      53.286
2014   11        9    10  10    6.4366   542.4    5.216      53.330
2014   11        9    10  15    6.4395   542.5    5.216      53.373
2014   11        9    10  20    6.4423   542.6    5.216      53.416
2014   11        9    10  25    6.4451   542.7    5.216      53.459
2014   11        9    10  31    6.4479   542.9    5.216      53.502
2014   11        9    10  36    6.4508   543.0    5.216      53.545
2014   11        9    10  41    6.4536   543.1    5.216      53.587
2014   11        9    10  47    6.4565   543.2    5.216      53.630
2014   11        9    10  52    6.4593   543.3    5.216      53.672
2014   11        9    10  57    6.4621   543.5    5.215      53.715
2014   11        9    11   2    6.4648   543.6    5.215      53.758
2014   11        9    11   8    6.4677   543.7    5.215      53.800
2014   11        9    11  13    6.4704   543.8    5.215      53.843
2014   11        9    11  18    6.4732   543.9    5.215      53.885
2014   11        9    11  24    6.4761   544.1    5.215      53.928
2014   11        9    11  29    6.4789   544.2    5.215      53.971
2014   11        9    11  34    6.4816   544.3    5.215      54.015
2014   11        9    11  39    6.4844   544.4    5.216      54.058
2014   11        9    11  45    6.4872   544.5    5.216      54.102
2014   11        9    11  50    6.4901   544.7    5.216      54.148
2014   11        9    11  55    6.4930   544.8    5.217      54.193
2014   11        9    12   1    6.4959   544.9    5.217      54.240
2014   11        9    12   6    6.4987   545.0    5.217      54.288
2014   11        9    12  11    6.5015   545.1    5.218      54.336
2014   11        9    12  16    6.5045   545.3    5.219      54.385
2014   11        9    12  22    6.5073   545.4    5.219      54.435
2014   11        9    12  27    6.5101   545.5    5.220      54.485
2014   11        9    12  32    6.5131   545.7    5.221      54.537
2014   11        9    12  38    6.5160   545.8    5.222      54.589
2014   11        9    12  43    6.5188   545.9    5.223      54.643
2014   11        9    12  48    6.5216   546.1    5.224      54.698
2014   11        9    12  53    6.5244   546.2    5.225      54.754
2014   11        9    12  59    6.5274   546.3    5.225      54.810
2014   11        9    13   4    6.5301   546.5    5.226      54.867
2014   11        9    13   9    6.5329   546.6    5.227      54.924
2014   11        9    13  15    6.5356   546.8    5.228      54.981
2014   11        9    13  20    6.5385   546.9    5.229      55.038
2014   11        9    13  25    6.5411   547.1    5.229      55.095
2014   11        9    13  30    6.5437   547.2    5.230      55.151
2014   11        9    13  36    6.5463   547.4    5.230      55.207
2014   11        9    13  41    6.5488   547.5    5.230      55.262
2014   11        9    13  46    6.5513   547.7    5.231      55.316
2014   11        9    13  52    6.5539   547.8    5.231      55.370
2014   11        9    13  57    6.5564   548.0    5.231      55.422
2014   11        9    14   2    6.5588   548.1    5.231      55.473
2014   11        9    14   7    6.5612   548.3    5.231      55.523
2014   11        9    14  13    6.5634   548.4    5.231      55.572
2014   11        9    14  18    6.5657   548.6    5.230      55.621
2014   11        9    14  23    6.5682   548.7    5.230      55.670
2014   11        9    14  29    6.5704   548.9    5.230      55.717
2014   11        9    14  34    6.5727   549.0    5.230      55.765
2014   11        9    14  39    6.5751   549.2    5.230      55.812
2014   11        9    14  44    6.5774   549.3    5.230      55.858
2014   11        9    14  50    6.5797   549.5    5.230      55.905
2014   11        9    14  55    6.5820   549.6    5.231      55.952
2014   11        9    15   0    6.5842   549.8    5.231      55.999
2014   11        9    15   6    6.5867   549.9    5.231      56.046
2014   11        9    15  11    6.5889   550.1    5.232      56.094
2014   11        9    15  16    6.5914   550.2    5.233      56.142
2014   11        9    15  21    6.5937   550.3    5.234      56.190
2014   11        9    15  27    6.5963   550.5    5.236      56.239
2014   11        9    15  32    6.5987   550.6    5.237      56.291
2014   11        9    15  37    6.6012   550.8    5.239      56.345
2014   11        9    15  43    6.6038   551.0    5.241      56.402
2014   11        9    15  48    6.6064   551.1    5.243      56.461
2014   11        9    15  53    6.6090   551.3    5.245      56.522
2014   11        9    15  58    6.6116   551.5    5.247      56.585
2014   11        9    16   4    6.6142   551.6    5.249      56.650
2014   11        9    16   9    6.6167   551.8    5.251      56.717
2014   11        9    16  14    6.6193   552.0    5.253      56.786
2014   11        9    16  20    6.6217   552.2    5.256      56.856
2014   11        9    16  25    6.6242   552.4    5.257      56.928
2014   11        9    16  30    6.6268   552.6    5.259      57.001
2014   11        9    16  35    6.6292   552.8    5.261      57.074
2014   11        9    16  41    6.6315   553.0    5.262      57.146
2014   11        9    16  46    6.6338   553.2    5.263      57.217
2014   11        9    16  51    6.6360   553.4    5.264      57.286
2014   11        9    16  57    6.6382   553.5    5.265      57.355
2014   11        9    17   2    6.6403   553.7    5.265      57.423
2014   11        9    17   7    6.6424   554.0    5.266      57.490
2014   11        9    17  12    6.6444   554.1    5.266      57.555
2014   11        9    17  18    6.6464   554.4    5.266      57.619
2014   11        9    17  23    6.6485   554.5    5.265      57.681
2014   11        9    17  28    6.6504   554.7    5.265      57.742
2014   11        9    17  34    6.6524   554.9    5.264      57.803
2014   11        9    17  39    6.6543   555.1    5.263      57.862
2014   11        9    17  44    6.6561   555.3    5.262      57.920
2014   11        9    17  49    6.6580   555.5    5.261      57.978
2014   11        9    17  55    6.6599   555.7    5.260      58.035
2014   11        9    18   0    6.6617   555.9    5.259      58.092
2014   11        9    18   5    6.6636   556.1    5.257      58.148
2014   11        9    18  11    6.6655   556.3    5.256      58.203
2014   11        9    18  16    6.6673   556.5    5.254      58.259
2014   11        9    18  21    6.6692   556.7    5.253      58.313
2014   11        9    18  26    6.6710   556.9    5.251      58.368
2014   11        9    18  32    6.6729   557.1    5.249      58.422
2014   11        9    18  37    6.6747   557.3    5.248      58.476
2014   11        9    18  42    6.6765   557.5    5.246      58.530
2014   11        9    18  48    6.6784   557.7    5.244      58.584
2014   11        9    18  53    6.6802   557.9    5.242      58.637
2014   11        9    18  58    6.6820   558.1    5.240      58.690
2014   11        9    19   3    6.6839   558.3    5.238      58.743
2014   11        9    19   9    6.6857   558.5    5.236      58.797
2014   11        9    19  14    6.6875   558.7    5.234      58.850
2014   11        9    19  19    6.6894   558.9    5.232      58.904
2014   11        9    19  25    6.6912   559.1    5.230      58.957
2014   11        9    19  30    6.6931   559.3    5.228      59.011
2014   11        9    19  35    6.6950   559.5    5.227      59.065
2014   11        9    19  41    6.6968   559.7    5.225      59.120
2014   11        9    19  46    6.6987   559.9    5.223      59.175
2014   11        9    19  51    6.7007   560.1    5.222      59.230
2014   11        9    19  56    6.7026   560.3    5.220      59.286
2014   11        9    20   2    6.7046   560.5    5.219      59.343
2014   11        9    20   7    6.7065   560.7    5.218      59.401
2014   11        9    20  12    6.7085   560.9    5.217      59.461
2014   11        9    20  18    6.7105   561.1    5.216      59.521
2014   11        9    20  23    6.7124   561.3    5.215      59.583
2014   11        9    20  28    6.7143   561.5    5.214      59.645
2014   11        9    20  33    6.7163   561.7    5.213      59.708
2014   11        9    20  39    6.7181   561.9    5.212      59.770
2014   11        9    20  44    6.7200   562.1    5.210      59.833
2014   11        9    20  49    6.7218   562.3    5.209      59.894
2014   11        9    20  55    6.7235   562.6    5.208      59.955
2014   11        9    21   0    6.7252   562.8    5.206      60.015
2014   11        9    21   5    6.7268   563.0    5.204      60.075
2014   11        9    21  10    6.7284   563.2    5.202      60.133
2014   11        9    21  16    6.7300   563.5    5.200      60.189
2014   11        9    21  21    6.7314   563.7    5.198      60.243
2014   11        9    21  26    6.7329   563.9    5.195      60.296
2014   11        9    21  32    6.7343   564.1    5.193      60.348
2014   11        9    21  37    6.7357   564.4    5.190      60.398
2014   11        9    21  42    6.7370   564.6    5.188      60.448
2014   11        9    21  47    6.7384   564.8    5.185      60.496
2014   11        9    21  53    6.7397   565.0    5.182      60.543
2014   11        9    21  58    6.7410   565.2    5.179      60.590
2014   11        9    22   3    6.7423   565.5    5.177      60.636
2014   11        9    22   9    6.7436   565.7    5.174      60.681
2014   11        9    22  14    6.7448   565.9    5.171      60.726
2014   11        9    22  19    6.7461   566.1    5.168      60.770
2014   11        9    22  24    6.7474   566.3    5.166      60.815
2014   11        9    22  30    6.7486   566.6    5.163      60.858
2014   11        9    22  35    6.7498   566.8    5.161      60.903
2014   11        9    22  40    6.7512   567.0    5.159      60.947
2014   11        9    22  46    6.7524   567.2    5.156      60.993
2014   11        9    22  51    6.7537   567.4    5.154      61.038
2014   11        9    22  56    6.7548   567.7    5.152      61.085
2014   11        9    23   1    6.7561   567.9    5.150      61.132
2014   11        9    23   7    6.7574   568.1    5.149      61.180
2014   11        9    23  12    6.7586   568.4    5.147      61.229
2014   11        9    23  17    6.7599   568.6    5.146      61.278
2014   11        9    23  23    6.7611   568.8    5.145      61.328
2014   11        9    23  28    6.7623   569.0    5.144      61.381
2014   11        9    23  33    6.7637   569.3    5.143      61.434
2014   11        9    23  38    6.7647   569.5    5.143      61.489
2014   11        9    23  44    6.7659   569.8    5.142      61.546
2014   11        9    23  49    6.7670   570.0    5.141      61.605
2014   11        9    23  54    6.7681   570.3    5.141      61.665
2014   11       10     0   0    6.7693   570.5    5.140      61.727
2014   11       10     0   5    6.7701   570.8    5.140      61.790
2014   11       10     0  10    6.7710   571.1    5.139      61.853
2014   11       10     0  15    6.7718   571.4    5.138      61.917
2014   11       10     0  21    6.7725   571.6    5.136      61.981
2014   11       10     0  26    6.7734   571.9    5.135      62.044
2014   11       10     0  31    6.7739   572.2    5.133      62.107
2014   11       10     0  37    6.7744   572.5    5.131      62.170
2014   11       10     0  42    6.7746   572.8    5.128      62.231
2014   11       10     0  47    6.7751   573.1    5.126      62.291
2014   11       10     0  52    6.7753   573.3    5.123      62.349
2014   11       10     0  58    6.7755   573.6    5.119      62.405
2014   11       10     1   3    6.7755   573.9    5.116      62.461
2014   11       10     1   8    6.7756   574.2    5.112      62.515
2014   11       10     1  14    6.7753   574.5    5.108      62.568
2014   11       10     1  19    6.7753   574.8    5.104      62.620
2014   11       10     1  24    6.7754   575.1    5.100      62.671
2014   11       10     1  29    6.7750   575.3    5.096      62.722
2014   11       10     1  35    6.7748   575.6    5.091      62.772
2014   11       10     1  40    6.7745   575.9    5.086      62.821
2014   11       10     1  45    6.7745   576.2    5.082      62.870
2014   11       10     1  51    6.7742   576.5    5.077      62.919
2014   11       10     1  56    6.7739   576.8    5.072      62.967
2014   11       10     2   1    6.7733   577.0    5.067      63.015
2014   11       10     2   6    6.7731   577.3    5.062      63.062
2014   11       10     2  12    6.7725   577.6    5.057      63.110
2014   11       10     2  17    6.7722   577.9    5.052      63.157
2014   11       10     2  22    6.7718   578.2    5.047      63.205
2014   11       10     2  28    6.7710   578.4    5.042      63.252
2014   11       10     2  33    6.7705   578.7    5.037      63.300
2014   11       10     2  38    6.7699   579.0    5.032      63.348
2014   11       10     2  43    6.7693   579.3    5.027      63.396
2014   11       10     2  49    6.7689   579.6    5.022      63.444
2014   11       10     2  54    6.7680   579.8    5.017      63.493
2014   11       10     2  59    6.7674   580.1    5.013      63.542
2014   11       10     3   5    6.7667   580.4    5.008      63.592
2014   11       10     3  10    6.7663   580.7    5.003      63.642
2014   11       10     3  15    6.7656   581.0    4.999      63.692
2014   11       10     3  20    6.7648   581.2    4.994      63.744
2014   11       10     3  26    6.7641   581.5    4.990      63.797
2014   11       10     3  31    6.7633   581.8    4.985      63.850
2014   11       10     3  36    6.7624   582.1    4.981      63.903
2014   11       10     3  42    6.7615   582.4    4.976      63.956
2014   11       10     3  47    6.7603   582.7    4.971      64.009
2014   11       10     3  52    6.7592   583.0    4.967      64.062
2014   11       10     3  57    6.7585   583.3    4.962      64.114
2014   11       10     4   3    6.7574   583.6    4.957      64.164
2014   11       10     4   8    6.7559   583.8    4.951      64.214
2014   11       10     4  13    6.7549   584.1    4.946      64.263
2014   11       10     4  19    6.7536   584.4    4.940      64.310
2014   11       10     4  24    6.7519   584.7    4.935      64.355
2014   11       10     4  29    6.7507   585.0    4.929      64.399
2014   11       10     4  34    6.7492   585.3    4.923      64.441
2014   11       10     4  40    6.7477   585.6    4.917      64.482
2014   11       10     4  45    6.7457   585.9    4.911      64.521
2014   11       10     4  50    6.7441   586.2    4.904      64.559
2014   11       10     4  56    6.7423   586.5    4.898      64.596
2014   11       10     5   1    6.7409   586.8    4.891      64.631
2014   11       10     5   6    6.7388   587.1    4.885      64.665
2014   11       10     5  11    6.7372   587.4    4.878      64.697
2014   11       10     5  17    6.7353   587.7    4.871      64.729
2014   11       10     5  22    6.7334   588.0    4.865      64.759
2014   11       10     5  27    6.7311   588.3    4.858      64.789
2014   11       10     5  33    6.7294   588.6    4.851      64.817
2014   11       10     5  38    6.7270   588.8    4.844      64.845
2014   11       10     5  43    6.7252   589.1    4.837      64.871
2014   11       10     5  48    6.7230   589.4    4.830      64.897
2014   11       10     5  54    6.7208   589.7    4.823      64.922
2014   11       10     5  59    6.7185   590.0    4.816      64.946
2014   11       10     6   4    6.7162   590.3    4.809      64.969
2014   11       10     6  10    6.7134   590.6    4.802      64.992
2014   11       10     6  15    6.7110   590.8    4.795      65.014
2014   11       10     6  20    6.7085   591.1    4.788      65.035
2014   11       10     6  25    6.7059   591.4    4.781      65.056
2014   11       10     6  31    6.7037   591.7    4.775      65.077
2014   11       10     6  36    6.7011   592.0    4.768      65.097
2014   11       10     6  41    6.6980   592.2    4.761      65.117
2014   11       10     6  47    6.6958   592.5    4.755      65.136
2014   11       10     6  52    6.6930   592.8    4.748      65.155
2014   11       10     6  57    6.6898   593.1    4.742      65.174
2014   11       10     7   2    6.6873   593.3    4.736      65.194
2014   11       10     7   8    6.6840   593.6    4.730      65.216
2014   11       10     7  13    6.6815   593.9    4.724      65.238
2014   11       10     7  18    6.6785   594.2    4.717      65.261
2014   11       10     7  24    6.6755   594.4    4.711      65.286
2014   11       10     7  29    6.6724   594.7    4.705      65.311
2014   11       10     7  34    6.6688   595.0    4.699      65.336
2014   11       10     7  39    6.6661   595.3    4.693      65.361
2014   11       10     7  45    6.6623   595.5    4.687      65.386
2014   11       10     7  50    6.6595   595.8    4.680      65.412
2014   11       10     7  55    6.6557   596.1    4.674      65.438
2014   11       10     8   1    6.6523   596.4    4.667      65.463
2014   11       10     8   6    6.6493   596.6    4.660      65.488
2014   11       10     8  11    6.6459   596.9    4.654      65.511
2014   11       10     8  16    6.6419   597.2    4.647      65.534
2014   11       10     8  22    6.6388   597.5    4.640      65.555
2014   11       10     8  27    6.6348   597.7    4.633      65.576
2014   11       10     8  32    6.6313   598.0    4.626      65.596
2014   11       10     8  38    6.6281   598.3    4.618      65.615
2014   11       10     8  43    6.6241   598.5    4.611      65.634
2014   11       10     8  48    6.6204   598.8    4.604      65.652
2014   11       10     8  53    6.6172   599.0    4.597      65.669
2014   11       10     8  59    6.6136   599.3    4.589      65.685
2014   11       10     9   4    6.6099   599.6    4.582      65.701
2014   11       10     9   9    6.6059   599.8    4.575      65.716
2014   11       10     9  15    6.6026   600.1    4.567      65.731
2014   11       10     9  20    6.5986   600.3    4.560      65.746
2014   11       10     9  25    6.5953   600.6    4.553      65.760
2014   11       10     9  30    6.5915   600.8    4.546      65.774
2014   11       10     9  36    6.5875   601.1    4.538      65.788
2014   11       10     9  41    6.5841   601.3    4.531      65.801
2014   11       10     9  46    6.5804   601.6    4.524      65.814
2014   11       10     9  52    6.5762   601.8    4.517      65.827
2014   11       10     9  57    6.5728   602.1    4.509      65.840
2014   11       10    10   2    6.5690   602.3    4.502      65.852
2014   11       10    10   7    6.5651   602.6    4.495      65.864
2014   11       10    10  13    6.5612   602.8    4.488      65.876
2014   11       10    10  18    6.5573   603.1    4.481      65.888
2014   11       10    10  23    6.5530   603.3    4.474      65.900
2014   11       10    10  29    6.5494   603.5    4.467      65.913
2014   11       10    10  34    6.5450   603.8    4.460      65.925
2014   11       10    10  39    6.5413   604.0    4.453      65.937
2014   11       10    10  44    6.5369   604.2    4.446      65.948
2014   11       10    10  50    6.5331   604.5    4.439      65.959
2014   11       10    10  55    6.5286   604.7    4.431      65.969
2014   11       10    11   0    6.5248   605.0    4.424      65.979
2014   11       10    11   6    6.5202   605.2    4.417      65.988
2014   11       10    11  11    6.5162   605.4    4.410      65.997
2014   11       10    11  16    6.5119   605.7    4.403      66.004
2014   11       10    11  21    6.5072   605.9    4.395      66.011
2014   11       10    11  27    6.5028   606.1    4.388      66.016
2014   11       10    11  32    6.4986   606.4    4.381      66.021
2014   11       10    11  37    6.4938   606.6    4.373      66.024
2014   11       10    11  43    6.4892   606.8    4.366      66.027
2014   11       10    11  48    6.4849   607.0    4.358      66.029
2014   11       10    11  53    6.4799   607.3    4.351      66.030
2014   11       10    11  58    6.4755   607.5    4.343      66.030
2014   11       10    12   4    6.4705   607.7    4.336      66.029
2014   11       10    12   9    6.4660   607.9    4.328      66.027
2014   11       10    12  14    6.4609   608.1    4.321      66.025
2014   11       10    12  20    6.4560   608.3    4.313      66.022
2014   11       10    12  25    6.4514   608.6    4.306      66.018
2014   11       10    12  30    6.4464   608.8    4.298      66.013
2014   11       10    12  35    6.4414   609.0    4.291      66.008
2014   11       10    12  41    6.4361   609.2    4.284      66.002
2014   11       10    12  46    6.4314   609.4    4.276      65.995
2014   11       10    12  51    6.4263   609.6    4.269      65.988
2014   11       10    12  57    6.4209   609.8    4.262      65.980
2014   11       10    13   2    6.4157   610.0    4.254      65.972
2014   11       10    13   7    6.4108   610.2    4.247      65.963
2014   11       10    13  12    6.4054   610.4    4.240      65.953
2014   11       10    13  18    6.4001   610.5    4.233      65.944
2014   11       10    13  23    6.3951   610.7    4.226      65.933
2014   11       10    13  28    6.3896   610.9    4.219      65.923
2014   11       10    13  34    6.3845   611.1    4.212      65.912
2014   11       10    13  39    6.3792   611.3    4.206      65.900
2014   11       10    13  44    6.3736   611.4    4.199      65.888
2014   11       10    13  49    6.3685   611.6    4.192      65.876
2014   11       10    13  55    6.3631   611.7    4.186      65.864
2014   11       10    14   0    6.3574   611.9    4.180      65.851
2014   11       10    14   5    6.3522   612.1    4.173      65.838
2014   11       10    14  11    6.3465   612.2    4.167      65.825
2014   11       10    14  16    6.3413   612.4    4.161      65.811
2014   11       10    14  21    6.3359   612.5    4.155      65.798
2014   11       10    14  26    6.3304   612.6    4.149      65.784
2014   11       10    14  32    6.3248   612.8    4.143      65.769
2014   11       10    14  37    6.3196   612.9    4.137      65.755
2014   11       10    14  42    6.3140   613.0    4.131      65.740
2014   11       10    14  48    6.3085   613.1    4.126      65.725
2014   11       10    14  53    6.3034   613.3    4.120      65.709
2014   11       10    14  58    6.2980   613.4    4.114      65.693
2014   11       10    15   3    6.2925   613.5    4.109      65.676
2014   11       10    15   9    6.2872   613.6    4.103      65.659
2014   11       10    15  14    6.2819   613.7    4.098      65.643
2014   11       10    15  19    6.2767   613.8    4.092      65.625
2014   11       10    15  25    6.2715   613.9    4.087      65.608
2014   11       10    15  30    6.2664   614.0    4.082      65.590
2014   11       10    15  35    6.2614   614.1    4.077      65.572
2014   11       10    15  40    6.2562   614.2    4.071      65.554
2014   11       10    15  46    6.2512   614.3    4.066      65.537
2014   11       10    15  51    6.2463   614.4    4.062      65.519
2014   11       10    15  56    6.2415   614.5    4.057      65.502
2014   11       10    16   2    6.2367   614.6    4.052      65.484
2014   11       10    16   7    6.2321   614.7    4.047      65.467
2014   11       10    16  12    6.2274   614.8    4.042      65.449
2014   11       10    16  17    6.2228   614.9    4.038      65.431
2014   11       10    16  23    6.2184   615.0    4.033      65.412
2014   11       10    16  28    6.2138   615.1    4.028      65.393
2014   11       10    16  33    6.2094   615.2    4.023      65.374
2014   11       10    16  39    6.2049   615.3    4.019      65.354
2014   11       10    16  44    6.2005   615.4    4.014      65.334
2014   11       10    16  49    6.1961   615.4    4.009      65.313
2014   11       10    16  54    6.1917   615.5    4.004      65.291
2014   11       10    17   0    6.1874   615.6    3.999      65.268
2014   11       10    17   5    6.1829   615.7    3.994      65.244
2014   11       10    17  10    6.1785   615.8    3.989      65.220
2014   11       10    17  16    6.1741   615.9    3.983      65.196
2014   11       10    17  21    6.1696   616.0    3.978      65.170
2014   11       10    17  26    6.1652   616.1    3.973      65.144
2014   11       10    17  31    6.1607   616.2    3.968      65.118
2014   11       10    17  37    6.1563   616.3    3.962      65.091
2014   11       10    17  42    6.1518   616.4    3.957      65.063
2014   11       10    17  47    6.1472   616.4    3.952      65.035
2014   11       10    17  53    6.1427   616.5    3.946      65.006
2014   11       10    17  58    6.1382   616.6    3.941      64.977
2014   11       10    18   3    6.1337   616.7    3.935      64.948
2014   11       10    18   8    6.1291   616.8    3.930      64.917
2014   11       10    18  14    6.1245   616.9    3.924      64.887
2014   11       10    18  19    6.1200   616.9    3.919      64.856
2014   11       10    18  24    6.1155   617.0    3.913      64.825
2014   11       10    18  30    6.1108   617.1    3.908      64.793
2014   11       10    18  35    6.1063   617.2    3.903      64.761
2014   11       10    18  40    6.1016   617.3    3.897      64.729
2014   11       10    18  45    6.0969   617.3    3.892      64.696
2014   11       10    18  51    6.0923   617.4    3.886      64.663
2014   11       10    18  56    6.0876   617.5    3.881      64.630
2014   11       10    19   1    6.0831   617.5    3.875      64.597
2014   11       10    19   7    6.0783   617.6    3.870      64.564
2014   11       10    19  12    6.0737   617.7    3.865      64.530
2014   11       10    19  17    6.0690   617.8    3.859      64.497
2014   11       10    19  22    6.0642   617.8    3.854      64.463
2014   11       10    19  28    6.0596   617.9    3.849      64.430
2014   11       10    19  33    6.0547   617.9    3.843      64.397
2014   11       10    19  38    6.0501   618.0    3.838      64.364
2014   11       10    19  44    6.0454   618.1    3.833      64.330
2014   11       10    19  49    6.0407   618.1    3.828      64.297
2014   11       10    19  54    6.0359   618.2    3.823      64.264
2014   11       10    19  59    6.0310   618.2    3.818      64.232
2014   11       10    20   5    6.0263   618.3    3.813      64.199
2014   11       10    20  10    6.0215   618.3    3.809      64.167
2014   11       10    20  15    6.0168   618.4    3.804      64.134
2014   11       10    20  21    6.0122   618.4    3.799      64.102
2014   11       10    20  26    6.0073   618.5    3.795      64.070
2014   11       10    20  31    6.0027   618.5    3.790      64.039
2014   11       10    20  36    5.9978   618.5    3.786      64.007
2014   11       10    20  42    5.9933   618.6    3.781      63.976
2014   11       10    20  47    5.9884   618.6    3.777      63.945
2014   11       10    20  52    5.9837   618.6    3.773      63.914
2014   11       10    20  58    5.9790   618.7    3.769      63.883
2014   11       10    21   3    5.9744   618.7    3.765      63.852
2014   11       10    21   8    5.9697   618.7    3.761      63.821
2014   11       10    21  13    5.9651   618.7    3.757      63.790
2014   11       10    21  19    5.9607   618.7    3.754      63.760
2014   11       10    21  24    5.9558   618.7    3.750      63.728
2014   11       10    21  29    5.9513   618.7    3.747      63.698
2014   11       10    21  35    5.9470   618.7    3.744      63.667
2014   11       10    21  40    5.9425   618.7    3.740      63.637
2014   11       10    21  45    5.9378   618.7    3.737      63.607
2014   11       10    21  50    5.9333   618.7    3.734      63.576
2014   11       10    21  56    5.9289   618.7    3.731      63.546
2014   11       10    22   1    5.9246   618.7    3.728      63.515
2014   11       10    22   6    5.9202   618.6    3.725      63.484
2014   11       10    22  12    5.9160   618.6    3.722      63.452
2014   11       10    22  17    5.9117   618.6    3.720      63.421
2014   11       10    22  22    5.9077   618.6    3.717      63.389
2014   11       10    22  27    5.9034   618.5    3.714      63.356
2014   11       10    22  33    5.8995   618.5    3.712      63.324
2014   11       10    22  38    5.8952   618.5    3.709      63.292
2014   11       10    22  43    5.8912   618.4    3.707      63.259
2014   11       10    22  49    5.8875   618.4    3.705      63.227
2014   11       10    22  54    5.8834   618.4    3.703      63.194
2014   11       10    22  59    5.8796   618.3    3.700      63.162
2014   11       10    23   4    5.8759   618.3    3.698      63.131
2014   11       10    23  10    5.8722   618.2    3.697      63.100
2014   11       10    23  15    5.8686   618.2    3.695      63.069
2014   11       10    23  20    5.8651   618.2    3.693      63.040
2014   11       10    23  26    5.8618   618.1    3.691      63.010
2014   11       10    23  31    5.8583   618.1    3.690      62.981
2014   11       10    23  36    5.8550   618.1    3.688      62.952
2014   11       10    23  41    5.8515   618.0    3.686      62.922
2014   11       10    23  47    5.8483   618.0    3.685      62.893
2014   11       10    23  52    5.8451   618.0    3.683      62.864
2014   11       10    23  57    5.8416   617.9    3.681      62.834
2014   11       11     0   3    5.8385   617.9    3.680      62.804
2014   11       11     0   8    5.8353   617.9    3.678      62.774
2014   11       11     0  13    5.8320   617.9    3.676      62.743
2014   11       11     0  18    5.8287   617.8    3.674      62.711
2014   11       11     0  24    5.8254   617.8    3.672      62.679
2014   11       11     0  29    5.8219   617.8    3.670      62.646
2014   11       11     0  34    5.8186   617.7    3.668      62.613
2014   11       11     0  40    5.8152   617.7    3.665      62.580
2014   11       11     0  45    5.8120   617.7    3.663      62.545
2014   11       11     0  50    5.8084   617.7    3.661      62.511
2014   11       11     0  55    5.8050   617.6    3.659      62.476
2014   11       11     1   1    5.8015   617.6    3.656      62.441
2014   11       11     1   6    5.7981   617.6    3.654      62.406
2014   11       11     1  11    5.7946   617.6    3.652      62.370
2014   11       11     1  17    5.7911   617.5    3.649      62.335
2014   11       11     1  22    5.7876   617.5    3.647      62.299
2014   11       11     1  27    5.7841   617.5    3.644      62.262
2014   11       11     1  32    5.7808   617.4    3.642      62.226
2014   11       11     1  38    5.7771   617.4    3.639      62.190
2014   11       11     1  43    5.7738   617.4    3.637      62.153
2014   11       11     1  48    5.7702   617.3    3.634      62.117
2014   11       11     1  54    5.7665   617.3    3.632      62.080
2014   11       11     1  59    5.7630   617.3    3.629      62.043
2014   11       11     2   4    5.7596   617.2    3.626      62.006
2014   11       11     2   9    5.7561   617.2    3.624      61.969
2014   11       11     2  15    5.7525   617.2    3.621      61.933
2014   11       11     2  20    5.7490   617.1    3.619      61.896
2014   11       11     2  25    5.7454   617.1    3.616      61.860
2014   11       11     2  31    5.7419   617.1    3.614      61.824
2014   11       11     2  36    5.7383   617.0    3.611      61.787
2014   11       11     2  41    5.7346   617.0    3.609      61.751
2014   11       11     2  46    5.7311   617.0    3.606      61.715
2014   11       11     2  52    5.7277   616.9    3.604      61.680
2014   11       11     2  57    5.7240   616.9    3.601      61.644
2014   11       11     3   2    5.7206   616.9    3.599      61.609
2014   11       11     3   8    5.7170   616.8    3.596      61.574
2014   11       11     3  13    5.7133   616.8    3.594      61.539
2014   11       11     3  18    5.7099   616.7    3.592      61.504
2014   11       11     3  23    5.7062   616.7    3.589      61.469
2014   11       11     3  29    5.7027   616.7    3.587      61.434
2014   11       11     3  34    5.6993   616.6    3.584      61.399
2014   11       11     3  39    5.6956   616.6    3.582      61.365
2014   11       11     3  45    5.6922   616.5    3.580      61.330
2014   11       11     3  50    5.6886   616.5    3.577      61.295
2014   11       11     3  55    5.6850   616.5    3.575      61.260
2014   11       11     4   0    5.6817   616.4    3.573      61.225
2014   11       11     4   6    5.6780   616.4    3.571      61.190
2014   11       11     4  11    5.6745   616.3    3.568      61.155
2014   11       11     4  16    5.6711   616.3    3.566      61.119
2014   11       11     4  22    5.6676   616.2    3.564      61.083
2014   11       11     4  27    5.6640   616.2    3.562      61.047
2014   11       11     4  32    5.6606   616.1    3.560      61.011
2014   11       11     4  37    5.6572   616.0    3.557      60.974
2014   11       11     4  43    5.6536   616.0    3.555      60.937
2014   11       11     4  48    5.6501   615.9    3.553      60.900
2014   11       11     4  53    5.6467   615.9    3.551      60.862
2014   11       11     4  59    5.6433   615.8    3.549      60.824
2014   11       11     5   4    5.6400   615.7    3.547      60.786
2014   11       11     5   9    5.6366   615.7    3.544      60.747
2014   11       11     5  14    5.6331   615.6    3.542      60.708
2014   11       11     5  20    5.6298   615.5    3.540      60.668
2014   11       11     5  25    5.6266   615.5    3.538      60.629
2014   11       11     5  30    5.6232   615.4    3.536      60.588
2014   11       11     5  36    5.6200   615.3    3.534      60.548
2014   11       11     5  41    5.6167   615.2    3.532      60.508
2014   11       11     5  46    5.6137   615.1    3.531      60.467
2014   11       11     5  51    5.6104   615.1    3.529      60.426
2014   11       11     5  57    5.6073   615.0    3.527      60.385
2014   11       11     6   2    5.6043   614.9    3.525      60.344
2014   11       11     6   7    5.6013   614.8    3.523      60.303
2014   11       11     6  13    5.5981   614.7    3.522      60.262
2014   11       11     6  18    5.5952   614.6    3.520      60.221
2014   11       11     6  23    5.5923   614.6    3.519      60.181
2014   11       11     6  28    5.5893   614.5    3.517      60.140
2014   11       11     6  34    5.5864   614.4    3.516      60.100
2014   11       11     6  39    5.5835   614.3    3.514      60.060
2014   11       11     6  44    5.5806   614.2    3.513      60.021
2014   11       11     6  50    5.5779   614.1    3.512      59.981
2014   11       11     6  55    5.5750   614.0    3.510      59.942
2014   11       11     7   0    5.5722   613.9    3.509      59.903
2014   11       11     7   5    5.5696   613.8    3.508      59.865
2014   11       11     7  11    5.5667   613.8    3.507      59.827
2014   11       11     7  16    5.5641   613.7    3.506      59.789
2014   11       11     7  21    5.5614   613.6    3.505      59.751
2014   11       11     7  27    5.5586   613.5    3.504      59.713
2014   11       11     7  32    5.5558   613.4    3.503      59.676
2014   11       11     7  37    5.5531   613.3    3.502      59.639
2014   11       11     7  42    5.5504   613.2    3.501      59.601
2014   11       11     7  48    5.5477   613.1    3.500      59.564
2014   11       11     7  53    5.5449   613.0    3.499      59.527
2014   11       11     7  58    5.5422   612.9    3.498      59.490
2014   11       11     8   4    5.5394   612.8    3.497      59.452
2014   11       11     8   9    5.5366   612.7    3.496      59.415
2014   11       11     8  14    5.5338   612.6    3.495      59.378
2014   11       11     8  19    5.5309   612.5    3.494      59.340
2014   11       11     8  25    5.5282   612.4    3.493      59.303
2014   11       11     8  30    5.5254   612.3    3.492      59.265
2014   11       11     8  35    5.5225   612.2    3.491      59.227
2014   11       11     8  41    5.5197   612.1    3.490      59.189
2014   11       11     8  46    5.5168   612.0    3.488      59.151
2014   11       11     8  51    5.5141   611.9    3.487      59.113
2014   11       11     8  56    5.5111   611.8    3.486      59.075
2014   11       11     9   2    5.5084   611.7    3.485      59.036
2014   11       11     9   7    5.5055   611.6    3.484      58.998
2014   11       11     9  12    5.5027   611.5    3.483      58.960
2014   11       11     9  18    5.4998   611.4    3.482      58.922
2014   11       11     9  23    5.4971   611.3    3.481      58.883
2014   11       11     9  28    5.4943   611.1    3.480      58.845
2014   11       11     9  33    5.4914   611.0    3.479      58.807
2014   11       11     9  39    5.4886   610.9    3.478      58.770
2014   11       11     9  44    5.4859   610.8    3.477      58.732
2014   11       11     9  49    5.4831   610.7    3.476      58.695
2014   11       11     9  55    5.4804   610.6    3.476      58.657
2014   11       11    10   0    5.4777   610.5    3.475      58.620
2014   11       11    10   5    5.4749   610.4    3.474      58.583
2014   11       11    10  11    5.4723   610.3    3.473      58.547
2014   11       11    10  16    5.4696   610.2    3.473      58.510
2014   11       11    10  21    5.4669   610.1    3.472      58.473
2014   11       11    10  26    5.4642   610.0    3.471      58.436
2014   11       11    10  32    5.4615   609.8    3.471      58.400
2014   11       11    10  37    5.4589   609.7    3.470      58.363
2014   11       11    10  42    5.4563   609.6    3.469      58.326
2014   11       11    10  48    5.4536   609.5    3.469      58.288
2014   11       11    10  53    5.4509   609.4    3.468      58.250
2014   11       11    10  58    5.4483   609.3    3.467      58.212
2014   11       11    11   3    5.4456   609.2    3.467      58.173
2014   11       11    11   9    5.4429   609.1    3.466      58.133
2014   11       11    11  14    5.4403   609.0    3.465      58.093
2014   11       11    11  19    5.4376   608.9    3.465      58.051
2014   11       11    11  25    5.4349   608.7    3.464      58.010
2014   11       11    11  30    5.4322   608.6    3.463      57.967
2014   11       11    11  35    5.4294   608.5    3.462      57.924
2014   11       11    11  40    5.4266   608.4    3.462      57.880
2014   11       11    11  46    5.4239   608.3    3.461      57.835
2014   11       11    11  51    5.4210   608.1    3.460      57.790
2014   11       11    11  56    5.4182   608.0    3.459      57.745
2014   11       11    12   2    5.4154   607.9    3.458      57.699
2014   11       11    12   7    5.4127   607.8    3.457      57.652
2014   11       11    12  12    5.4097   607.6    3.456      57.605
2014   11       11    12  17    5.4070   607.5    3.455      57.558
2014   11       11    12  23    5.4041   607.4    3.454      57.511
2014   11       11    12  28    5.4012   607.3    3.453      57.463
2014   11       11    12  33    5.3981   607.1    3.452      57.415
2014   11       11    12  38    5.3954   607.0    3.451      57.367
2014   11       11    12  44    5.3924   606.9    3.450      57.319
2014   11       11    12  49    5.3893   606.7    3.449      57.270
2014   11       11    12  54    5.3863   606.6    3.447      57.221
2014   11       11    13   0    5.3834   606.4    3.446      57.172
2014   11       11    13   5    5.3802   606.3    3.445      57.124
2014   11       11    13  10    5.3772   606.2    3.444      57.075
2014   11       11    13  15    5.3742   606.0    3.443      57.026
2014   11       11    13  21    5.3713   605.9    3.442      56.978
2014   11       11    13  26    5.3682   605.8    3.441      56.930
2014   11       11    13  31    5.3652   605.6    3.440      56.882
2014   11       11    13  37    5.3620   605.5    3.439      56.834
2014   11       11    13  42    5.3589   605.3    3.438      56.786
2014   11       11    13  47    5.3560   605.2    3.437      56.739
2014   11       11    13  52    5.3528   605.0    3.436      56.692
2014   11       11    13  58    5.3499   604.9    3.435      56.646
2014   11       11    14   3    5.3469   604.8    3.435      56.600
2014   11       11    14   8    5.3437   604.6    3.434      56.555
2014   11       11    14  14    5.3407   604.5    3.433      56.511
2014   11       11    14  19    5.3377   604.3    3.433      56.467
2014   11       11    14  24    5.3348   604.2    3.432      56.423
2014   11       11    14  29    5.3318   604.0    3.431      56.380
2014   11       11    14  35    5.3291   603.9    3.431      56.338
2014   11       11    14  40    5.3261   603.8    3.431      56.296
2014   11       11    14  45    5.3232   603.6    3.430      56.255
2014   11       11    14  51    5.3204   603.5    3.430      56.215
2014   11       11    14  56    5.3178   603.3    3.430      56.175
2014   11       11    15   1    5.3148   603.2    3.430      56.136
2014   11       11    15   6    5.3123   603.0    3.429      56.098
2014   11       11    15  12    5.3095   602.9    3.429      56.060
2014   11       11    15  17    5.3070   602.7    3.429      56.023
2014   11       11    15  22    5.3043   602.6    3.429      55.987
2014   11       11    15  28    5.3019   602.5    3.430      55.952
2014   11       11    15  33    5.2994   602.3    3.430      55.917
2014   11       11    15  38    5.2970   602.2    3.430      55.883
2014   11       11    15  43    5.2945   602.0    3.430      55.850
2014   11       11    15  49    5.2921   601.9    3.431      55.817
2014   11       11    15  54    5.2900   601.7    3.431      55.786
2014   11       11    15  59    5.2877   601.6    3.432      55.755
2014   11       11    16   5    5.2854   601.4    3.432      55.725
2014   11       11    16  10    5.2832   601.3    3.433      55.697
2014   11       11    16  15    5.2812   601.1    3.434      55.669
2014   11       11    16  20    5.2791   601.0    3.435      55.642
2014   11       11    16  26    5.2771   600.9    3.436      55.616
2014   11       11    16  31    5.2752   600.7    3.437      55.591
2014   11       11    16  36    5.2734   600.6    3.438      55.567
2014   11       11    16  42    5.2715   600.4    3.439      55.545
2014   11       11    16  47    5.2697   600.3    3.441      55.524
2014   11       11    16  52    5.2679   600.2    3.442      55.504
2014   11       11    16  58    5.2663   600.0    3.444      55.485
2014   11       11    17   3    5.2646   599.9    3.446      55.466
2014   11       11    17   8    5.2630   599.8    3.447      55.448
2014   11       11    17  13    5.2614   599.6    3.449      55.430
2014   11       11    17  19    5.2598   599.5    3.451      55.412
2014   11       11    17  24    5.2583   599.4    3.453      55.394
2014   11       11    17  29    5.2568   599.2    3.455      55.375
2014   11       11    17  35    5.2553   599.1    3.457      55.355
2014   11       11    17  40    5.2539   599.0    3.459      55.335
2014   11       11    17  45    5.2525   598.8    3.461      55.313
2014   11       11    17  50    5.2511   598.7    3.463      55.290
2014   11       11    17  56    5.2498   598.6    3.464      55.267
2014   11       11    18   1    5.2485   598.5    3.466      55.242
2014   11       11    18   6    5.2471   598.3    3.468      55.216
2014   11       11    18  12    5.2459   598.2    3.470      55.189
2014   11       11    18  17    5.2446   598.0    3.471      55.162
2014   11       11    18  22    5.2434   597.9    3.473      55.134
2014   11       11    18  27    5.2422   597.8    3.475      55.105
2014   11       11    18  33    5.2410   597.6    3.477      55.075
2014   11       11    18  38    5.2399   597.5    3.478      55.045
2014   11       11    18  43    5.2389   597.3    3.480      55.013
2014   11       11    18  49    5.2378   597.2    3.482      54.981
2014   11       11    18  54    5.2368   597.0    3.483      54.949
2014   11       11    18  59    5.2358   596.9    3.485      54.915
2014   11       11    19   4    5.2349   596.8    3.487      54.882
2014   11       11    19  10    5.2340   596.6    3.489      54.847
2014   11       11    19  15    5.2333   596.4    3.490      54.812
2014   11       11    19  20    5.2325   596.3    3.492      54.777
2014   11       11    19  26    5.2318   596.1    3.494      54.741
2014   11       11    19  31    5.2311   596.0    3.496      54.706
2014   11       11    19  36    5.2305   595.8    3.498      54.670
2014   11       11    19  41    5.2299   595.7    3.499      54.633
2014   11       11    19  47    5.2293   595.5    3.501      54.596
2014   11       11    19  52    5.2287   595.4    3.503      54.557
2014   11       11    19  57    5.2281   595.2    3.504      54.518
2014   11       11    20   3    5.2275   595.1    3.506      54.478
2014   11       11    20   8    5.2269   594.9    3.507      54.436
2014   11       11    20  13    5.2263   594.8    3.508      54.394
2014   11       11    20  18    5.2256   594.6    3.510      54.350
2014   11       11    20  24    5.2249   594.5    3.511      54.305
2014   11       11    20  29    5.2241   594.3    3.512      54.258
2014   11       11    20  34    5.2234   594.2    3.512      54.211
2014   11       11    20  39    5.2226   594.0    3.513      54.161
2014   11       11    20  45    5.2218   593.9    3.513      54.111
2014   11       11    20  50    5.2209   593.7    3.514      54.059
2014   11       11    20  55    5.2200   593.5    3.514      54.005
2014   11       11    21   1    5.2190   593.4    3.514      53.950
2014   11       11    21   6    5.2180   593.2    3.514      53.894
2014   11       11    21  11    5.2170   593.0    3.514      53.836
2014   11       11    21  16    5.2159   592.9    3.514      53.777
2014   11       11    21  22    5.2147   592.7    3.513      53.716
2014   11       11    21  27    5.2136   592.5    3.512      53.654
2014   11       11    21  32    5.2124   592.4    3.512      53.591
2014   11       11    21  38    5.2112   592.2    3.511      53.526
2014   11       11    21  43    5.2099   592.0    3.510      53.461
2014   11       11    21  48    5.2086   591.8    3.509      53.394
2014   11       11    21  54    5.2072   591.7    3.508      53.327
2014   11       11    21  59    5.2058   591.5    3.506      53.258
2014   11       11    22   4    5.2044   591.3    3.505      53.189
2014   11       11    22   9    5.2029   591.1    3.503      53.120
2014   11       11    22  15    5.2015   591.0    3.502      53.050
2014   11       11    22  20    5.2000   590.8    3.500      52.979
2014   11       11    22  25    5.1983   590.6    3.499      52.908
2014   11       11    22  30    5.1967   590.4    3.497      52.837
2014   11       11    22  36    5.1951   590.2    3.495      52.765
2014   11       11    22  41    5.1934   590.1    3.493      52.692
2014   11       11    22  46    5.1917   589.9    3.491      52.619
2014   11       11    22  52    5.1900   589.7    3.489      52.546
2014   11       11    22  57    5.1882   589.5    3.487      52.472
2014   11       11    23   2    5.1863   589.3    3.484      52.398
2014   11       11    23   8    5.1845   589.1    3.482      52.323
2014   11       11    23  13    5.1826   588.9    3.480      52.247
2014   11       11    23  18    5.1807   588.7    3.477      52.171
2014   11       11    23  23    5.1788   588.5    3.475      52.095
2014   11       11    23  29    5.1769   588.3    3.472      52.018
2014   11       11    23  34    5.1750   588.1    3.470      51.941
2014   11       11    23  39    5.1729   587.9    3.467      51.863
2014   11       11    23  45    5.1710   587.7    3.464      51.785
2014   11       11    23  50    5.1690   587.5    3.461      51.706
2014   11       11    23  55    5.1670   587.3    3.459      51.627
2014   11       12     0   0    5.1650   587.0    3.456      51.548
2014   11       12     0   6    5.1629   586.8    3.453      51.468
2014   11       12     0  11    5.1609   586.6    3.450      51.388
2014   11       12     0  16    5.1589   586.4    3.447      51.308
2014   11       12     0  22    5.1568   586.1    3.444      51.227
2014   11       12     0  27    5.1548   585.9    3.441      51.147
2014   11       12     0  32    5.1527   585.7    3.438      51.066
2014   11       12     0  37    5.1506   585.4    3.435      50.985
2014   11       12     0  43    5.1485   585.2    3.432      50.904
2014   11       12     0  48    5.1465   584.9    3.429      50.823
2014   11       12     0  53    5.1444   584.7    3.426      50.742
2014   11       12     0  59    5.1422   584.4    3.423      50.661
2014   11       12     1   4    5.1402   584.2    3.420      50.580
2014   11       12     1   9    5.1381   583.9    3.417      50.500
2014   11       12     1  14    5.1360   583.7    3.414      50.420
2014   11       12     1  20    5.1339   583.4    3.411      50.341
2014   11       12     1  25    5.1318   583.2    3.409      50.262
2014   11       12     1  30    5.1298   582.9    3.406      50.184
2014   11       12     1  36    5.1277   582.7    3.403      50.106
2014   11       12     1  41    5.1257   582.4    3.401      50.029
2014   11       12     1  46    5.1236   582.1    3.398      49.953
2014   11       12     1  51    5.1216   581.9    3.396      49.878
2014   11       12     1  57    5.1196   581.6    3.394      49.804
2014   11       12     2   2    5.1175   581.4    3.391      49.730
2014   11       12     2   7    5.1155   581.1    3.389      49.658
2014   11       12     2  13    5.1135   580.8    3.387      49.586
2014   11       12     2  18    5.1115   580.6    3.385      49.515
2014   11       12     2  23    5.1095   580.3    3.383      49.445
2014   11       12     2  28    5.1075   580.0    3.381      49.377
2014   11       12     2  34    5.1055   579.8    3.379      49.309
2014   11       12     2  39    5.1036   579.5    3.378      49.242
2014   11       12     2  44    5.1016   579.2    3.376      49.176
2014   11       12     2  50    5.0996   579.0    3.374      49.112
2014   11       12     2  55    5.0977   578.7    3.373      49.049
2014   11       12     3   0    5.0958   578.4    3.372      48.987
2014   11       12     3   5    5.0939   578.2    3.370      48.926
2014   11       12     3  11    5.0919   577.9    3.369      48.866
2014   11       12     3  16    5.0901   577.6    3.368      48.808
2014   11       12     3  21    5.0883   577.4    3.367      48.751
2014   11       12     3  26    5.0864   577.1    3.366      48.696
2014   11       12     3  32    5.0845   576.9    3.366      48.641
2014   11       12     3  37    5.0827   576.6    3.365      48.588
2014   11       12     3  42    5.0809   576.3    3.364      48.537
2014   11       12     3  48    5.0791   576.1    3.364      48.487
2014   11       12     3  53    5.0773   575.8    3.363      48.438
2014   11       12     3  58    5.0755   575.6    3.363      48.390
2014   11       12     4   3    5.0738   575.3    3.363      48.343
2014   11       12     4   9    5.0720   575.1    3.363      48.296
2014   11       12     4  14    5.0703   574.8    3.363      48.251
2014   11       12     4  19    5.0686   574.6    3.363      48.206
2014   11       12     4  25    5.0669   574.3    3.362      48.162
2014   11       12     4  30    5.0652   574.1    3.363      48.118
2014   11       12     4  35    5.0635   573.8    3.363      48.075
2014   11       12     4  41    5.0617   573.6    3.363      48.031
2014   11       12     4  46    5.0600   573.3    3.363      47.988
2014   11       12     4  51    5.0583   573.1    3.363      47.944
2014   11       12     4  56    5.0566   572.8    3.363      47.901
2014   11       12     5   2    5.0549   572.6    3.364      47.857
2014   11       12     5   7    5.0531   572.3    3.364      47.813
2014   11       12     5  12    5.0514   572.1    3.364      47.769
2014   11       12     5  17    5.0497   571.8    3.365      47.724
2014   11       12     5  23    5.0480   571.6    3.365      47.680
2014   11       12     5  28    5.0462   571.3    3.365      47.634
2014   11       12     5  33    5.0445   571.0    3.366      47.588
2014   11       12     5  39    5.0427   570.8    3.366      47.542
2014   11       12     5  44    5.0410   570.5    3.366      47.495
2014   11       12     5  49    5.0392   570.3    3.367      47.448
2014   11       12     5  55    5.0375   570.0    3.367      47.401
2014   11       12     6   0    5.0357   569.8    3.368      47.352
2014   11       12     6   5    5.0339   569.5    3.368      47.304
2014   11       12     6  10    5.0321   569.3    3.369      47.255
2014   11       12     6  16    5.0303   569.0    3.369      47.206
2014   11       12     6  21    5.0285   568.8    3.370      47.156
2014   11       12     6  26    5.0267   568.5    3.370      47.105
2014   11       12     6  31    5.0248   568.2    3.371      47.055
2014   11       12     6  37    5.0229   568.0    3.371      47.004
2014   11       12     6  42    5.0211   567.7    3.372      46.952
2014   11       12     6  47    5.0192   567.5    3.372      46.900
2014   11       12     6  53    5.0172   567.2    3.373      46.848
2014   11       12     6  58    5.0154   566.9    3.374      46.795
2014   11       12     7   3    5.0135   566.7    3.374      46.742
2014   11       12     7   9    5.0115   566.4    3.375      46.688
2014   11       12     7  14    5.0096   566.1    3.375      46.635
2014   11       12     7  19    5.0077   565.9    3.376      46.580
2014   11       12     7  24    5.0057   565.6    3.377      46.526
2014   11       12     7  30    5.0038   565.3    3.377      46.470
2014   11       12     7  35    5.0018   565.1    3.378      46.415
2014   11       12     7  40    4.9998   564.8    3.379      46.359
2014   11       12     7  46    4.9978   564.5    3.379      46.303
2014   11       12     7  51    4.9958   564.3    3.380      46.246
2014   11       12     7  56    4.9939   564.0    3.380      46.189
2014   11       12     8   1    4.9918   563.7    3.381      46.131
2014   11       12     8   7    4.9898   563.4    3.382      46.073
2014   11       12     8  12    4.9879   563.2    3.383      46.014
2014   11       12     8  17    4.9859   562.9    3.383      45.955
2014   11       12     8  23    4.9839   562.6    3.384      45.896
2014   11       12     8  28    4.9818   562.3    3.385      45.836
2014   11       12     8  33    4.9799   562.0    3.386      45.776
2014   11       12     8  38    4.9779   561.7    3.387      45.716
2014   11       12     8  44    4.9759   561.5    3.388      45.656
2014   11       12     8  49    4.9740   561.2    3.389      45.595
2014   11       12     8  54    4.9720   560.9    3.390      45.535
2014   11       12     9   0    4.9701   560.6    3.391      45.474
2014   11       12     9   5    4.9681   560.3    3.392      45.414
2014   11       12     9  10    4.9662   560.0    3.393      45.354
2014   11       12     9  15    4.9643   559.7    3.395      45.294
2014   11       12     9  21    4.9624   559.4    3.396      45.235
2014   11       12     9  26    4.9606   559.1    3.398      45.176
2014   11       12     9  31    4.9587   558.8    3.400      45.117
2014   11       12     9  37    4.9569   558.5    3.402      45.060
2014   11       12     9  42    4.9551   558.2    3.404      45.003
2014   11       12     9  47    4.9533   557.9    3.406      44.947
2014   11       12     9  52    4.9515   557.6    3.408      44.893
2014   11       12     9  58    4.9497   557.4    3.410      44.840
2014   11       12    10   3    4.9479   557.1    3.413      44.789
2014   11       12    10   8    4.9462   556.8    3.415      44.739
2014   11       12    10  14    4.9445   556.5    3.418      44.690
2014   11       12    10  19    4.9428   556.2    3.420      44.642
2014   11       12    10  24    4.9411   555.9    3.423      44.594
2014   11       12    10  29    4.9394   555.6    3.426      44.548
2014   11       12    10  35    4.9378   555.3    3.429      44.503
2014   11       12    10  40    4.9361   555.0    3.432      44.459
2014   11       12    10  45    4.9345   554.7    3.435      44.416
2014   11       12    10  50    4.9329   554.4    3.438      44.374
2014   11       12    10  56    4.9313   554.1    3.441      44.332
2014   11       12    11   1    4.9297   553.8    3.444      44.291
2014   11       12    11   6    4.9282   553.5    3.448      44.250
2014   11       12    11  12    4.9267   553.2    3.451      44.211
2014   11       12    11  17    4.9251   552.9    3.455      44.172
2014   11       12    11  22    4.9237   552.6    3.458      44.134
2014   11       12    11  27    4.9222   552.3    3.462      44.096
2014   11       12    11  33    4.9210   552.0    3.465      44.060
2014   11       12    11  38    4.9196   551.7    3.469      44.023
2014   11       12    11  43    4.9181   551.4    3.473      43.987
2014   11       12    11  49    4.9168   551.1    3.476      43.952
2014   11       12    11  54    4.9157   550.8    3.480      43.916
2014   11       12    11  59    4.9143   550.5    3.484      43.881
2014   11       12    12   4    4.9132   550.2    3.488      43.845
2014   11       12    12  10    4.9121   549.9    3.491      43.810
2014   11       12    12  15    4.9108   549.6    3.495      43.775
2014   11       12    12  20    4.9097   549.3    3.499      43.739
2014   11       12    12  26    4.9088   549.0    3.503      43.703
2014   11       12    12  31    4.9076   548.7    3.506      43.667
2014   11       12    12  36    4.9067   548.4    3.510      43.630
2014   11       12    12  41    4.9057   548.1    3.514      43.593
2014   11       12    12  47    4.9048   547.8    3.518      43.555
2014   11       12    12  52    4.9040   547.5    3.522      43.517
2014   11       12    12  57    4.9032   547.2    3.525      43.478
2014   11       12    13   3    4.9024   546.9    3.529      43.438
2014   11       12    13   8    4.9020   546.6    3.533      43.398
2014   11       12    13  13    4.9010   546.3    3.536      43.358
2014   11       12    13  18    4.9007   546.0    3.540      43.316
2014   11       12    13  24    4.8998   545.6    3.544      43.275
2014   11       12    13  29    4.8993   545.3    3.547      43.232
2014   11       12    13  34    4.8990   545.0    3.551      43.189
2014   11       12    13  40    4.8983   544.7    3.554      43.146
2014   11       12    13  45    4.8981   544.4    3.558      43.102
2014   11       12    13  50    4.8975   544.1    3.561      43.058
2014   11       12    13  55    4.8974   543.8    3.564      43.014
2014   11       12    14   1    4.8969   543.5    3.568      42.969
2014   11       12    14   6    4.8967   543.2    3.571      42.924
2014   11       12    14  11    4.8967   542.9    3.574      42.879
2014   11       12    14  17    4.8966   542.6    3.578      42.833
2014   11       12    14  22    4.8962   542.2    3.581      42.787
2014   11       12    14  27    4.8962   541.9    3.584      42.741
2014   11       12    14  33    4.8962   541.6    3.588      42.694
2014   11       12    14  38    4.8962   541.3    3.591      42.648
2014   11       12    14  43    4.8966   541.0    3.594      42.601
2014   11       12    14  48    4.8964   540.7    3.597      42.554
2014   11       12    14  54    4.8968   540.4    3.601      42.507
2014   11       12    14  59    4.8968   540.1    3.604      42.460
2014   11       12    15   4    4.8971   539.8    3.607      42.413
2014   11       12    15  10    4.8973   539.4    3.611      42.365
2014   11       12    15  15    4.8979   539.1    3.614      42.318
2014   11       12    15  20    4.8980   538.8    3.617      42.270
2014   11       12    15  25    4.8984   538.5    3.621      42.222
2014   11       12    15  31    4.8988   538.2    3.624      42.175
2014   11       12    15  36    4.8995   537.9    3.627      42.127
2014   11       12    15  41    4.8997   537.6    3.631      42.079
2014   11       12    15  47    4.9002   537.3    3.634      42.030
2014   11       12    15  52    4.9007   537.0    3.637      41.982
2014   11       12    15  57    4.9014   536.6    3.641      41.934
2014   11       12    16   2    4.9018   536.3    3.644      41.885
2014   11       12    16   8    4.9024   536.0    3.648      41.837
2014   11       12    16  13    4.9030   535.7    3.651      41.788
2014   11       12    16  18    4.9036   535.4    3.654      41.739
2014   11       12    16  23    4.9042   535.1    3.658      41.690
2014   11       12    16  29    4.9050   534.8    3.662      41.642
2014   11       12    16  34    4.9055   534.5    3.665      41.593
2014   11       12    16  39    4.9062   534.1    3.669      41.544
2014   11       12    16  45    4.9069   533.8    3.672      41.495
2014   11       12    16  50    4.9078   533.5    3.676      41.446
2014   11       12    16  55    4.9083   533.2    3.679      41.397
2014   11       12    17   0    4.9091   532.9    3.683      41.348
2014   11       12    17   6    4.9100   532.6    3.687      41.300
2014   11       12    17  11    4.9106   532.3    3.691      41.251
2014   11       12    17  16    4.9114   531.9    3.695      41.202
2014   11       12    17  22    4.9125   531.6    3.698      41.154
2014   11       12    17  27    4.9131   531.3    3.702      41.106
2014   11       12    17  32    4.9140   531.0    3.706      41.058
2014   11       12    17  37    4.9152   530.7    3.710      41.010
2014   11       12    17  43    4.9159   530.4    3.714      40.963
2014   11       12    17  48    4.9171   530.0    3.718      40.916
2014   11       12    17  53    4.9180   529.7    3.723      40.869
2014   11       12    17  59    4.9190   529.4    3.727      40.823
2014   11       12    18   4    4.9203   529.1    3.731      40.776
2014   11       12    18   9    4.9214   528.8    3.735      40.730
2014   11       12    18  14    4.9224   528.5    3.740      40.685
2014   11       12    18  20    4.9235   528.2    3.744      40.639
2014   11       12    18  25    4.9248   527.9    3.748      40.594
2014   11       12    18  30    4.9260   527.5    3.753      40.550
2014   11       12    18  36    4.9275   527.2    3.757      40.505
2014   11       12    18  41    4.9288   526.9    3.762      40.461
2014   11       12    18  46    4.9301   526.6    3.766      40.416
2014   11       12    18  51    4.9312   526.3    3.771      40.372
2014   11       12    18  57    4.9326   526.0    3.775      40.328
2014   11       12    19   2    4.9342   525.7    3.779      40.285
2014   11       12    19   7    4.9354   525.4    3.784      40.241
2014   11       12    19  13    4.9371   525.1    3.788      40.197
2014   11       12    19  18    4.9383   524.8    3.792      40.154
2014   11       12    19  23    4.9398   524.5    3.797      40.110
2014   11       12    19  28    4.9415   524.2    3.801      40.067
2014   11       12    19  34    4.9430   523.9    3.805      40.023
2014   11       12    19  39    4.9443   523.6    3.810      39.980
2014   11       12    19  44    4.9459   523.3    3.814      39.937
2014   11       12    19  50    4.9477   523.0    3.818      39.893
2014   11       12    19  55    4.9490   522.7    3.822      39.850
2014   11       12    20   0    4.9507   522.4    3.826      39.806
2014   11       12    20   5    4.9523   522.1    3.830      39.763
2014   11       12    20  11    4.9543   521.8    3.834      39.719
2014   11       12    20  16    4.9559   521.5    3.839      39.676
2014   11       12    20  21    4.9577   521.2    3.843      39.633
2014   11       12    20  27    4.9594   520.9    3.847      39.589
2014   11       12    20  32    4.9610   520.6    3.851      39.546
2014   11       12    20  37    4.9630   520.3    3.855      39.502
2014   11       12    20  42    4.9648   520.0    3.859      39.459
2014   11       12    20  48    4.9667   519.7    3.863      39.416
2014   11       12    20  53    4.9683   519.4    3.867      39.372
2014   11       12    20  58    4.9702   519.1    3.871      39.329
2014   11       12    21   4    4.9721   518.8    3.875      39.286
2014   11       12    21   9    4.9743   518.5    3.880      39.243
2014   11       12    21  14    4.9763   518.3    3.884      39.201
2014   11       12    21  19    4.9780   518.0    3.888      39.158
2014   11       12    21  25    4.9800   517.7    3.893      39.116
2014   11       12    21  30    4.9820   517.4    3.897      39.074
2014   11       12    21  35    4.9841   517.1    3.902      39.032
2014   11       12    21  41    4.9864   516.8    3.906      38.991
2014   11       12    21  46    4.9885   516.5    3.911      38.950
2014   11       12    21  51    4.9904   516.2    3.916      38.909
2014   11       12    21  56    4.9928   515.9    3.921      38.869
2014   11       12    22   2    4.9950   515.6    3.926      38.830
2014   11       12    22   7    4.9972   515.4    3.931      38.791
2014   11       12    22  12    4.9994   515.1    3.937      38.753
2014   11       12    22  18    5.0017   514.8    3.942      38.716
2014   11       12    22  23    5.0037   514.5    3.948      38.679
2014   11       12    22  28    5.0061   514.2    3.954      38.643
2014   11       12    22  33    5.0084   514.0    3.960      38.608
2014   11       12    22  39    5.0110   513.7    3.966      38.574
2014   11       12    22  44    5.0134   513.4    3.973      38.541
2014   11       12    22  49    5.0156   513.1    3.980      38.509
2014   11       12    22  55    5.0183   512.8    3.986      38.479
2014   11       12    23   0    5.0208   512.6    3.993      38.449
2014   11       12    23   5    5.0231   512.3    4.001      38.420
2014   11       12    23  10    5.0257   512.0    4.008      38.392
2014   11       12    23  16    5.0285   511.8    4.016      38.366
2014   11       12    23  21    5.0309   511.5    4.024      38.341
2014   11       12    23  26    5.0338   511.3    4.032      38.317
2014   11       12    23  32    5.0362   511.0    4.040      38.294
2014   11       12    23  37    5.0389   510.7    4.049      38.272
2014   11       12    23  42    5.0419   510.5    4.057      38.251
2014   11       12    23  47    5.0446   510.2    4.066      38.232
2014   11       12    23  53    5.0472   510.0    4.075      38.213
2014   11       12    23  58    5.0500   509.7    4.084      38.195
2014   11       13     0   3    5.0528   509.5    4.093      38.178
2014   11       13     0   9    5.0556   509.3    4.103      38.162
2014   11       13     0  14    5.0585   509.0    4.112      38.147
2014   11       13     0  19    5.0616   508.8    4.122      38.132
2014   11       13     0  24    5.0642   508.6    4.131      38.118
2014   11       13     0  30    5.0671   508.3    4.141      38.104
2014   11       13     0  35    5.0700   508.1    4.151      38.091
2014   11       13     0  40    5.0731   507.9    4.161      38.078
2014   11       13     0  46    5.0760   507.6    4.170      38.065
2014   11       13     0  51    5.0789   507.4    4.180      38.053
2014   11       13     0  56    5.0819   507.2    4.190      38.040
2014   11       13     1   1    5.0846   506.9    4.200      38.028
2014   11       13     1   7    5.0876   506.7    4.209      38.016
2014   11       13     1  12    5.0908   506.5    4.219      38.003
2014   11       13     1  17    5.0939   506.3    4.228      37.991
2014   11       13     1  23    5.0969   506.0    4.238      37.978
2014   11       13     1  28    5.1000   505.8    4.247      37.965
2014   11       13     1  33    5.1032   505.6    4.256      37.952
2014   11       13     1  38    5.1061   505.4    4.266      37.939
2014   11       13     1  44    5.1095   505.1    4.275      37.926
2014   11       13     1  49    5.1125   504.9    4.284      37.913
2014   11       13     1  54    5.1160   504.7    4.293      37.899
2014   11       13     2   0    5.1190   504.5    4.301      37.885
2014   11       13     2   5    5.1227   504.2    4.310      37.871
2014   11       13     2  10    5.1258   504.0    4.319      37.856
2014   11       13     2  15    5.1292   503.8    4.328      37.842
2014   11       13     2  21    5.1327   503.6    4.336      37.828
2014   11       13     2  26    5.1364   503.4    4.345      37.813
2014   11       13     2  31    5.1400   503.2    4.353      37.798
2014   11       13     2  37    5.1436   502.9    4.362      37.783
2014   11       13     2  42    5.1470   502.7    4.370      37.768
2014   11       13     2  47    5.1506   502.5    4.378      37.752
2014   11       13     2  52    5.1546   502.3    4.386      37.737
2014   11       13     2  58    5.1584   502.1    4.395      37.722
2014   11       13     3   3    5.1619   501.9    4.403      37.706
2014   11       13     3   8    5.1659   501.7    4.411      37.690
2014   11       13     3  14    5.1698   501.5    4.419      37.675
2014   11       13     3  19    5.1734   501.3    4.427      37.659
2014   11       13     3  24    5.1773   501.1    4.435      37.643
2014   11       13     3  29    5.1812   500.9    4.443      37.627
2014   11       13     3  35    5.1854   500.7    4.451      37.611
2014   11       13     3  40    5.1891   500.5    4.459      37.595
2014   11       13     3  45    5.1934   500.3    4.467      37.579
2014   11       13     3  51    5.1974   500.1    4.475      37.563
2014   11       13     3  56    5.2015   499.9    4.483      37.547
2014   11       13     4   1    5.2052   499.7    4.491      37.531
2014   11       13     4   6    5.2096   499.5    4.499      37.515
2014   11       13     4  12    5.2137   499.3    4.507      37.499
2014   11       13     4  17    5.2178   499.1    4.515      37.484
2014   11       13     4  22    5.2217   498.9    4.523      37.468
2014   11       13     4  28    5.2258   498.7    4.531      37.453
2014   11       13     4  33    5.2302   498.5    4.539      37.438
2014   11       13     4  38    5.2342   498.3    4.548      37.423
2014   11       13     4  43    5.2384   498.1    4.556      37.408
2014   11       13     4  49    5.2426   497.9    4.565      37.394
2014   11       13     4  54    5.2468   497.7    4.573      37.380
2014   11       13     4  59    5.2513   497.5    4.582      37.366
2014   11       13     5   5    5.2556   497.4    4.590      37.353
2014   11       13     5  10    5.2596   497.2    4.599      37.340
2014   11       13     5  15    5.2640   497.0    4.608      37.328
2014   11       13     5  20    5.2683   496.8    4.617      37.316
2014   11       13     5  26    5.2729   496.6    4.627      37.305
2014   11       13     5  31    5.2771   496.5    4.636      37.294
2014   11       13     5  36    5.2817   496.3    4.646      37.284
2014   11       13     5  42    5.2859   496.1    4.655      37.274
2014   11       13     5  47    5.2904   495.9    4.665      37.266
2014   11       13     5  52    5.2951   495.8    4.675      37.257
2014   11       13     5  57    5.2996   495.6    4.685      37.250
2014   11       13     6   3    5.3039   495.4    4.695      37.244
2014   11       13     6   8    5.3087   495.3    4.705      37.238
2014   11       13     6  13    5.3133   495.1    4.716      37.234
2014   11       13     6  19    5.3179   495.0    4.726      37.230
2014   11       13     6  24    5.3225   494.8    4.737      37.226
2014   11       13     6  29    5.3272   494.6    4.747      37.224
2014   11       13     6  34    5.3318   494.5    4.758      37.221
2014   11       13     6  40    5.3365   494.3    4.768      37.220
2014   11       13     6  45    5.3411   494.2    4.779      37.219
2014   11       13     6  50    5.3460   494.1    4.790      37.218
2014   11       13     6  56    5.3506   493.9    4.800      37.219
2014   11       13     7   1    5.3555   493.8    4.811      37.219
2014   11       13     7   6    5.3603   493.6    4.821      37.221
2014   11       13     7  11    5.3651   493.5    4.832      37.222
2014   11       13     7  17    5.3699   493.4    4.842      37.224
2014   11       13     7  22    5.3747   493.2    4.852      37.225
2014   11       13     7  27    5.3796   493.1    4.863      37.227
2014   11       13     7  33    5.3845   492.9    4.873      37.229
2014   11       13     7  38    5.3892   492.8    4.883      37.231
2014   11       13     7  43    5.3943   492.7    4.893      37.234
2014   11       13     7  48    5.3992   492.5    4.903      37.236
2014   11       13     7  54    5.4040   492.4    4.913      37.239
2014   11       13     7  59    5.4091   492.3    4.923      37.242
2014   11       13     8   4    5.4141   492.2    4.933      37.245
2014   11       13     8  10    5.4191   492.0    4.942      37.248
2014   11       13     8  15    5.4241   491.9    4.952      37.252
2014   11       13     8  20    5.4292   491.8    4.961      37.255
2014   11       13     8  25    5.4343   491.7    4.971      37.258
2014   11       13     8  31    5.4394   491.5    4.980      37.261
2014   11       13     8  36    5.4445   491.4    4.989      37.263
2014   11       13     8  41    5.4497   491.3    4.999      37.266
2014   11       13     8  47    5.4549   491.2    5.008      37.269
2014   11       13     8  52    5.4600   491.1    5.017      37.272
2014   11       13     8  57    5.4653   491.0    5.026      37.274
2014   11       13     9   2    5.4704   490.8    5.035      37.277
2014   11       13     9   8    5.4758   490.7    5.044      37.279
2014   11       13     9  13    5.4811   490.6    5.052      37.281
2014   11       13     9  18    5.4864   490.5    5.061      37.283
2014   11       13     9  24    5.4917   490.4    5.070      37.284
2014   11       13     9  29    5.4971   490.3    5.078      37.286
2014   11       13     9  34    5.5025   490.2    5.087      37.287
2014   11       13     9  39    5.5079   490.1    5.096      37.289
2014   11       13     9  45    5.5133   490.0    5.104      37.290
2014   11       13     9  50    5.5188   489.9    5.113      37.291
2014   11       13     9  55    5.5241   489.8    5.121      37.293
2014   11       13    10   1    5.5297   489.7    5.129      37.294
2014   11       13    10   6    5.5352   489.6    5.137      37.295
2014   11       13    10  11    5.5407   489.5    5.146      37.297
2014   11       13    10  16    5.5461   489.4    5.154      37.298
2014   11       13    10  22    5.5517   489.3    5.162      37.299
2014   11       13    10  27    5.5572   489.2    5.170      37.300
2014   11       13    10  32    5.5626   489.1    5.178      37.301
2014   11       13    10  38    5.5682   489.0    5.186      37.302
2014   11       13    10  43    5.5737   488.9    5.194      37.303
2014   11       13    10  48    5.5792   488.8    5.202      37.304
2014   11       13    10  53    5.5846   488.7    5.209      37.304
2014   11       13    10  59    5.5902   488.7    5.217      37.305
2014   11       13    11   4    5.5956   488.6    5.225      37.306
2014   11       13    11   9    5.6011   488.5    5.233      37.307
2014   11       13    11  15    5.6066   488.4    5.240      37.308
2014   11       13    11  20    5.6120   488.3    5.248      37.309
2014   11       13    11  25    5.6175   488.2    5.256      37.310
2014   11       13    11  30    5.6230   488.1    5.263      37.311
2014   11       13    11  36    5.6284   488.1    5.271      37.313
2014   11       13    11  41    5.6339   488.0    5.278      37.314
2014   11       13    11  46    5.6393   487.9    5.286      37.316
2014   11       13    11  52    5.6448   487.8    5.294      37.318
2014   11       13    11  57    5.6502   487.7    5.301      37.320
2014   11       13    12   2    5.6556   487.7    5.309      37.322
2014   11       13    12   7    5.6611   487.6    5.317      37.325
2014   11       13    12  13    5.6664   487.5    5.325      37.328
2014   11       13    12  18    5.6719   487.4    5.332      37.331
2014   11       13    12  23    5.6773   487.4    5.340      37.335
2014   11       13    12  29    5.6827   487.3    5.348      37.339
2014   11       13    12  34    5.6881   487.2    5.356      37.344
2014   11       13    12  39    5.6935   487.2    5.364      37.349
2014   11       13    12  44    5.6989   487.1    5.373      37.355
2014   11       13    12  50    5.7042   487.0    5.381      37.361
2014   11       13    12  55    5.7096   487.0    5.389      37.368
2014   11       13    13   0    5.7149   486.9    5.397      37.376
2014   11       13    13   6    5.7202   486.8    5.405      37.384
2014   11       13    13  11    5.7255   486.8    5.414      37.394
2014   11       13    13  16    5.7308   486.7    5.422      37.404
2014   11       13    13  21    5.7360   486.7    5.430      37.414
2014   11       13    13  27    5.7413   486.6    5.438      37.426
2014   11       13    13  32    5.7465   486.6    5.446      37.438
2014   11       13    13  37    5.7517   486.5    5.455      37.450
2014   11       13    13  43    5.7569   486.5    5.462      37.463
2014   11       13    13  48    5.7621   486.4    5.470      37.476
2014   11       13    13  53    5.7673   486.4    5.478      37.489
2014   11       13    13  58    5.7725   486.3    5.486      37.503
2014   11       13    14   4    5.7776   486.3    5.494      37.516
2014   11       13    14   9    5.7827   486.3    5.501      37.530
2014   11       13    14  14    5.7878   486.2    5.509      37.543
2014   11       13    14  20    5.7930   486.2    5.516      37.557
2014   11       13    14  25    5.7980   486.1    5.524      37.570
2014   11       13    14  30    5.8031   486.1    5.531      37.583
2014   11       13    14  35    5.8082   486.0    5.538      37.596
2014   11       13    14  41    5.8133   486.0    5.545      37.609
2014   11       13    14  46    5.8184   486.0    5.552      37.622
2014   11       13    14  51    5.8235   485.9    5.559      37.634
2014   11       13    14  57    5.8286   485.9    5.566      37.647
2014   11       13    15   2    5.8337   485.8    5.573      37.659
2014   11       13    15   7    5.8387   485.8    5.580      37.671
2014   11       13    15  12    5.8438   485.8    5.586      37.683
2014   11       13    15  18    5.8489   485.7    5.593      37.695
2014   11       13    15  23    5.8540   485.7    5.600      37.706
2014   11       13    15  28    5.8590   485.6    5.606      37.718
2014   11       13    15  34    5.8642   485.6    5.612      37.729
2014   11       13    15  39    5.8693   485.6    5.619      37.741
2014   11       13    15  44    5.8743   485.5    5.625      37.752
2014   11       13    15  49    5.8794   485.5    5.631      37.762
2014   11       13    15  55    5.8845   485.5    5.637      37.773
2014   11       13    16   0    5.8897   485.4    5.643      37.783
2014   11       13    16   5    5.8948   485.4    5.649      37.793
2014   11       13    16  11    5.8999   485.4    5.655      37.803
2014   11       13    16  16    5.9051   485.3    5.661      37.813
2014   11       13    16  21    5.9102   485.3    5.667      37.823
2014   11       13    16  26    5.9153   485.3    5.673      37.832
2014   11       13    16  32    5.9205   485.2    5.679      37.841
2014   11       13    16  37    5.9256   485.2    5.684      37.850
2014   11       13    16  42    5.9308   485.2    5.690      37.859
2014   11       13    16  48    5.9360   485.1    5.696      37.868
2014   11       13    16  53    5.9411   485.1    5.702      37.877
2014   11       13    16  58    5.9463   485.1    5.707      37.886
2014   11       13    17   3    5.9515   485.0    5.713      37.894
2014   11       13    17   9    5.9566   485.0    5.719      37.903
2014   11       13    17  14    5.9618   485.0    5.724      37.912
2014   11       13    17  19    5.9670   485.0    5.730      37.921
2014   11       13    17  25    5.9722   484.9    5.735      37.929
2014   11       13    17  30    5.9773   484.9    5.741      37.938
2014   11       13    17  35    5.9826   484.9    5.747      37.948
2014   11       13    17  40    5.9878   484.9    5.752      37.957
2014   11       13    17  46    5.9930   484.8    5.758      37.967
2014   11       13    17  51    5.9980   484.8    5.764      37.977
2014   11       13    17  56    6.0032   484.8    5.770      37.987
2014   11       13    18   2    6.0085   484.8    5.776      37.998
2014   11       13    18   7    6.0137   484.7    5.781      38.009
2014   11       13    18  12    6.0188   484.7    5.787      38.020
2014   11       13    18  17    6.0239   484.7    5.793      38.032
2014   11       13    18  23    6.0292   484.7    5.800      38.044
2014   11       13    18  28    6.0343   484.7    5.806      38.057
2014   11       13    18  33    6.0395   484.6    5.812      38.071
2014   11       13    18  39    6.0447   484.6    5.818      38.086
2014   11       13    18  44    6.0500   484.6    5.824      38.101
2014   11       13    18  49    6.0552   484.6    5.831      38.118
2014   11       13    18  54    6.0604   484.6    5.837      38.135
2014   11       13    19   0    6.0655   484.6    5.843      38.153
2014   11       13    19   5    6.0707   484.6    5.850      38.171
2014   11       13    19  10    6.0758   484.6    5.856      38.190
2014   11       13    19  16    6.0811   484.6    5.863      38.210
2014   11       13    19  21    6.0861   484.6    5.869      38.230
2014   11       13    19  26    6.0914   484.6    5.876      38.251
2014   11       13    19  31    6.0964   484.6    5.882      38.273
2014   11       13    19  37    6.1015   484.6    5.889      38.296
2014   11       13    19  42    6.1066   484.6    5.895      38.319
2014   11       13    19  47    6.1117   484.6    5.901      38.343
2014   11       13    19  53    6.1168   484.6    5.907      38.367
2014   11       13    19  58    6.1218   484.6    5.913      38.391
2014   11       13    20   3    6.1269   484.6    5.919      38.415
2014   11       13    20   8    6.1318   484.6    5.925      38.439
2014   11       13    20  14    6.1369   484.6    5.931      38.464
2014   11       13    20  19    6.1418   484.6    5.937      38.488
2014   11       13    20  24    6.1468   484.7    5.942      38.512
2014   11       13    20  30    6.1516   484.7    5.948      38.536
2014   11       13    20  35    6.1567   484.7    5.953      38.559
2014   11       13    20  40    6.1615   484.7    5.959      38.582
2014   11       13    20  45    6.1665   484.7    5.964      38.605
2014   11       13    20  51    6.1714   484.7    5.969      38.627
2014   11       13    20  56    6.1762   484.8    5.975      38.649
2014   11       13    21   1    6.1811   484.8    5.980      38.671
2014   11       13    21   7    6.1860   484.8    5.985      38.692
2014   11       13    21  12    6.1908   484.8    5.990      38.713
2014   11       13    21  17    6.1957   484.8    5.995      38.734
2014   11       13    21  22    6.2005   484.8    6.000      38.754
2014   11       13    21  28    6.2054   484.9    6.004      38.774
2014   11       13    21  33    6.2102   484.9    6.009      38.795
2014   11       13    21  38    6.2152   484.9    6.014      38.815
2014   11       13    21  44    6.2200   484.9    6.019      38.835
2014   11       13    21  49    6.2247   485.0    6.023      38.855
2014   11       13    21  54    6.2295   485.0    6.028      38.875
2014   11       13    21  59    6.2344   485.0    6.032      38.894
2014   11       13    22   5    6.2391   485.0    6.036      38.914
2014   11       13    22  10    6.2438   485.1    6.041      38.933
2014   11       13    22  15    6.2486   485.1    6.045      38.952
2014   11       13    22  21    6.2533   485.1    6.049      38.971
2014   11       13    22  26    6.2580   485.2    6.052      38.990
2014   11       13    22  31    6.2626   485.2    6.056      39.009
2014   11       13    22  36    6.2673   485.2    6.060      39.027
2014   11       13    22  42    6.2719   485.3    6.063      39.045
2014   11       13    22  47    6.2765   485.3    6.067      39.063
2014   11       13    22  52    6.2811   485.3    6.070      39.080
2014   11       13    22  58    6.2856   485.4    6.073      39.097
2014   11       13    23   3    6.2901   485.4    6.076      39.114
2014   11       13    23   8    6.2946   485.4    6.079      39.130
2014   11       13    23  13    6.2991   485.5    6.082      39.147
2014   11       13    23  19    6.3036   485.5    6.085      39.163
2014   11       13    23  24    6.3081   485.5    6.087      39.179
2014   11       13    23  29    6.3125   485.6    6.090      39.195
2014   11       13    23  35    6.3170   485.6    6.093      39.211
2014   11       13    23  40    6.3213   485.6    6.095      39.226
2014   11       13    23  45    6.3258   485.7    6.098      39.242
2014   11       13    23  50    6.3301   485.7    6.100      39.257
2014   11       13    23  56    6.3345   485.7    6.103      39.273
2014   11       14     0   1    6.3389   485.8    6.105      39.288
2014   11       14     0   6    6.3433   485.8    6.107      39.303
2014   11       14     0  12    6.3476   485.8    6.109      39.318
2014   11       14     0  17    6.3518   485.9    6.112      39.334
2014   11       14     0  22    6.3562   485.9    6.114      39.349
2014   11       14     0  27    6.3605   485.9    6.116      39.364
2014   11       14     0  33    6.3647   486.0    6.118      39.380
2014   11       14     0  38    6.3690   486.0    6.121      39.395
2014   11       14     0  43    6.3734   486.0    6.123      39.411
2014   11       14     0  49    6.3776   486.1    6.125      39.427
2014   11       14     0  54    6.3819   486.1    6.127      39.443
2014   11       14     0  59    6.3861   486.1    6.130      39.459
2014   11       14     1   4    6.3905   486.2    6.132      39.476
2014   11       14     1  10    6.3947   486.2    6.134      39.493
2014   11       14     1  15    6.3990   486.2    6.137      39.510
2014   11       14     1  20    6.4032   486.3    6.139      39.528
2014   11       14     1  25    6.4073   486.3    6.141      39.546
2014   11       14     1  31    6.4116   486.3    6.144      39.565
2014   11       14     1  36    6.4157   486.4    6.146      39.584
2014   11       14     1  41    6.4200   486.4    6.148      39.605
2014   11       14     1  47    6.4243   486.5    6.151      39.626
2014   11       14     1  52    6.4284   486.5    6.153      39.647
2014   11       14     1  57    6.4327   486.5    6.155      39.669
2014   11       14     2   3    6.4369   486.6    6.157      39.691
2014   11       14     2   8    6.4409   486.6    6.160      39.714
2014   11       14     2  13    6.4452   486.7    6.162      39.738
2014   11       14     2  18    6.4493   486.7    6.164      39.762
2014   11       14     2  24    6.4536   486.8    6.166      39.786
2014   11       14     2  29    6.4577   486.8    6.168      39.810
2014   11       14     2  34    6.4619   486.9    6.170      39.835
2014   11       14     2  39    6.4660   486.9    6.172      39.861
2014   11       14     2  45    6.4700   487.0    6.174      39.886
2014   11       14     2  50    6.4742   487.0    6.176      39.912
2014   11       14     2  55    6.4783   487.1    6.178      39.937
2014   11       14     3   1    6.4824   487.1    6.180      39.963
2014   11       14     3   6    6.4863   487.2    6.182      39.989
2014   11       14     3  11    6.4905   487.2    6.184      40.015
2014   11       14     3  17    6.4944   487.3    6.186      40.041
2014   11       14     3  22    6.4986   487.3    6.188      40.067
2014   11       14     3  27    6.5025   487.4    6.190      40.093
2014   11       14     3  32    6.5066   487.4    6.192      40.119
2014   11       14     3  38    6.5107   487.5    6.194      40.145
2014   11       14     3  43    6.5147   487.6    6.195      40.172
2014   11       14     3  48    6.5187   487.6    6.197      40.198
2014   11       14     3  53    6.5226   487.7    6.199      40.224
2014   11       14     3  59    6.5266   487.7    6.201      40.251
2014   11       14     4   4    6.5307   487.8    6.203      40.278
2014   11       14     4   9    6.5346   487.8    6.205      40.305
2014   11       14     4  15    6.5386   487.9    6.207      40.332
2014   11       14     4  20    6.5427   488.0    6.209      40.359
2014   11       14     4  25    6.5466   488.0    6.212      40.386
2014   11       14     4  30    6.5507   488.1    6.214      40.414
2014   11       14     4  36    6.5547   488.1    6.216      40.442
2014   11       14     4  41    6.5587   488.2    6.219      40.470
2014   11       14     4  46    6.5626   488.3    6.222      40.499
2014   11       14     4  52    6.5666   488.3    6.224      40.528
2014   11       14     4  57    6.5707   488.4    6.227      40.557
2014   11       14     5   2    6.5745   488.4    6.230      40.587
2014   11       14     5   7    6.5784   488.5    6.233      40.617
2014   11       14     5  13    6.5824   488.6    6.235      40.647
2014   11       14     5  18    6.5863   488.6    6.238      40.677
2014   11       14     5  23    6.5902   488.7    6.241      40.706
2014   11       14     5  29    6.5940   488.8    6.244      40.736
2014   11       14     5  34    6.5977   488.9    6.247      40.766
2014   11       14     5  39    6.6015   488.9    6.250      40.796
2014   11       14     5  44    6.6052   489.0    6.252      40.825
2014   11       14     5  50    6.6090   489.1    6.255      40.855
2014   11       14     5  55    6.6126   489.1    6.258      40.884
2014   11       14     6   0    6.6162   489.2    6.260      40.912
2014   11       14     6   6    6.6197   489.3    6.262      40.941
2014   11       14     6  11    6.6233   489.4    6.265      40.969
2014   11       14     6  16    6.6269   489.5    6.267      40.996
2014   11       14     6  21    6.6304   489.5    6.269      41.024
2014   11       14     6  27    6.6339   489.6    6.271      41.050
2014   11       14     6  32    6.6372   489.7    6.272      41.077
2014   11       14     6  37    6.6406   489.8    6.274      41.103
2014   11       14     6  43    6.6440   489.8    6.275      41.129
2014   11       14     6  48    6.6475   489.9    6.277      41.155
2014   11       14     6  53    6.6506   490.0    6.278      41.180
2014   11       14     6  58    6.6540   490.1    6.279      41.205
2014   11       14     7   4    6.6573   490.2    6.280      41.230
2014   11       14     7   9    6.6605   490.2    6.281      41.255
2014   11       14     7  14    6.6637   490.3    6.281      41.279
2014   11       14     7  20    6.6669   490.4    6.282      41.303
2014   11       14     7  25    6.6701   490.5    6.282      41.327
2014   11       14     7  30    6.6733   490.6    6.282      41.351
2014   11       14     7  35    6.6766   490.6    6.283      41.375
2014   11       14     7  41    6.6797   490.7    6.283      41.398
2014   11       14     7  46    6.6827   490.8    6.283      41.422
2014   11       14     7  51    6.6860   490.9    6.282      41.445
2014   11       14     7  57    6.6890   491.0    6.282      41.468
2014   11       14     8   2    6.6921   491.0    6.282      41.491
2014   11       14     8   7    6.6951   491.1    6.281      41.513
2014   11       14     8  12    6.6983   491.2    6.281      41.536
2014   11       14     8  18    6.7013   491.3    6.280      41.558
2014   11       14     8  23    6.7043   491.4    6.280      41.580
2014   11       14     8  28    6.7074   491.4    6.279      41.603
2014   11       14     8  34    6.7105   491.5    6.278      41.625
2014   11       14     8  39    6.7134   491.6    6.277      41.647
2014   11       14     8  44    6.7165   491.7    6.276      41.669
2014   11       14     8  49    6.7195   491.8    6.275      41.690
2014   11       14     8  55    6.7226   491.8    6.274      41.712
2014   11       14     9   0    6.7255   491.9    6.273      41.734
2014   11       14     9   5    6.7284   492.0    6.272      41.756
2014   11       14     9  11    6.7314   492.1    6.271      41.778
2014   11       14     9  16    6.7344   492.2    6.270      41.800
2014   11       14     9  21    6.7375   492.3    6.269      41.822
2014   11       14     9  26    6.7403   492.3    6.268      41.844
2014   11       14     9  32    6.7434   492.4    6.267      41.866
2014   11       14     9  37    6.7462   492.5    6.265      41.888
2014   11       14     9  42    6.7491   492.6    6.264      41.910
2014   11       14     9  48    6.7522   492.7    6.263      41.933
2014   11       14     9  53    6.7551   492.8    6.262      41.956
2014   11       14     9  58    6.7579   492.8    6.261      41.979
2014   11       14    10   3    6.7610   492.9    6.260      42.002
2014   11       14    10   9    6.7637   493.0    6.259      42.026
2014   11       14    10  14    6.7668   493.1    6.258      42.049
2014   11       14    10  19    6.7695   493.2    6.257      42.073
2014   11       14    10  25    6.7726   493.3    6.256      42.098
2014   11       14    10  30    6.7754   493.4    6.255      42.123
2014   11       14    10  35    6.7783   493.4    6.255      42.148
2014   11       14    10  40    6.7812   493.5    6.254      42.173
2014   11       14    10  46    6.7842   493.6    6.253      42.199
2014   11       14    10  51    6.7873   493.7    6.253      42.226
2014   11       14    10  56    6.7900   493.8    6.253      42.253
2014   11       14    11   2    6.7930   493.9    6.252      42.280
2014   11       14    11   7    6.7961   494.0    6.252      42.309
2014   11       14    11  12    6.7989   494.1    6.253      42.337
2014   11       14    11  17    6.8018   494.2    6.253      42.367
2014   11       14    11  23    6.8049   494.3    6.253      42.396
2014   11       14    11  28    6.8076   494.4    6.254      42.426
2014   11       14    11  33    6.8107   494.5    6.255      42.458
2014   11       14    11  39    6.8134   494.6    6.256      42.491
2014   11       14    11  44    6.8164   494.7    6.257      42.524
2014   11       14    11  49    6.8191   494.8    6.258      42.559
2014   11       14    11  54    6.8217   494.9    6.259      42.594
2014   11       14    12   0    6.8244   495.0    6.260      42.630
2014   11       14    12   5    6.8272   495.1    6.261      42.667
2014   11       14    12  10    6.8297   495.2    6.262      42.704
2014   11       14    12  16    6.8324   495.3    6.263      42.741
2014   11       14    12  21    6.8347   495.4    6.264      42.778
2014   11       14    12  26    6.8372   495.5    6.265      42.815
2014   11       14    12  31    6.8396   495.7    6.266      42.852
2014   11       14    12  37    6.8419   495.8    6.266      42.889
2014   11       14    12  42    6.8442   495.9    6.267      42.925
2014   11       14    12  47    6.8466   496.0    6.267      42.961
2014   11       14    12  53    6.8487   496.1    6.267      42.995
2014   11       14    12  58    6.8510   496.3    6.267      43.030
2014   11       14    13   3    6.8530   496.4    6.267      43.063
2014   11       14    13   8    6.8552   496.5    6.267      43.096
2014   11       14    13  14    6.8573   496.6    6.267      43.128
2014   11       14    13  19    6.8593   496.7    6.267      43.159
2014   11       14    13  24    6.8614   496.8    6.266      43.190
2014   11       14    13  30    6.8632   496.9    6.266      43.221
2014   11       14    13  35    6.8653   497.1    6.265      43.251
2014   11       14    13  40    6.8673   497.2    6.264      43.281
2014   11       14    13  45    6.8692   497.3    6.264      43.310
2014   11       14    13  51    6.8713   497.4    6.263      43.340
2014   11       14    13  56    6.8733   497.5    6.262      43.369
2014   11       14    14   1    6.8751   497.6    6.261      43.398
2014   11       14    14   7    6.8771   497.7    6.260      43.426
2014   11       14    14  12    6.8790   497.8    6.258      43.455
2014   11       14    14  17    6.8809   498.0    6.257      43.483
2014   11       14    14  22    6.8828   498.1    6.255      43.511
2014   11       14    14  28    6.8848   498.2    6.254      43.538
2014   11       14    14  33    6.8867   498.3    6.252      43.566
2014   11       14    14  38    6.8884   498.4    6.251      43.593
2014   11       14    14  44    6.8903   498.5    6.249      43.620
2014   11       14    14  49    6.8921   498.6    6.247      43.646
2014   11       14    14  54    6.8939   498.7    6.245      43.672
2014   11       14    14  59    6.8959   498.9    6.243      43.698
2014   11       14    15   5    6.8975   499.0    6.240      43.723
2014   11       14    15  10    6.8994   499.1    6.238      43.748
2014   11       14    15  15    6.9012   499.2    6.236      43.773
2014   11       14    15  21    6.9029   499.3    6.233      43.798
2014   11       14    15  26    6.9046   499.4    6.231      43.822
2014   11       14    15  31    6.9063   499.5    6.228      43.847
2014   11       14    15  36    6.9079   499.7    6.226      43.871
2014   11       14    15  42    6.9097   499.8    6.223      43.895
2014   11       14    15  47    6.9114   499.9    6.220      43.918
2014   11       14    15  52    6.9131   500.0    6.218      43.942
2014   11       14    15  58    6.9147   500.1    6.215      43.965
2014   11       14    16   3    6.9162   500.2    6.212      43.988
2014   11       14    16   8    6.9181   500.4    6.209      44.011
2014   11       14    16  13    6.9195   500.5    6.206      44.035
2014   11       14    16  19    6.9211   500.6    6.203      44.058
2014   11       14    16  24    6.9229   500.7    6.200      44.081
2014   11       14    16  29    6.9245   500.8    6.197      44.103
2014   11       14    16  35    6.9260   500.9    6.194      44.126
2014   11       14    16  40    6.9274   501.1    6.191      44.149
2014   11       14    16  45    6.9290   501.2    6.188      44.172
2014   11       14    16  50    6.9307   501.3    6.185      44.194
2014   11       14    16  56    6.9320   501.4    6.182      44.217
2014   11       14    17   1    6.9336   501.5    6.179      44.240
2014   11       14    17   6    6.9351   501.7    6.176      44.262
2014   11       14    17  12    6.9365   501.8    6.173      44.285
2014   11       14    17  17    6.9379   501.9    6.170      44.307
2014   11       14    17  22    6.9393   502.0    6.167      44.329
2014   11       14    17  27    6.9405   502.1    6.164      44.352
2014   11       14    17  33    6.9420   502.2    6.160      44.374
2014   11       14    17  38    6.9432   502.4    6.157      44.396
2014   11       14    17  43    6.9445   502.5    6.154      44.418
2014   11       14    17  49    6.9459   502.6    6.151      44.440
2014   11       14    17  54    6.9472   502.7    6.148      44.462
2014   11       14    17  59    6.9484   502.8    6.145      44.483
2014   11       14    18   4    6.9496   503.0    6.142      44.505
2014   11       14    18  10    6.9508   503.1    6.139      44.527
2014   11       14    18  15    6.9520   503.2    6.136      44.549
2014   11       14    18  20    6.9529   503.3    6.134      44.570
2014   11       14    18  26    6.9542   503.5    6.131      44.592
2014   11       14    18  31    6.9553   503.6    6.128      44.614
2014   11       14    18  36    6.9564   503.7    6.126      44.635
2014   11       14    18  41    6.9574   503.8    6.123      44.657
2014   11       14    18  47    6.9584   503.9    6.121      44.678
2014   11       14    18  52    6.9593   504.1    6.118      44.700
2014   11       14    18  57    6.9601   504.2    6.116      44.723
2014   11       14    19   3    6.9612   504.3    6.114      44.745
2014   11       14    19   8    6.9619   504.4    6.112      44.768
2014   11       14    19  13    6.9627   504.5    6.110      44.791
2014   11       14    19  18    6.9637   504.7    6.109      44.815
2014   11       14    19  24    6.9642   504.8    6.107      44.839
2014   11       14    19  29    6.9652   504.9    6.105      44.864
2014   11       14    19  34    6.9657   505.1    6.104      44.889
2014   11       14    19  40    6.9665   505.2    6.102      44.916
2014   11       14    19  45    6.9670   505.3    6.100      44.942
2014   11       14    19  50    6.9676   505.5    6.099      44.969
2014   11       14    19  55    6.9683   505.6    6.097      44.997
2014   11       14    20   1    6.9688   505.7    6.095      45.025
2014   11       14    20   6    6.9691   505.9    6.093      45.052
2014   11       14    20  11    6.9698   506.0    6.091      45.080
2014   11       14    20  17    6.9702   506.1    6.089      45.108
2014   11       14    20  22    6.9707   506.2    6.087      45.136
2014   11       14    20  27    6.9709   506.4    6.084      45.163
2014   11       14    20  32    6.9713   506.5    6.082      45.190
2014   11       14    20  38    6.9718   506.6    6.079      45.217
2014   11       14    20  43    6.9722   506.8    6.076      45.243
2014   11       14    20  48    6.9725   506.9    6.073      45.269
2014   11       14    20  54    6.9727   507.0    6.070      45.295
2014   11       14    20  59    6.9732   507.1    6.067      45.320
2014   11       14    21   4    6.9735   507.3    6.064      45.345
2014   11       14    21   9    6.9738   507.4    6.060      45.370
2014   11       14    21  15    6.9741   507.5    6.057      45.394
2014   11       14    21  20    6.9745   507.6    6.053      45.418
2014   11       14    21  25    6.9748   507.8    6.049      45.442
2014   11       14    21  31    6.9749   507.9    6.046      45.465
2014   11       14    21  36    6.9752   508.0    6.042      45.488
2014   11       14    21  41    6.9756   508.1    6.038      45.510
2014   11       14    21  46    6.9759   508.3    6.034      45.532
2014   11       14    21  52    6.9762   508.4    6.029      45.554
2014   11       14    21  57    6.9765   508.5    6.025      45.575
2014   11       14    22   2    6.9767   508.6    6.021      45.595
2014   11       14    22   8    6.9770   508.7    6.016      45.615
2014   11       14    22  13    6.9771   508.9    6.012      45.635
2014   11       14    22  18    6.9774   509.0    6.007      45.653
2014   11       14    22  23    6.9776   509.1    6.002      45.672
2014   11       14    22  29    6.9780   509.2    5.998      45.689
2014   11       14    22  34    6.9782   509.3    5.993      45.706
2014   11       14    22  39    6.9784   509.5    5.988      45.723
2014   11       14    22  45    6.9785   509.6    5.983      45.739
2014   11       14    22  50    6.9789   509.7    5.978      45.755
2014   11       14    22  55    6.9790   509.8    5.973      45.770
2014   11       14    23   0    6.9791   509.9    5.968      45.784
2014   11       14    23   6    6.9792   510.1    5.962      45.798
2014   11       14    23  11    6.9795   510.2    5.957      45.812
2014   11       14    23  16    6.9796   510.3    5.952      45.825
2014   11       14    23  22    6.9795   510.4    5.947      45.837
2014   11       14    23  27    6.9798   510.5    5.941      45.850
2014   11       14    23  32    6.9797   510.7    5.936      45.861
2014   11       14    23  37    6.9797   510.8    5.930      45.872
2014   11       14    23  43    6.9798   510.9    5.925      45.883
2014   11       14    23  48    6.9796   511.0    5.919      45.894
2014   11       14    23  53    6.9797   511.1    5.914      45.904
2014   11       14    23  59    6.9795   511.3    5.908      45.913
2014   11       15     0   4    6.9795   511.4    5.903      45.922
2014   11       15     0   9    6.9794   511.5    5.897      45.931
2014   11       15     0  14    6.9793   511.6    5.892      45.940
2014   11       15     0  20    6.9791   511.7    5.886      45.948
2014   11       15     0  25    6.9788   511.8    5.880      45.956
2014   11       15     0  30    6.9787   512.0    5.875      45.963
2014   11       15     0  36    6.9785   512.1    5.869      45.970
2014   11       15     0  41    6.9782   512.2    5.863      45.977
2014   11       15     0  46    6.9780   512.3    5.858      45.984
2014   11       15     0  51    6.9777   512.4    5.852      45.990
2014   11       15     0  57    6.9774   512.5    5.846      45.996
2014   11       15     1   2    6.9770   512.7    5.840      46.002
2014   11       15     1   7    6.9768   512.8    5.835      46.008
2014   11       15     1  13    6.9764   512.9    5.829      46.013
2014   11       15     1  18    6.9759   513.0    5.823      46.018
2014   11       15     1  23    6.9755   513.1    5.818      46.023
2014   11       15     1  28    6.9751   513.2    5.812      46.028
2014   11       15     1  34    6.9748   513.3    5.806      46.032
2014   11       15     1  39    6.9744   513.4    5.801      46.037
2014   11       15     1  44    6.9738   513.5    5.795      46.041
2014   11       15     1  50    6.9734   513.7    5.790      46.045
2014   11       15     1  55    6.9730   513.8    5.784      46.049
2014   11       15     2   0    6.9724   513.9    5.779      46.053
2014   11       15     2   5    6.9718   514.0    5.773      46.057
2014   11       15     2  11    6.9713   514.1    5.768      46.061
2014   11       15     2  16    6.9707   514.2    5.762      46.065
2014   11       15     2  21    6.9703   514.3    5.757      46.069
2014   11       15     2  27    6.9697   514.4    5.752      46.073
2014   11       15     2  32    6.9691   514.5    5.747      46.078
2014   11       15     2  37    6.9684   514.6    5.742      46.082
2014   11       15     2  42    6.9677   514.7    5.737      46.087
2014   11       15     2  48    6.9671   514.8    5.732      46.092
2014   11       15     2  53    6.9665   514.9    5.728      46.098
2014   11       15     2  58    6.9657   515.0    5.723      46.103
2014   11       15     3   4    6.9652   515.1    5.719      46.109
2014   11       15     3   9    6.9644   515.2    5.714      46.116
2014   11       15     3  14    6.9638   515.2    5.710      46.123
2014   11       15     3  19    6.9631   515.3    5.705      46.130
2014   11       15     3  25    6.9623   515.4    5.701      46.137
2014   11       15     3  30    6.9617   515.5    5.697      46.144
2014   11       15     3  35    6.9610   515.6    5.693      46.152
2014   11       15     3  41    6.9603   515.7    5.689      46.160
2014   11       15     3  46    6.9596   515.8    5.685      46.168
2014   11       15     3  51    6.9590   515.9    5.681      46.176
2014   11       15     3  56    6.9582   515.9    5.677      46.185
2014   11       15     4   2    6.9576   516.0    5.673      46.194
2014   11       15     4   7    6.9569   516.1    5.669      46.203
2014   11       15     4  12    6.9562   516.2    5.665      46.212
2014   11       15     4  18    6.9556   516.3    5.661      46.221
2014   11       15     4  23    6.9549   516.3    5.657      46.231
2014   11       15     4  28    6.9542   516.4    5.653      46.240
2014   11       15     4  33    6.9535   516.5    5.649      46.249
2014   11       15     4  39    6.9529   516.6    5.645      46.258
2014   11       15     4  44    6.9521   516.6    5.641      46.267
2014   11       15     4  49    6.9515   516.7    5.637      46.275
2014   11       15     4  55    6.9509   516.8    5.633      46.284
2014   11       15     5   0    6.9502   516.9    5.629      46.292
2014   11       15     5   5    6.9496   516.9    5.625      46.300
2014   11       15     5  10    6.9489   517.0    5.621      46.307
2014   11       15     5  16    6.9483   517.1    5.618      46.315
2014   11       15     5  21    6.9476   517.1    5.614      46.322
2014   11       15     5  26    6.9471   517.2    5.610      46.328
2014   11       15     5  32    6.9465   517.3    5.606      46.334
2014   11       15     5  37    6.9459   517.3    5.602      46.340
2014   11       15     5  42    6.9452   517.4    5.598      46.346
2014   11       15     5  47    6.9448   517.5    5.594      46.352
2014   11       15     5  53    6.9441   517.5    5.590      46.357
2014   11       15     5  58    6.9436   517.6    5.586      46.361
2014   11       15     6   3    6.9431   517.7    5.583      46.366
2014   11       15     6   9    6.9425   517.7    5.579      46.370
2014   11       15     6  14    6.9420   517.8    5.575      46.374
2014   11       15     6  19    6.9416   517.8    5.571      46.378
2014   11       15     6  24    6.9410   517.9    5.567      46.382
2014   11       15     6  30    6.9405   518.0    5.564      46.385
2014   11       15     6  35    6.9400   518.0    5.560      46.388
2014   11       15     6  40    6.9395   518.1    5.556      46.391
2014   11       15     6  46    6.9391   518.2    5.552      46.393
2014   11       15     6  51    6.9386   518.2    5.549      46.396
2014   11       15     6  56    6.9381   518.3    5.545      46.398
2014   11       15     7   1    6.9376   518.3    5.541      46.400
2014   11       15     7   7    6.9371   518.4    5.538      46.402
2014   11       15     7  12    6.9367   518.5    5.534      46.403
2014   11       15     7  17    6.9363   518.5    5.531      46.405
2014   11       15     7  23    6.9358   518.6    5.527      46.406
2014   11       15     7  28    6.9353   518.6    5.524      46.407
2014   11       15     7  33    6.9349   518.7    5.520      46.407
2014   11       15     7  38    6.9345   518.8    5.517      46.407
2014   11       15     7  44    6.9341   518.8    5.513      46.408
2014   11       15     7  49    6.9336   518.9    5.510      46.408
2014   11       15     7  54    6.9332   519.0    5.506      46.407
2014   11       15     8   0    6.9328   519.0    5.503      46.407
2014   11       15     8   5    6.9324   519.1    5.499      46.407
2014   11       15     8  10    6.9319   519.1    5.496      46.406
2014   11       15     8  15    6.9315   519.2    5.492      46.405
2014   11       15     8  21    6.9311   519.3    5.489      46.404
2014   11       15     8  26    6.9307   519.3    5.486      46.403
2014   11       15     8  31    6.9303   519.4    5.482      46.401
2014   11       15     8  37    6.9299   519.4    5.479      46.400
2014   11       15     8  42    6.9295   519.5    5.476      46.398
2014   11       15     8  47    6.9291   519.5    5.472      46.397
2014   11       15     8  52    6.9287   519.6    5.469      46.395
2014   11       15     8  58    6.9284   519.7    5.466      46.393
2014   11       15     9   3    6.9280   519.7    5.462      46.390
2014   11       15     9   8    6.9276   519.8    5.459      46.388
2014   11       15     9  14    6.9272   519.8    5.456      46.386
2014   11       15     9  19    6.9269   519.9    5.453      46.383
2014   11       15     9  24    6.9265   519.9    5.450      46.381
2014   11       15     9  29    6.9261   520.0    5.446      46.378
2014   11       15     9  35    6.9257   520.0    5.443      46.376
2014   11       15     9  40    6.9254   520.1    5.440      46.373
2014   11       15     9  45    6.9250   520.1    5.437      46.371
2014   11       15     9  51    6.9247   520.2    5.434      46.369
2014   11       15     9  56    6.9243   520.2    5.431      46.367
2014   11       15    10   1    6.9239   520.3    5.428      46.365
2014   11       15    10   6    6.9236   520.3    5.425      46.364
2014   11       15    10  12    6.9232   520.4    5.422      46.362
2014   11       15    10  17    6.9229   520.4    5.420      46.362
2014   11       15    10  22    6.9226   520.5    5.417      46.361
2014   11       15    10  28    6.9222   520.5    5.414      46.361
2014   11       15    10  33    6.9218   520.6    5.411      46.361
2014   11       15    10  38    6.9215   520.6    5.409      46.361
2014   11       15    10  43    6.9211   520.6    5.406      46.361
2014   11       15    10  49    6.9208   520.7    5.403      46.362
2014   11       15    10  54    6.9205   520.7    5.401      46.363
2014   11       15    10  59    6.9202   520.8    5.398      46.365
2014   11       15    11   5    6.9200   520.8    5.396      46.366
2014   11       15    11  10    6.9197   520.8    5.393      46.368
2014   11       15    11  15    6.9194   520.9    5.391      46.370
2014   11       15    11  20    6.9191   520.9    5.389      46.372
2014   11       15    11  26    6.9189   521.0    5.386      46.374
2014   11       15    11  31    6.9186   521.0    5.384      46.376
2014   11       15    11  36    6.9184   521.0    5.382      46.379
2014   11       15    11  41    6.9182   521.0    5.380      46.382
2014   11       15    11  47    6.9179   521.1    5.378      46.385
2014   11       15    11  52    6.9178   521.1    5.376      46.388
2014   11       15    11  57    6.9176   521.1    5.374      46.391
2014   11       15    12   3    6.9174   521.2    5.372      46.395
2014   11       15    12   8    6.9173   521.2    5.370      46.399
2014   11       15    12  13    6.9171   521.2    5.369      46.403
2014   11       15    12  18    6.9171   521.2    5.367      46.407
2014   11       15    12  24    6.9170   521.3    5.365      46.411
2014   11       15    12  29    6.9170   521.3    5.364      46.416
2014   11       15    12  34    6.9169   521.3    5.362      46.421
2014   11       15    12  40    6.9169   521.3    5.361      46.426
2014   11       15    12  45    6.9169   521.4    5.360      46.432
2014   11       15    12  50    6.9170   521.4    5.358      46.437
2014   11       15    12  55    6.9171   521.4    5.357      46.443
2014   11       15    13   1    6.9171   521.4    5.356      46.449
2014   11       15    13   6    6.9173   521.5    5.355      46.456
2014   11       15    13  11    6.9175   521.5    5.353      46.462
2014   11       15    13  17    6.9177   521.5    5.352      46.469
2014   11       15    13  22    6.9179   521.5    5.351      46.476
2014   11       15    13  27    6.9180   521.5    5.350      46.483
2014   11       15    13  32    6.9183   521.6    5.349      46.491
2014   11       15    13  38    6.9187   521.6    5.349      46.498
2014   11       15    13  43    6.9191   521.6    5.348      46.506
2014   11       15    13  48    6.9193   521.6    5.347      46.513
2014   11       15    13  54    6.9198   521.6    5.346      46.521
2014   11       15    13  59    6.9203   521.7    5.345      46.529
2014   11       15    14   4    6.9206   521.7    5.345      46.537
2014   11       15    14   9    6.9212   521.7    5.344      46.545
2014   11       15    14  15    6.9217   521.7    5.343      46.553
2014   11       15    14  20    6.9222   521.7    5.343      46.561
2014   11       15    14  25    6.9227   521.8    5.342      46.569
2014   11       15    14  31    6.9234   521.8    5.342      46.577
2014   11       15    14  36    6.9240   521.8    5.341      46.585
2014   11       15    14  41    6.9246   521.8    5.341      46.593
2014   11       15    14  46    6.9253   521.8    5.340      46.600
2014   11       15    14  52    6.9260   521.9    5.340      46.608
2014   11       15    14  57    6.9266   521.9    5.339      46.616
2014   11       15    15   2    6.9274   521.9    5.339      46.623
2014   11       15    15   8    6.9282   521.9    5.339      46.631
2014   11       15    15  13    6.9289   521.9    5.338      46.638
2014   11       15    15  18    6.9296   522.0    5.338      46.645
2014   11       15    15  23    6.9306   522.0    5.338      46.653
2014   11       15    15  29    6.9313   522.0    5.337      46.660
2014   11       15    15  34    6.9322   522.0    5.337      46.667
2014   11       15    15  39    6.9331   522.0    5.337      46.674
2014   11       15    15  45    6.9340   522.1    5.337      46.681
2014   11       15    15  50    6.9348   522.1    5.337      46.688
2014   11       15    15  55    6.9358   522.1    5.337      46.695
2014   11       15    16   0    6.9366   522.1    5.336      46.702
2014   11       15    16   6    6.9377   522.1    5.336      46.709
2014   11       15    16  11    6.9386   522.2    5.336      46.716
2014   11       15    16  16    6.9397   522.2    5.336      46.723
2014   11       15    16  22    6.9407   522.2    5.336      46.730
2014   11       15    16  27    6.9416   522.2    5.336      46.737
2014   11       15    16  32    6.9426   522.2    5.336      46.744
2014   11       15    16  37    6.9436   522.3    5.336      46.751
2014   11       15    16  43    6.9449   522.3    5.336      46.757
2014   11       15    16  48    6.9459   522.3    5.336      46.764
2014   11       15    16  53    6.9469   522.3    5.336      46.772
2014   11       15    16  59    6.9480   522.3    5.336      46.779
2014   11       15    17   4    6.9492   522.4    5.336      46.786
2014   11       15    17   9    6.9505   522.4    5.336      46.794
2014   11       15    17  14    6.9517   522.4    5.336      46.802
2014   11       15    17  20    6.9527   522.4    5.336      46.810
2014   11       15    17  25    6.9539   522.5    5.337      46.819
2014   11       15    17  30    6.9553   522.5    5.337      46.828
2014   11       15    17  36    6.9564   522.5    5.337      46.837
2014   11       15    17  41    6.9578   522.5    5.337      46.847
2014   11       15    17  46    6.9591   522.6    5.337      46.856
2014   11       15    17  51    6.9602   522.6    5.337      46.867
2014   11       15    17  57    6.9616   522.6    5.337      46.877
2014   11       15    18   2    6.9629   522.6    5.337      46.888
2014   11       15    18   7    6.9641   522.7    5.338      46.899
2014   11       15    18  13    6.9654   522.7    5.338      46.910
2014   11       15    18  18    6.9669   522.7    5.338      46.921
2014   11       15    18  23    6.9680   522.7    5.338      46.933
2014   11       15    18  28    6.9696   522.8    5.338      46.945
2014   11       15    18  34    6.9709   522.8    5.338      46.957
2014   11       15    18  39    6.9723   522.8    5.338      46.969
2014   11       15    18  44    6.9734   522.9    5.339      46.982
2014   11       15    18  50    6.9748   522.9    5.339      46.995
2014   11       15    18  55    6.9764   522.9    5.339      47.009
2014   11       15    19   0    6.9777   523.0    5.339      47.022
2014   11       15    19   5    6.9789   523.0    5.339      47.036
2014   11       15    19  11    6.9803   523.0    5.339      47.050
2014   11       15    19  16    6.9817   523.1    5.339      47.064
2014   11       15    19  21    6.9833   523.1    5.339      47.078
2014   11       15    19  27    6.9847   523.1    5.339      47.092
2014   11       15    19  32    6.9859   523.2    5.339      47.106
2014   11       15    19  37    6.9873   523.2    5.338      47.120
2014   11       15    19  42    6.9889   523.2    5.338      47.134
2014   11       15    19  48    6.9904   523.3    5.338      47.148
2014   11       15    19  53    6.9917   523.3    5.338      47.162
2014   11       15    19  58    6.9931   523.3    5.338      47.175
2014   11       15    20   4    6.9948   523.4    5.337      47.189
2014   11       15    20   9    6.9961   523.4    5.337      47.203
2014   11       15    20  14    6.9976   523.4    5.337      47.216
2014   11       15    20  19    6.9992   523.5    5.337      47.230
2014   11       15    20  25    7.0007   523.5    5.336      47.243
2014   11       15    20  30    7.0023   523.5    5.336      47.257
2014   11       15    20  35    7.0040   523.6    5.336      47.271
2014   11       15    20  41    7.0056   523.6    5.336      47.284
2014   11       15    20  46    7.0072   523.6    5.335      47.298
2014   11       15    20  51    7.0087   523.7    5.335      47.312
2014   11       15    20  56    7.0104   523.7    5.335      47.326
2014   11       15    21   2    7.0121   523.7    5.335      47.340
2014   11       15    21   7    7.0140   523.8    5.334      47.354
2014   11       15    21  12    7.0156   523.8    5.334      47.368
2014   11       15    21  18    7.0175   523.8    5.334      47.383
2014   11       15    21  23    7.0193   523.9    5.334      47.397
2014   11       15    21  28    7.0210   523.9    5.334      47.411
2014   11       15    21  33    7.0229   523.9    5.334      47.426
2014   11       15    21  39    7.0248   524.0    5.333      47.441
2014   11       15    21  44    7.0267   524.0    5.333      47.456
2014   11       15    21  49    7.0285   524.0    5.333      47.470
2014   11       15    21  55    7.0303   524.1    5.333      47.485
2014   11       15    22   0    7.0323   524.1    5.333      47.500
2014   11       15    22   5    7.0343   524.2    5.333      47.515
2014   11       15    22  10    7.0363   524.2    5.333      47.530
2014   11       15    22  16    7.0382   524.2    5.333      47.545
2014   11       15    22  21    7.0402   524.3    5.333      47.561
2014   11       15    22  26    7.0422   524.3    5.333      47.576
2014   11       15    22  32    7.0442   524.3    5.333      47.592
2014   11       15    22  37    7.0462   524.4    5.334      47.607
2014   11       15    22  42    7.0484   524.4    5.334      47.623
2014   11       15    22  47    7.0505   524.5    5.334      47.639
2014   11       15    22  53    7.0525   524.5    5.335      47.655
2014   11       15    22  58    7.0547   524.5    5.335      47.672
2014   11       15    23   3    7.0569   524.6    5.336      47.689
2014   11       15    23   9    7.0590   524.6    5.336      47.706
2014   11       15    23  14    7.0612   524.7    5.337      47.724
2014   11       15    23  19    7.0634   524.7    5.337      47.742
2014   11       15    23  24    7.0657   524.7    5.338      47.761
2014   11       15    23  30    7.0679   524.8    5.339      47.780
2014   11       15    23  35    7.0703   524.8    5.340      47.800
2014   11       15    23  40    7.0727   524.9    5.341      47.821
2014   11       15    23  46    7.0751   524.9    5.342      47.843
2014   11       15    23  51    7.0775   525.0    5.343      47.866
2014   11       15    23  56    7.0800   525.0    5.344      47.889
2014   11       16     0   1    7.0825   525.1    5.345      47.913
2014   11       16     0   7    7.0850   525.1    5.347      47.938
2014   11       16     0  12    7.0875   525.2    5.348      47.963
2014   11       16     0  17    7.0902   525.2    5.349      47.988
2014   11       16     0  23    7.0928   525.3    5.350      48.014
2014   11       16     0  28    7.0953   525.3    5.351      48.041
2014   11       16     0  33    7.0979   525.4    5.352      48.068
2014   11       16     0  38    7.1005   525.4    5.354      48.096
2014   11       16     0  44    7.1031   525.5    5.355      48.124
2014   11       16     0  49    7.1056   525.6    5.356      48.153
2014   11       16     0  54    7.1083   525.6    5.357      48.181
2014   11       16     1   0    7.1109   525.7    5.358      48.210
2014   11       16     1   5    7.1134   525.7    5.359      48.239
2014   11       16     1  10    7.1160   525.8    5.360      48.267
2014   11       16     1  15    7.1186   525.9    5.361      48.296
2014   11       16     1  21    7.1212   525.9    5.361      48.325
2014   11       16     1  26    7.1238   526.0    5.362      48.353
2014   11       16     1  31    7.1263   526.1    5.363      48.382
2014   11       16     1  37    7.1289   526.1    5.364      48.410
2014   11       16     1  42    7.1314   526.2    5.365      48.439
2014   11       16     1  47    7.1340   526.3    5.365      48.467
2014   11       16     1  52    7.1367   526.3    5.366      48.495
2014   11       16     1  58    7.1392   526.4    5.367      48.523
2014   11       16     2   3    7.1418   526.4    5.368      48.551
2014   11       16     2   8    7.1445   526.5    5.368      48.578
2014   11       16     2  14    7.1471   526.6    5.369      48.606
2014   11       16     2  19    7.1497   526.7    5.370      48.635
2014   11       16     2  24    7.1524   526.7    5.371      48.663
2014   11       16     2  29    7.1550   526.8    5.372      48.692
2014   11       16     2  35    7.1576   526.9    5.372      48.721
2014   11       16     2  40    7.1604   527.0    5.373      48.752
2014   11       16     2  45    7.1631   527.0    5.374      48.782
2014   11       16     2  51    7.1657   527.1    5.375      48.813
2014   11       16     2  56    7.1685   527.2    5.375      48.845
2014   11       16     3   1    7.1711   527.3    5.376      48.877
2014   11       16     3   6    7.1739   527.4    5.377      48.910
2014   11       16     3  12    7.1766   527.5    5.377      48.943
2014   11       16     3  17    7.1794   527.6    5.378      48.976
2014   11       16     3  22    7.1820   527.6    5.379      49.009
2014   11       16     3  28    7.1849   527.7    5.379      49.043
2014   11       16     3  33    7.1875   527.8    5.379      49.077
2014   11       16     3  38    7.1904   527.9    5.380      49.110
2014   11       16     3  43    7.1931   528.0    5.380      49.144
2014   11       16     3  49    7.1959   528.1    5.381      49.178
2014   11       16     3  54    7.1989   528.2    5.381      49.212
2014   11       16     3  59    7.2017   528.3    5.381      49.246
2014   11       16     4   5    7.2045   528.4    5.381      49.279
2014   11       16     4  10    7.2073   528.5    5.382      49.313
2014   11       16     4  15    7.2103   528.6    5.382      49.347
2014   11       16     4  20    7.2130   528.7    5.382      49.381
2014   11       16     4  26    7.2158   528.8    5.382      49.415
2014   11       16     4  31    7.2187   528.9    5.382      49.449
2014   11       16     4  36    7.2216   529.0    5.382      49.483
2014   11       16     4  42    7.2245   529.1    5.382      49.518
2014   11       16     4  47    7.2274   529.2    5.383      49.552
2014   11       16     4  52    7.2304   529.3    5.383      49.586
2014   11       16     4  57    7.2332   529.4    5.383      49.620
2014   11       16     5   3    7.2359   529.5    5.383      49.654
2014   11       16     5   8    7.2389   529.6    5.383      49.688
2014   11       16     5  13    7.2417   529.7    5.383      49.722
2014   11       16     5  19    7.2446   529.8    5.383      49.756
2014   11       16     5  24    7.2474   529.9    5.382      49.789
2014   11       16     5  29    7.2503   530.0    5.382      49.823
2014   11       16     5  34    7.2530   530.1    5.382      49.857
2014   11       16     5  40    7.2558   530.2    5.382      49.891
2014   11       16     5  45    7.2587   530.3    5.382      49.924
2014   11       16     5  50    7.2615   530.4    5.382      49.958
2014   11       16     5  56    7.2643   530.5    5.382      49.992
2014   11       16     6   1    7.2671   530.6    5.382      50.026
2014   11       16     6   6    7.2701   530.7    5.382      50.059
2014   11       16     6  11    7.2729   530.8    5.382      50.094
2014   11       16     6  17    7.2757   530.9    5.382      50.128
2014   11       16     6  22    7.2785   531.0    5.382      50.163
2014   11       16     6  27    7.2814   531.1    5.383      50.197
2014   11       16     6  33    7.2844   531.2    5.383      50.233
2014   11       16     6  38    7.2873   531.3    5.383      50.269
2014   11       16     6  43    7.2903   531.4    5.384      50.305
2014   11       16     6  48    7.2933   531.5    5.384      50.342
2014   11       16     6  54    7.2964   531.6    5.385      50.379
2014   11       16     6  59    7.2995   531.7    5.385      50.417
2014   11       16     7   4    7.3026   531.8    5.386      50.455
2014   11       16     7  10    7.3058   531.9    5.387      50.494
2014   11       16     7  15    7.3091   532.0    5.388      50.534
2014   11       16     7  20    7.3124   532.1    5.389      50.575
2014   11       16     7  25    7.3157   532.2    5.390      50.617
2014   11       16     7  31    7.3190   532.3    5.391      50.660
2014   11       16     7  36    7.3223   532.4    5.393      50.705
2014   11       16     7  41    7.3257   532.5    5.394      50.749
2014   11       16     7  47    7.3291   532.6    5.395      50.795
2014   11       16     7  52    7.3324   532.8    5.396      50.842
2014   11       16     7  57    7.3358   532.9    5.397      50.889
2014   11       16     8   2    7.3391   533.0    5.399      50.936
2014   11       16     8   8    7.3424   533.1    5.400      50.984
2014   11       16     8  13    7.3457   533.3    5.401      51.032
2014   11       16     8  18    7.3489   533.4    5.401      51.079
2014   11       16     8  24    7.3521   533.5    5.402      51.127
2014   11       16     8  29    7.3552   533.6    5.403      51.175
2014   11       16     8  34    7.3584   533.8    5.404      51.222
2014   11       16     8  39    7.3614   533.9    5.404      51.269
2014   11       16     8  45    7.3645   534.0    5.405      51.316
2014   11       16     8  50    7.3675   534.2    5.405      51.361
2014   11       16     8  55    7.3705   534.3    5.406      51.406
2014   11       16     9   1    7.3735   534.4    5.406      51.451
2014   11       16     9   6    7.3764   534.6    5.406      51.495
2014   11       16     9  11    7.3794   534.7    5.407      51.538
2014   11       16     9  16    7.3823   534.8    5.407      51.582
2014   11       16     9  22    7.3852   534.9    5.407      51.625
2014   11       16     9  27    7.3882   535.1    5.408      51.667
2014   11       16     9  32    7.3911   535.2    5.408      51.710
2014   11       16     9  38    7.3941   535.3    5.408      51.752
2014   11       16     9  43    7.3970   535.5    5.409      51.794
2014   11       16     9  48    7.4000   535.6    5.409      51.836
2014   11       16     9  53    7.4029   535.7    5.409      51.878
2014   11       16     9  59    7.4060   535.9    5.410      51.921
2014   11       16    10   4    7.4090   536.0    5.411      51.964
2014   11       16    10   9    7.4120   536.1    5.411      52.008
2014   11       16    10  15    7.4150   536.3    5.412      52.052
2014   11       16    10  20    7.4181   536.4    5.413      52.098
2014   11       16    10  25    7.4213   536.6    5.414      52.144
2014   11       16    10  30    7.4244   536.7    5.415      52.192
2014   11       16    10  36    7.4277   536.8    5.416      52.240
2014   11       16    10  41    7.4309   537.0    5.417      52.290
2014   11       16    10  46    7.4341   537.1    5.418      52.341
2014   11       16    10  52    7.4375   537.3    5.420      52.393
2014   11       16    10  57    7.4408   537.4    5.421      52.446
2014   11       16    11   2    7.4441   537.6    5.423      52.501
2014   11       16    11   7    7.4474   537.8    5.424      52.558
2014   11       16    11  13    7.4508   537.9    5.426      52.618
2014   11       16    11  18    7.4541   538.1    5.428      52.679
2014   11       16    11  23    7.4574   538.3    5.430      52.742
2014   11       16    11  29    7.4607   538.4    5.431      52.806
2014   11       16    11  34    7.4639   538.6    5.433      52.872
2014   11       16    11  39    7.4671   538.8    5.435      52.937
2014   11       16    11  44    7.4702   539.0    5.436      53.003
2014   11       16    11  50    7.4733   539.2    5.437      53.068
2014   11       16    11  55    7.4763   539.3    5.438      53.134
2014   11       16    12   0    7.4792   539.5    5.439      53.200
2014   11       16    12   6    7.4821   539.7    5.439      53.266
2014   11       16    12  11    7.4849   539.9    5.439      53.330
2014   11       16    12  16    7.4877   540.1    5.439      53.392
2014   11       16    12  21    7.4903   540.3    5.439      53.454
2014   11       16    12  27    7.4930   540.5    5.439      53.514
2014   11       16    12  32    7.4955   540.7    5.438      53.573
2014   11       16    12  37    7.4981   540.9    5.438      53.631
2014   11       16    12  43    7.5007   541.1    5.437      53.688
2014   11       16    12  48    7.5032   541.3    5.436      53.745
2014   11       16    12  53    7.5057   541.5    5.435      53.800
2014   11       16    12  58    7.5081   541.7    5.434      53.855
2014   11       16    13   4    7.5106   541.9    5.433      53.909
2014   11       16    13   9    7.5131   542.1    5.432      53.963
2014   11       16    13  14    7.5156   542.3    5.430      54.017
2014   11       16    13  20    7.5181   542.5    5.429      54.070
2014   11       16    13  25    7.5205   542.7    5.428      54.122
2014   11       16    13  30    7.5230   542.9    5.427      54.175
2014   11       16    13  35    7.5255   543.1    5.426      54.228
2014   11       16    13  41    7.5281   543.3    5.425      54.281
2014   11       16    13  46    7.5307   543.4    5.424      54.333
2014   11       16    13  51    7.5334   543.6    5.423      54.387
2014   11       16    13  57    7.5361   543.8    5.422      54.441
2014   11       16    14   2    7.5389   544.0    5.421      54.496
2014   11       16    14   7    7.5418   544.2    5.421      54.554
2014   11       16    14  12    7.5447   544.5    5.420      54.613
2014   11       16    14  18    7.5476   544.7    5.419      54.673
2014   11       16    14  23    7.5506   544.9    5.419      54.735
2014   11       16    14  28    7.5536   545.1    5.418      54.798
2014   11       16    14  34    7.5566   545.3    5.418      54.862
2014   11       16    14  39    7.5596   545.6    5.417      54.926
2014   11       16    14  44    7.5625   545.8    5.416      54.991
2014   11       16    14  49    7.5654   546.0    5.415      55.056
2014   11       16    14  55    7.5683   546.3    5.414      55.121
2014   11       16    15   0    7.5711   546.5    5.412      55.185
2014   11       16    15   5    7.5738   546.8    5.411      55.248
2014   11       16    15  11    7.5764   547.0    5.409      55.310
2014   11       16    15  16    7.5790   547.2    5.407      55.370
2014   11       16    15  21    7.5815   547.5    5.405      55.429
2014   11       16    15  26    7.5839   547.7    5.403      55.488
2014   11       16    15  32    7.5863   548.0    5.401      55.545
2014   11       16    15  37    7.5886   548.2    5.398      55.600
2014   11       16    15  42    7.5909   548.4    5.396      55.655
2014   11       16    15  48    7.5931   548.7    5.393      55.709
2014   11       16    15  53    7.5954   548.9    5.390      55.761
2014   11       16    15  58    7.5976   549.2    5.387      55.813
2014   11       16    16   3    7.5998   549.4    5.384      55.864
2014   11       16    16   9    7.6019   549.6    5.382      55.915
2014   11       16    16  14    7.6041   549.9    5.379      55.964
2014   11       16    16  19    7.6063   550.1    5.376      56.014
2014   11       16    16  25    7.6085   550.3    5.373      56.062
2014   11       16    16  30    7.6106   550.6    5.370      56.110
2014   11       16    16  35    7.6128   550.8    5.367      56.158
2014   11       16    16  40    7.6150   551.0    5.364      56.206
2014   11       16    16  46    7.6173   551.3    5.361      56.253
2014   11       16    16  51    7.6195   551.5    5.358      56.300
2014   11       16    16  56    7.6218   551.7    5.356      56.348
2014   11       16    17   2    7.6242   552.0    5.353      56.396
2014   11       16    17   7    7.6266   552.2    5.351      56.444
2014   11       16    17  12    7.6291   552.4    5.349      56.493
2014   11       16    17  17    7.6316   552.7    5.347      56.542
2014   11       16    17  23    7.6342   552.9    5.345      56.593
2014   11       16    17  28    7.6369   553.1    5.344      56.647
2014   11       16    17  33    7.6397   553.4    5.342      56.703
2014   11       16    17  39    7.6424   553.6    5.341      56.761
2014   11       16    17  44    7.6453   553.9    5.341      56.821
2014   11       16    17  49    7.6482   554.1    5.340      56.885
2014   11       16    17  54    7.6511   554.4    5.340      56.950
2014   11       16    18   0    7.6540   554.6    5.340      57.017
2014   11       16    18   5    7.6569   554.9    5.340      57.085
2014   11       16    18  10    7.6597   555.2    5.340      57.156
2014   11       16    18  16    7.6626   555.4    5.340      57.230
2014   11       16    18  21    7.6653   555.7    5.340      57.307
2014   11       16    18  26    7.6681   556.0    5.340      57.386
2014   11       16    18  31    7.6707   556.3    5.339      57.466
2014   11       16    18  37    7.6731   556.6    5.339      57.546
2014   11       16    18  42    7.6755   556.9    5.338      57.627
2014   11       16    18  47    7.6778   557.2    5.338      57.708
2014   11       16    18  53    7.6800   557.5    5.336      57.788
2014   11       16    18  58    7.6820   557.8    5.335      57.867
2014   11       16    19   3    7.6840   558.1    5.333      57.946
2014   11       16    19   8    7.6858   558.5    5.331      58.024
2014   11       16    19  14    7.6876   558.8    5.329      58.102
2014   11       16    19  19    7.6891   559.1    5.326      58.178
2014   11       16    19  24    7.6908   559.4    5.323      58.252
2014   11       16    19  30    7.6921   559.8    5.319      58.324
2014   11       16    19  35    7.6935   560.1    5.316      58.394
2014   11       16    19  40    7.6949   560.4    5.312      58.463
2014   11       16    19  45    7.6961   560.7    5.308      58.531
2014   11       16    19  51    7.6971   561.1    5.303      58.597
2014   11       16    19  56    7.6984   561.4    5.299      58.662
2014   11       16    20   1    7.6993   561.7    5.294      58.726
2014   11       16    20   7    7.7005   562.1    5.289      58.789
2014   11       16    20  12    7.7013   562.4    5.285      58.851
2014   11       16    20  17    7.7023   562.7    5.280      58.912
2014   11       16    20  22    7.7032   563.1    5.275      58.972
2014   11       16    20  28    7.7041   563.4    5.270      59.032
2014   11       16    20  33    7.7050   563.7    5.265      59.091
2014   11       16    20  38    7.7058   564.1    5.259      59.149
2014   11       16    20  44    7.7068   564.4    5.254      59.207
2014   11       16    20  49    7.7076   564.7    5.249      59.265
2014   11       16    20  54    7.7083   565.0    5.244      59.322
2014   11       16    20  59    7.7091   565.4    5.239      59.378
2014   11       16    21   5    7.7099   565.7    5.234      59.434
2014   11       16    21  10    7.7107   566.0    5.229      59.491
2014   11       16    21  15    7.7116   566.4    5.224      59.549
2014   11       16    21  21    7.7127   566.7    5.219      59.607
2014   11       16    21  26    7.7133   567.0    5.214      59.667
2014   11       16    21  31    7.7143   567.4    5.210      59.728
2014   11       16    21  36    7.7149   567.7    5.205      59.791
2014   11       16    21  42    7.7156   568.1    5.200      59.854
2014   11       16    21  47    7.7163   568.4    5.195      59.918
2014   11       16    21  52    7.7170   568.8    5.190      59.982
2014   11       16    21  58    7.7176   569.1    5.185      60.047
2014   11       16    22   3    7.7181   569.5    5.180      60.112
2014   11       16    22   8    7.7188   569.8    5.174      60.178
2014   11       16    22  13    7.7188   570.2    5.169      60.244
2014   11       16    22  19    7.7191   570.6    5.163      60.309
2014   11       16    22  24    7.7192   570.9    5.158      60.374
2014   11       16    22  29    7.7195   571.3    5.152      60.438
2014   11       16    22  35    7.7192   571.7    5.146      60.502
2014   11       16    22  40    7.7191   572.1    5.140      60.565
2014   11       16    22  45    7.7188   572.4    5.134      60.627
2014   11       16    22  50    7.7185   572.8    5.127      60.689
2014   11       16    22  56    7.7185   573.2    5.121      60.749
2014   11       16    23   1    7.7180   573.6    5.114      60.809
2014   11       16    23   6    7.7172   573.9    5.108      60.868
2014   11       16    23  12    7.7167   574.3    5.101      60.926
2014   11       16    23  17    7.7161   574.7    5.094      60.983
2014   11       16    23  22    7.7154   575.0    5.087      61.039
2014   11       16    23  27    7.7147   575.4    5.080      61.094
2014   11       16    23  33    7.7143   575.8    5.073      61.149
2014   11       16    23  38    7.7131   576.2    5.066      61.202
2014   11       16    23  43    7.7123   576.5    5.059      61.255
2014   11       16    23  49    7.7114   576.9    5.052      61.307
2014   11       16    23  54    7.7105   577.3    5.045      61.358
2014   11       16    23  59    7.7096   577.6    5.038      61.409
2014   11       17     0   4    7.7087   578.0    5.031      61.459
2014   11       17     0  10    7.7081   578.3    5.024      61.509
2014   11       17     0  15    7.7067   578.7    5.017      61.559
2014   11       17     0  20    7.7057   579.1    5.010      61.608
2014   11       17     0  26    7.7047   579.4    5.003      61.658
2014   11       17     0  31    7.7037   579.8    4.996      61.707
2014   11       17     0  36    7.7027   580.2    4.990      61.755
2014   11       17     0  41    7.7021   580.5    4.983      61.804
2014   11       17     0  47    7.7011   580.9    4.977      61.855
2014   11       17     0  52    7.6997   581.2    4.971      61.907
2014   11       17     0  57    7.6990   581.6    4.965      61.962
2014   11       17     1   3    7.6975   582.0    4.958      62.017
2014   11       17     1   8    7.6967   582.3    4.952      62.075
2014   11       17     1  13    7.6955   582.7    4.946      62.133
2014   11       17     1  18    7.6942   583.1    4.940      62.192
2014   11       17     1  24    7.6925   583.5    4.934      62.252
2014   11       17     1  29    7.6910   583.9    4.928      62.313
2014   11       17     1  34    7.6899   584.2    4.921      62.373
2014   11       17     1  40    7.6878   584.6    4.915      62.435
2014   11       17     1  45    7.6860   585.0    4.908      62.496
2014   11       17     1  50    7.6841   585.4    4.901      62.556
2014   11       17     1  55    7.6822   585.8    4.894      62.615
2014   11       17     2   1    7.6801   586.2    4.887      62.673
2014   11       17     2   6    7.6784   586.6    4.879      62.729
2014   11       17     2  11    7.6755   587.0    4.871      62.784
2014   11       17     2  17    7.6731   587.4    4.864      62.838
2014   11       17     2  22    7.6706   587.8    4.856      62.890
2014   11       17     2  27    7.6685   588.2    4.847      62.940
2014   11       17     2  32    7.6653   588.6    4.839      62.989
2014   11       17     2  38    7.6625   589.0    4.831      63.036
2014   11       17     2  43    7.6601   589.4    4.822      63.081
2014   11       17     2  48    7.6572   589.8    4.814      63.125
2014   11       17     2  54    7.6537   590.2    4.805      63.168
2014   11       17     2  59    7.6507   590.5    4.796      63.209
2014   11       17     3   4    7.6476   590.9    4.788      63.250
2014   11       17     3   9    7.6445   591.3    4.779      63.290
2014   11       17     3  15    7.6419   591.6    4.771      63.331
2014   11       17     3  20    7.6388   592.0    4.762      63.372
2014   11       17     3  25    7.6356   592.4    4.753      63.413
2014   11       17     3  31    7.6319   592.8    4.745      63.455
2014   11       17     3  36    7.6287   593.2    4.736      63.497
2014   11       17     3  41    7.6254   593.5    4.728      63.540
2014   11       17     3  46    7.6226   593.9    4.719      63.583
2014   11       17     3  52    7.6189   594.3    4.711      63.626
2014   11       17     3  57    7.6155   594.7    4.702      63.669
2014   11       17     4   2    7.6121   595.1    4.694      63.712
2014   11       17     4   8    7.6091   595.5    4.685      63.754
2014   11       17     4  13    7.6052   595.9    4.677      63.796
2014   11       17     4  18    7.6016   596.3    4.668      63.837
2014   11       17     4  23    7.5985   596.6    4.660      63.878
2014   11       17     4  29    7.5943   597.0    4.651      63.917
2014   11       17     4  34    7.5906   597.4    4.642      63.956
2014   11       17     4  39    7.5868   597.8    4.634      63.995
2014   11       17     4  45    7.5835   598.2    4.625      64.033
2014   11       17     4  50    7.5791   598.5    4.616      64.071
2014   11       17     4  55    7.5752   598.9    4.608      64.108
2014   11       17     5   0    7.5712   599.3    4.599      64.146
2014   11       17     5   6    7.5677   599.6    4.591      64.183
2014   11       17     5  11    7.5637   600.0    4.582      64.220
2014   11       17     5  16    7.5592   600.4    4.574      64.257
2014   11       17     5  22    7.5555   600.7    4.565      64.294
2014   11       17     5  27    7.5509   601.1    4.557      64.332
2014   11       17     5  32    7.5468   601.4    4.549      64.370
2014   11       17     5  37    7.5426   601.8    4.540      64.408
2014   11       17     5  43    7.5388   602.2    4.532      64.447
2014   11       17     5  48    7.5341   602.5    4.524      64.487
2014   11       17     5  53    7.5298   602.9    4.516      64.527
2014   11       17     5  59    7.5260   603.2    4.508      64.568
2014   11       17     6   4    7.5211   603.6    4.500      64.608
2014   11       17     6   9    7.5172   603.9    4.492      64.648
2014   11       17     6  14    7.5127   604.3    4.483      64.687
2014   11       17     6  20    7.5083   604.6    4.475      64.725
2014   11       17     6  25    7.5038   605.0    4.467      64.762
2014   11       17     6  30    7.4992   605.3    4.459      64.798
2014   11       17     6  36    7.4946   605.7    4.451      64.833
2014   11       17     6  41    7.4896   606.0    4.443      64.865
2014   11       17     6  46    7.4854   606.3    4.434      64.897
2014   11       17     6  51    7.4803   606.7    4.426      64.926
2014   11       17     6  57    7.4756   607.0    4.418      64.954
2014   11       17     7   2    7.4708   607.4    4.409      64.980
2014   11       17     7   7    7.4661   607.7    4.401      65.005
2014   11       17     7  12    7.4613   608.0    4.392      65.028
2014   11       17     7  18    7.4569   608.3    4.384      65.050
2014   11       17     7  23    7.4521   608.7    4.375      65.070
2014   11       17     7  28    7.4468   609.0    4.367      65.089
2014   11       17     7  34    7.4419   609.3    4.358      65.106
2014   11       17     7  39    7.4370   609.6    4.349      65.122
2014   11       17     7  44    7.4321   610.0    4.341      65.136
2014   11       17     7  49    7.4275   610.3    4.332      65.149
2014   11       17     7  55    7.4220   610.6    4.323      65.161
2014   11       17     8   0    7.4169   610.9    4.315      65.170
2014   11       17     8   5    7.4122   611.2    4.306      65.179
2014   11       17     8  11    7.4070   611.5    4.297      65.185
2014   11       17     8  16    7.4018   611.9    4.288      65.191
2014   11       17     8  21    7.3961   612.2    4.279      65.195
2014   11       17     8  26    7.3908   612.5    4.271      65.197
2014   11       17     8  32    7.3858   612.8    4.262      65.199
2014   11       17     8  37    7.3804   613.1    4.253      65.199
2014   11       17     8  42    7.3745   613.4    4.244      65.199
2014   11       17     8  48    7.3694   613.6    4.235      65.197
2014   11       17     8  53    7.3638   613.9    4.226      65.195
2014   11       17     8  58    7.3582   614.2    4.217      65.191
2014   11       17     9   3    7.3521   614.5    4.209      65.186
2014   11       17     9   9    7.3468   614.8    4.200      65.181
2014   11       17     9  14    7.3406   615.1    4.191      65.175
2014   11       17     9  19    7.3348   615.4    4.182      65.168
2014   11       17     9  25    7.3289   615.6    4.173      65.159
2014   11       17     9  30    7.3234   615.9    4.164      65.150
2014   11       17     9  35    7.3170   616.2    4.156      65.140
2014   11       17     9  40    7.3114   616.5    4.147      65.129
2014   11       17     9  46    7.3053   616.7    4.138      65.117
2014   11       17     9  51    7.2989   617.0    4.130      65.104
2014   11       17     9  56    7.2931   617.2    4.122      65.091
2014   11       17    10   2    7.2866   617.5    4.113      65.077
2014   11       17    10   7    7.2809   617.7    4.105      65.063
2014   11       17    10  12    7.2748   617.9    4.097      65.050
2014   11       17    10  17    7.2686   618.1    4.090      65.037
2014   11       17    10  23    7.2622   618.3    4.082      65.025
2014   11       17    10  28    7.2561   618.5    4.075      65.014
2014   11       17    10  33    7.2500   618.7    4.068      65.006
2014   11       17    10  39    7.2443   618.9    4.062      65.001
2014   11       17    10  44    7.2383   619.1    4.055      64.997
2014   11       17    10  49    7.2319   619.3    4.049      64.996
2014   11       17    10  54    7.2263   619.5    4.043      64.999
2014   11       17    11   0    7.2204   619.7    4.037      65.006
2014   11       17    11   5    7.2142   619.9    4.032      65.016
2014   11       17    11  10    7.2086   620.1    4.026      65.028
2014   11       17    11  16    7.2024   620.4    4.021      65.043
2014   11       17    11  21    7.1965   620.6    4.015      65.059
2014   11       17    11  26    7.1907   620.8    4.010      65.077
2014   11       17    11  32    7.1851   621.0    4.005      65.095
2014   11       17    11  37    7.1793   621.2    3.999      65.112
2014   11       17    11  42    7.1733   621.4    3.994      65.128
2014   11       17    11  47    7.1675   621.7    3.988      65.144
2014   11       17    11  53    7.1616   621.9    3.982      65.159
2014   11       17    11  58    7.1559   622.1    3.977      65.174
2014   11       17    12   3    7.1502   622.3    3.971      65.187
2014   11       17    12   8    7.1445   622.5    3.965      65.198
2014   11       17    12  14    7.1385   622.7    3.959      65.208
2014   11       17    12  19    7.1327   622.9    3.953      65.216
2014   11       17    12  24    7.1270   623.1    3.947      65.223
2014   11       17    12  30    7.1213   623.3    3.941      65.228
2014   11       17    12  35    7.1156   623.5    3.934      65.233
2014   11       17    12  40    7.1100   623.7    3.928      65.236
2014   11       17    12  45    7.1044   623.9    3.922      65.238
2014   11       17    12  51    7.0987   624.1    3.916      65.240
2014   11       17    12  56    7.0931   624.2    3.910      65.241
2014   11       17    13   1    7.0875   624.4    3.903      65.241
2014   11       17    13   7    7.0820   624.6    3.897      65.240
2014   11       17    13  12    7.0765   624.8    3.891      65.239
2014   11       17    13  17    7.0711   625.0    3.885      65.237
2014   11       17    13  22    7.0656   625.2    3.879      65.233
2014   11       17    13  28    7.0602   625.3    3.873      65.228
2014   11       17    13  33    7.0548   625.5    3.866      65.221
2014   11       17    13  38    7.0494   625.7    3.860      65.213
2014   11       17    13  44    7.0441   625.8    3.854      65.204
2014   11       17    13  49    7.0388   626.0    3.848      65.194
2014   11       17    13  54    7.0334   626.2    3.842      65.182
2014   11       17    13  59    7.0282   626.3    3.836      65.168
2014   11       17    14   5    7.0230   626.5    3.830      65.153
2014   11       17    14  10    7.0177   626.6    3.824      65.137
2014   11       17    14  15    7.0125   626.8    3.817      65.119
2014   11       17    14  21    7.0073   627.0    3.811      65.100
2014   11       17    14  26    7.0021   627.1    3.805      65.079
2014   11       17    14  31    6.9970   627.3    3.799      65.058
2014   11       17    14  36    6.9918   627.4    3.793      65.035
2014   11       17    14  42    6.9867   627.6    3.787      65.010
2014   11       17    14  47    6.9818   627.7    3.781      64.985
2014   11       17    14  52    6.9768   627.8    3.775      64.959
2014   11       17    14  58    6.9715   628.0    3.769      64.932
2014   11       17    15   3    6.9667   628.1    3.763      64.903
2014   11       17    15   8    6.9615   628.3    3.757      64.874
2014   11       17    15  13    6.9565   628.4    3.751      64.844
2014   11       17    15  19    6.9516   628.5    3.745      64.814
2014   11       17    15  24    6.9464   628.7    3.740      64.782
2014   11       17    15  29    6.9416   628.8    3.734      64.749
2014   11       17    15  35    6.9366   628.9    3.728      64.716
2014   11       17    15  40    6.9315   629.1    3.722      64.682
2014   11       17    15  45    6.9263   629.2    3.717      64.647
2014   11       17    15  50    6.9215   629.3    3.711      64.612
2014   11       17    15  56    6.9164   629.4    3.706      64.577
2014   11       17    16   1    6.9111   629.6    3.700      64.541
2014   11       17    16   6    6.9060   629.7    3.695      64.505
2014   11       17    16  12    6.9012   629.8    3.689      64.469
2014   11       17    16  17    6.8958   629.9    3.684      64.432
2014   11       17    16  22    6.8907   630.0    3.679      64.396
2014   11       17    16  27    6.8859   630.1    3.674      64.359
2014   11       17    16  33    6.8808   630.2    3.669      64.323
2014   11       17    16  38    6.8758   630.3    3.664      64.287
2014   11       17    16  43    6.8704   630.4    3.659      64.250
2014   11       17    16  49    6.8653   630.5    3.655      64.214
2014   11       17    16  54    6.8606   630.6    3.650      64.179
2014   11       17    16  59    6.8556   630.7    3.646      64.144
2014   11       17    17   4    6.8506   630.8    3.642      64.109
2014   11       17    17  10    6.8453   630.8    3.638      64.076
2014   11       17    17  15    6.8407   630.9    3.634      64.043
2014   11       17    17  20    6.8354   631.0    3.630      64.011
2014   11       17    17  26    6.8305   631.0    3.626      63.981
2014   11       17    17  31    6.8257   631.1    3.623      63.952
2014   11       17    17  36    6.8212   631.1    3.619      63.925
2014   11       17    17  41    6.8161   631.2    3.616      63.901
2014   11       17    17  47    6.8114   631.2    3.613      63.878
2014   11       17    17  52    6.8067   631.2    3.610      63.858
2014   11       17    17  57    6.8020   631.3    3.607      63.838
2014   11       17    18   3    6.7977   631.3    3.605      63.823
2014   11       17    18   8    6.7931   631.3    3.603      63.810
2014   11       17    18  13    6.7883   631.4    3.600      63.800
2014   11       17    18  18    6.7841   631.4    3.598      63.793
2014   11       17    18  24    6.7797   631.4    3.596      63.787
2014   11       17    18  29    6.7751   631.4    3.594      63.783
2014   11       17    18  34    6.7711   631.5    3.591      63.780
2014   11       17    18  40    6.7668   631.5    3.589      63.777
2014   11       17    18  45    6.7627   631.5    3.587      63.773
2014   11       17    18  50    6.7583   631.6    3.584      63.769
2014   11       17    18  55    6.7542   631.6    3.582      63.765
2014   11       17    19   1    6.7502   631.6    3.579      63.759
2014   11       17    19   6    6.7465   631.6    3.577      63.753
2014   11       17    19  11    6.7425   631.7    3.574      63.745
2014   11       17    19  17    6.7384   631.7    3.571      63.734
2014   11       17    19  22    6.7345   631.7    3.568      63.722
2014   11       17    19  27    6.7307   631.8    3.565      63.709
2014   11       17    19  32    6.7271   631.8    3.562      63.693
2014   11       17    19  38    6.7231   631.8    3.558      63.677
2014   11       17    19  43    6.7193   631.9    3.555      63.659
2014   11       17    19  48    6.7159   631.9    3.552      63.639
2014   11       17    19  54    6.7122   631.9    3.549      63.619
2014   11       17    19  59    6.7085   631.9    3.545      63.598
2014   11       17    20   4    6.7046   632.0    3.542      63.575
2014   11       17    20   9    6.7012   632.0    3.538      63.552
2014   11       17    20  15    6.6976   632.0    3.535      63.528
2014   11       17    20  20    6.6941   632.1    3.531      63.504
2014   11       17    20  25    6.6905   632.1    3.528      63.478
2014   11       17    20  31    6.6870   632.1    3.524      63.452
2014   11       17    20  36    6.6833   632.1    3.521      63.425
2014   11       17    20  41    6.6798   632.2    3.517      63.398
2014   11       17    20  46    6.6765   632.2    3.514      63.370
2014   11       17    20  52    6.6728   632.2    3.510      63.342
2014   11       17    20  57    6.6696   632.3    3.507      63.313
2014   11       17    21   2    6.6662   632.3    3.503      63.283
2014   11       17    21   8    6.6626   632.3    3.500      63.254
2014   11       17    21  13    6.6594   632.3    3.496      63.224
2014   11       17    21  18    6.6558   632.4    3.493      63.194
2014   11       17    21  23    6.6524   632.4    3.489      63.164
2014   11       17    21  29    6.6491   632.4    3.486      63.134
2014   11       17    21  34    6.6459   632.4    3.482      63.104
2014   11       17    21  39    6.6424   632.5    3.479      63.074
2014   11       17    21  45    6.6392   632.5    3.476      63.043
2014   11       17    21  50    6.6357   632.5    3.473      63.013
2014   11       17    21  55    6.6324   632.5    3.470      62.983
2014   11       17    22   0    6.6293   632.6    3.466      62.952
2014   11       17    22   6    6.6260   632.6    3.463      62.922
2014   11       17    22  11    6.6225   632.6    3.461      62.893
2014   11       17    22  16    6.6194   632.6    3.458      62.863
2014   11       17    22  22    6.6161   632.7    3.455      62.834
2014   11       17    22  27    6.6128   632.7    3.452      62.806
2014   11       17    22  32    6.6096   632.7    3.450      62.778
2014   11       17    22  37    6.6061   632.7    3.447      62.750
2014   11       17    22  43    6.6029   632.8    3.445      62.723
2014   11       17    22  48    6.5996   632.8    3.443      62.697
2014   11       17    22  53    6.5966   632.8    3.440      62.672
2014   11       17    22  59    6.5933   632.8    3.438      62.647
2014   11       17    23   4    6.5899   632.9    3.436      62.623
2014   11       17    23   9    6.5869   632.9    3.435      62.600
2014   11       17    23  14    6.5837   632.9    3.433      62.578
2014   11       17    23  20    6.5805   632.9    3.431      62.557
2014   11       17    23  25    6.5773   633.0    3.430      62.538
2014   11       17    23  30    6.5741   633.0    3.428      62.519
2014   11       17    23  36    6.5709   633.0    3.427      62.502
2014   11       17    23  41    6.5678   633.0    3.426      62.486
2014   11       17    23  46    6.5646   633.1    3.425      62.471
2014   11       17    23  51    6.5614   633.1    3.424      62.457
2014   11       17    23  57    6.5582   633.1    3.423      62.444
2014   11       18     0   2    6.5550   633.1    3.423      62.433
2014   11       18     0   7    6.5517   633.1    3.422      62.423
2014   11       18     0  13    6.5485   633.2    3.421      62.413
2014   11       18     0  18    6.5455   633.2    3.421      62.404
2014   11       18     0  23    6.5421   633.2    3.421      62.396
2014   11       18     0  28    6.5392   633.2    3.420      62.389
2014   11       18     0  34    6.5361   633.3    3.420      62.382
2014   11       18     0  39    6.5329   633.3    3.419      62.376
2014   11       18     0  44    6.5295   633.3    3.419      62.372
2014   11       18     0  50    6.5266   633.3    3.418      62.368
2014   11       18     0  55    6.5233   633.3    3.418      62.365
2014   11       18     1   0    6.5204   633.3    3.417      62.363
2014   11       18     1   5    6.5171   633.3    3.417      62.361
2014   11       18     1  11    6.5141   633.3    3.416      62.358
2014   11       18     1  16    6.5111   633.3    3.415      62.356
2014   11       18     1  21    6.5081   633.3    3.415      62.354
2014   11       18     1  27    6.5054   633.3    3.414      62.350
2014   11       18     1  32    6.5022   633.3    3.413      62.347
2014   11       18     1  37    6.4996   633.3    3.412      62.342
2014   11       18     1  42    6.4967   633.3    3.411      62.336
2014   11       18     1  48    6.4939   633.3    3.409      62.330
2014   11       18     1  53    6.4912   633.2    3.408      62.322
2014   11       18     1  58    6.4882   633.2    3.407      62.313
2014   11       18     2   4    6.4857   633.2    3.405      62.302
2014   11       18     2   9    6.4830   633.2    3.404      62.290
2014   11       18     2  14    6.4804   633.2    3.402      62.278
2014   11       18     2  19    6.4775   633.2    3.401      62.263
2014   11       18     2  25    6.4749   633.1    3.399      62.248
2014   11       18     2  30    6.4724   633.1    3.398      62.232
2014   11       18     2  35    6.4698   633.1    3.396      62.215
2014   11       18     2  41    6.4676   633.1    3.394      62.196
2014   11       18     2  46    6.4651   633.1    3.392      62.177
2014   11       18     2  51    6.4624   633.0    3.390      62.157
2014   11       18     2  56    6.4602   633.0    3.388      62.136
2014   11       18     3   2    6.4577   633.0    3.386      62.115
2014   11       18     3   7    6.4551   633.0    3.384      62.093
2014   11       18     3  12    6.4528   632.9    3.382      62.069
2014   11       18     3  18    6.4504   632.9    3.380      62.046
2014   11       18     3  23    6.4481   632.9    3.378      62.022
2014   11       18     3  28    6.4457   632.9    3.376      61.997
2014   11       18     3  33    6.4434   632.8    3.373      61.971
2014   11       18     3  39    6.4413   632.8    3.371      61.945
2014   11       18     3  44    6.4388   632.8    3.369      61.919
2014   11       18     3  49    6.4367   632.7    3.367      61.892
2014   11       18     3  55    6.4345   632.7    3.364      61.864
2014   11       18     4   0    6.4321   632.7    3.362      61.836
2014   11       18     4   5    6.4300   632.7    3.360      61.808
2014   11       18     4  10    6.4278   632.6    3.357      61.779
2014   11       18     4  16    6.4256   632.6    3.355      61.750
2014   11       18     4  21    6.4232   632.6    3.353      61.720
2014   11       18     4  26    6.4211   632.5    3.350      61.690
2014   11       18     4  32    6.4190   632.5    3.348      61.660
2014   11       18     4  37    6.4166   632.5    3.346      61.630
2014   11       18     4  42    6.4145   632.5    3.343      61.599
2014   11       18     4  47    6.4124   632.4    3.341      61.568
2014   11       18     4  53    6.4103   632.4    3.339      61.537
2014   11       18     4  58    6.4080   632.4    3.337      61.506
2014   11       18     5   3    6.4060   632.3    3.334      61.474
2014   11       18     5   9    6.4038   632.3    3.332      61.443
2014   11       18     5  14    6.4017   632.3    3.330      61.412
2014   11       18     5  19    6.3995   632.2    3.327      61.381
2014   11       18     5  24    6.3974   632.2    3.325      61.350
2014   11       18     5  30    6.3953   632.2    3.323      61.319
2014   11       18     5  35    6.3931   632.1    3.321      61.288
2014   11       18     5  40    6.3910   632.1    3.319      61.258
2014   11       18     5  46    6.3890   632.0    3.317      61.229
2014   11       18     5  51    6.3869   632.0    3.315      61.200
2014   11       18     5  56    6.3848   632.0    3.313      61.171
2014   11       18     6   1    6.3827   631.9    3.311      61.143
2014   11       18     6   7    6.3808   631.9    3.310      61.116
2014   11       18     6  12    6.3788   631.9    3.308      61.090
2014   11       18     6  17    6.3767   631.8    3.306      61.065
2014   11       18     6  23    6.3747   631.8    3.305      61.041
2014   11       18     6  28    6.3727   631.8    3.303      61.018
2014   11       18     6  33    6.3708   631.7    3.302      60.996
2014   11       18     6  38    6.3688   631.7    3.301      60.975
2014   11       18     6  44    6.3670   631.7    3.300      60.956
2014   11       18     6  49    6.3650   631.6    3.299      60.938
2014   11       18     6  54    6.3632   631.6    3.298      60.922
2014   11       18     7   0    6.3613   631.6    3.297      60.906
2014   11       18     7   5    6.3594   631.5    3.297      60.893
2014   11       18     7  10    6.3575   631.5    3.296      60.880
2014   11       18     7  15    6.3558   631.5    3.296      60.869
2014   11       18     7  21    6.3539   631.5    3.296      60.860
2014   11       18     7  26    6.3521   631.4    3.296      60.852
2014   11       18     7  31    6.3503   631.4    3.296      60.845
2014   11       18     7  37    6.3486   631.4    3.296      60.839
2014   11       18     7  42    6.3467   631.4    3.296      60.835
2014   11       18     7  47    6.3451   631.3    3.296      60.831
2014   11       18     7  52    6.3433   631.3    3.296      60.830
2014   11       18     7  58    6.3416   631.3    3.297      60.829
2014   11       18     8   3    6.3399   631.3    3.297      60.830
2014   11       18     8   8    6.3383   631.2    3.298      60.832
2014   11       18     8  14    6.3366   631.2    3.299      60.835
2014   11       18     8  19    6.3348   631.2    3.299      60.839
2014   11       18     8  24    6.3331   631.2    3.300      60.843
2014   11       18     8  29    6.3316   631.2    3.301      60.848
2014   11       18     8  35    6.3299   631.1    3.302      60.853
2014   11       18     8  40    6.3282   631.1    3.302      60.859
2014   11       18     8  45    6.3264   631.1    3.303      60.866
2014   11       18     8  51    6.3248   631.1    3.304      60.872
2014   11       18     8  56    6.3230   631.0    3.305      60.879
2014   11       18     9   1    6.3215   631.0    3.306      60.885
2014   11       18     9   6    6.3197   631.0    3.307      60.892
2014   11       18     9  12    6.3181   631.0    3.308      60.898
2014   11       18     9  17    6.3163   631.0    3.309      60.905
2014   11       18     9  22    6.3146   630.9    3.310      60.911
2014   11       18     9  28    6.3129   630.9    3.311      60.917
2014   11       18     9  33    6.3110   630.9    3.312      60.923
2014   11       18     9  38    6.3093   630.9    3.312      60.928
2014   11       18     9  43    6.3077   630.9    3.313      60.931
2014   11       18     9  49    6.3060   630.8    3.313      60.934
2014   11       18     9  54    6.3042   630.8    3.314      60.936
2014   11       18     9  59    6.3026   630.8    3.314      60.937
2014   11       18    10   5    6.3007   630.8    3.314      60.936
2014   11       18    10  10    6.2991   630.8    3.314      60.934
2014   11       18    10  15    6.2973   630.7    3.314      60.931
2014   11       18    10  20    6.2957   630.7    3.313      60.926
2014   11       18    10  26    6.2940   630.7    3.313      60.921
2014   11       18    10  31    6.2923   630.6    3.313      60.914
2014   11       18    10  36    6.2907   630.6    3.312      60.906
2014   11       18    10  42    6.2890   630.6    3.311      60.897
2014   11       18    10  47    6.2873   630.6    3.311      60.887
2014   11       18    10  52    6.2857   630.5    3.310      60.877
2014   11       18    10  57    6.2841   630.5    3.309      60.865
2014   11       18    11   3    6.2823   630.5    3.308      60.852
2014   11       18    11   8    6.2809   630.4    3.307      60.839
2014   11       18    11  13    6.2791   630.4    3.306      60.824
2014   11       18    11  19    6.2775   630.3    3.305      60.809
2014   11       18    11  24    6.2760   630.3    3.303      60.793
2014   11       18    11  29    6.2745   630.3    3.302      60.777
2014   11       18    11  34    6.2729   630.2    3.301      60.760
2014   11       18    11  40    6.2713   630.2    3.299      60.742
2014   11       18    11  45    6.2699   630.1    3.298      60.723
2014   11       18    11  50    6.2684   630.1    3.296      60.704
2014   11       18    11  56    6.2669   630.1    3.295      60.684
2014   11       18    12   1    6.2655   630.0    3.293      60.663
2014   11       18    12   6    6.2639   630.0    3.292      60.642
2014   11       18    12  11    6.2626   629.9    3.290      60.621
2014   11       18    12  17    6.2611   629.9    3.288      60.599
2014   11       18    12  22    6.2597   629.8    3.287      60.576
2014   11       18    12  27    6.2583   629.8    3.285      60.553
2014   11       18    12  33    6.2568   629.7    3.283      60.529
2014   11       18    12  38    6.2554   629.7    3.282      60.505
2014   11       18    12  43    6.2542   629.6    3.280      60.481
2014   11       18    12  48    6.2528   629.6    3.278      60.457
2014   11       18    12  54    6.2514   629.6    3.276      60.432
2014   11       18    12  59    6.2501   629.5    3.274      60.407
2014   11       18    13   4    6.2488   629.5    3.273      60.382
2014   11       18    13  10    6.2476   629.4    3.271      60.356
2014   11       18    13  15    6.2464   629.3    3.269      60.331
2014   11       18    13  20    6.2450   629.3    3.267      60.305
2014   11       18    13  25    6.2439   629.2    3.265      60.280
2014   11       18    13  31    6.2426   629.2    3.264      60.255
2014   11       18    13  36    6.2415   629.1    3.262      60.230
2014   11       18    13  41    6.2403   629.1    3.260      60.205
2014   11       18    13  47    6.2391   629.0    3.259      60.180
2014   11       18    13  52    6.2380   629.0    3.257      60.156
2014   11       18    13  57    6.2368   628.9    3.255      60.133
2014   11       18    14   2    6.2358   628.9    3.254      60.110
2014   11       18    14   8    6.2346   628.8    3.252      60.088
2014   11       18    14  13    6.2336   628.8    3.251      60.066
2014   11       18    14  18    6.2326   628.7    3.250      60.046
2014   11       18    14  24    6.2316   628.7    3.248      60.026
2014   11       18    14  29    6.2306   628.6    3.247      60.007
2014   11       18    14  34    6.2296   628.6    3.246      59.990
2014   11       18    14  39    6.2287   628.5    3.245      59.973
2014   11       18    14  45    6.2278   628.5    3.244      59.958
2014   11       18    14  50    6.2268   628.4    3.244      59.944
2014   11       18    14  55    6.2260   628.4    3.243      59.931
2014   11       18    15   1    6.2251   628.3    3.243      59.919
2014   11       18    15   6    6.2243   628.3    3.242      59.909
2014   11       18    15  11    6.2234   628.3    3.242      59.901
2014   11       18    15  16    6.2226   628.2    3.242      59.893
2014   11       18    15  22    6.2218   628.2    3.242      59.887
2014   11       18    15  27    6.2210   628.2    3.242      59.883
2014   11       18    15  32    6.2202   628.1    3.242      59.880
2014   11       18    15  38    6.2193   628.1    3.243      59.878
2014   11       18    15  43    6.2185   628.1    3.243      59.878
2014   11       18    15  48    6.2176   628.0    3.244      59.879
2014   11       18    15  53    6.2167   628.0    3.245      59.881
2014   11       18    15  59    6.2158   628.0    3.245      59.885
2014   11       18    16   4    6.2149   628.0    3.246      59.890
2014   11       18    16   9    6.2139   627.9    3.248      59.896
2014   11       18    16  15    6.2129   627.9    3.249      59.904
2014   11       18    16  20    6.2119   627.9    3.250      59.913
2014   11       18    16  25    6.2109   627.9    3.252      59.924
2014   11       18    16  30    6.2098   627.9    3.253      59.935
2014   11       18    16  36    6.2087   627.8    3.255      59.948
2014   11       18    16  41    6.2076   627.8    3.257      59.961
2014   11       18    16  46    6.2064   627.8    3.258      59.975
2014   11       18    16  52    6.2052   627.8    3.260      59.989
2014   11       18    16  57    6.2040   627.8    3.262      60.002
2014   11       18    17   2    6.2028   627.8    3.263      60.016
2014   11       18    17   7    6.2016   627.8    3.265      60.030
2014   11       18    17  13    6.2004   627.8    3.266      60.043
2014   11       18    17  18    6.1992   627.7    3.268      60.056
2014   11       18    17  23    6.1979   627.7    3.269      60.067
2014   11       18    17  29    6.1967   627.7    3.270      60.079
2014   11       18    17  34    6.1954   627.7    3.272      60.090
2014   11       18    17  39    6.1942   627.7    3.273      60.101
2014   11       18    17  44    6.1929   627.7    3.274      60.111
2014   11       18    17  50    6.1917   627.6    3.275      60.121
2014   11       18    17  55    6.1904   627.6    3.275      60.130
2014   11       18    18   0    6.1892   627.6    3.276      60.139
2014   11       18    18   6    6.1880   627.6    3.277      60.146
2014   11       18    18  11    6.1867   627.6    3.277      60.153
2014   11       18    18  16    6.1856   627.5    3.277      60.159
2014   11       18    18  21    6.1843   627.5    3.278      60.164
2014   11       18    18  27    6.1832   627.5    3.278      60.168
2014   11       18    18  32    6.1820   627.5    3.278      60.171
2014   11       18    18  37    6.1809   627.4    3.278      60.173
2014   11       18    18  43    6.1798   627.4    3.277      60.174
2014   11       18    18  48    6.1787   627.4    3.277      60.173
2014   11       18    18  53    6.1776   627.4    3.277      60.172
2014   11       18    18  58    6.1766   627.3    3.276      60.170
2014   11       18    19   4    6.1756   627.3    3.276      60.167
2014   11       18    19   9    6.1745   627.3    3.275      60.164
2014   11       18    19  14    6.1735   627.2    3.275      60.160
2014   11       18    19  20    6.1726   627.2    3.274      60.154
2014   11       18    19  25    6.1716   627.2    3.274      60.148
2014   11       18    19  30    6.1706   627.1    3.273      60.142
2014   11       18    19  35    6.1697   627.1    3.272      60.135
2014   11       18    19  41    6.1688   627.1    3.271      60.127
2014   11       18    19  46    6.1680   627.0    3.270      60.119
2014   11       18    19  51    6.1671   627.0    3.269      60.110
2014   11       18    19  57    6.1662   627.0    3.268      60.100
2014   11       18    20   2    6.1654   626.9    3.267      60.090
2014   11       18    20   7    6.1646   626.9    3.266      60.079
2014   11       18    20  12    6.1637   626.9    3.265      60.068
2014   11       18    20  18    6.1629   626.8    3.264      60.056
2014   11       18    20  23    6.1621   626.8    3.263      60.044
2014   11       18    20  28    6.1613   626.7    3.262      60.031
2014   11       18    20  34    6.1606   626.7    3.261      60.018
2014   11       18    20  39    6.1599   626.7    3.260      60.004
2014   11       18    20  44    6.1591   626.6    3.258      59.990
2014   11       18    20  49    6.1584   626.6    3.257      59.976
2014   11       18    20  55    6.1576   626.6    3.256      59.961
2014   11       18    21   0    6.1568   626.5    3.255      59.946
2014   11       18    21   5    6.1561   626.5    3.253      59.931
2014   11       18    21  11    6.1553   626.4    3.252      59.915
2014   11       18    21  16    6.1546   626.4    3.251      59.900
2014   11       18    21  21    6.1539   626.4    3.250      59.884
2014   11       18    21  26    6.1532   626.3    3.248      59.868
2014   11       18    21  32    6.1524   626.3    3.247      59.853
2014   11       18    21  37    6.1517   626.3    3.246      59.838
2014   11       18    21  42    6.1509   626.2    3.245      59.823
2014   11       18    21  48    6.1503   626.2    3.243      59.808
2014   11       18    21  53    6.1495   626.1    3.242      59.793
2014   11       18    21  58    6.1488   626.1    3.241      59.779
2014   11       18    22   3    6.1481   626.1    3.240      59.766
2014   11       18    22   9    6.1474   626.0    3.239      59.753
2014   11       18    22  14    6.1467   626.0    3.238      59.741
2014   11       18    22  19    6.1460   626.0    3.237      59.729
2014   11       18    22  25    6.1452   625.9    3.236      59.718
2014   11       18    22  30    6.1445   625.9    3.235      59.708
2014   11       18    22  35    6.1438   625.9    3.235      59.699
2014   11       18    22  40    6.1431   625.8    3.234      59.690
2014   11       18    22  46    6.1424   625.8    3.233      59.683
2014   11       18    22  51    6.1417   625.8    3.233      59.676
2014   11       18    22  56    6.1410   625.7    3.232      59.670
2014   11       18    23   2    6.1403   625.7    3.232      59.666
2014   11       18    23   7    6.1395   625.7    3.232      59.662
2014   11       18    23  12    6.1388   625.6    3.231      59.659
2014   11       18    23  17    6.1380   625.6    3.231      59.657
2014   11       18    23  23    6.1373   625.6    3.231      59.656
2014   11       18    23  28    6.1365   625.6    3.231      59.656
2014   11       18    23  33    6.1357   625.5    3.231      59.656
2014   11       18    23  39    6.1349   625.5    3.232      59.658
2014   11       18    23  44    6.1341   625.5    3.232      59.660
2014   11       18    23  49    6.1333   625.5    3.232      59.663
2014   11       18    23  54    6.1325   625.4    3.233      59.667
2014   11       19     0   0    6.1316   625.4    3.233      59.672
