year    month   day   hour  minute  B_enl V_enl   n_enl       T_enl
[year] [month] [day] [hour][minute] [nT]  [km/s]  [cm-3]      [kK]
2014   11        8     0   2    6.0147   557.2    4.309      50.090
2014   11        8     0   7    6.0154   557.1    4.310      50.091
2014   11        8     0  13    6.0162   557.1    4.311      50.092
2014   11        8     0  18    6.0169   557.1    4.312      50.093
2014   11        8     0  23    6.0177   557.1    4.313      50.095
2014   11        8     0  28    6.0185   557.0    4.314      50.096
2014   11        8     0  33    6.0193   557.0    4.315      50.099
2014   11        8     0  38    6.0201   557.0    4.316      50.101
2014   11        8     0  44    6.0209   557.0    4.318      50.103
2014   11        8     0  49    6.0217   557.0    4.319      50.106
2014   11        8     0  54    6.0225   556.9    4.320      50.108
2014   11        8     0  59    6.0233   556.9    4.321      50.111
2014   11        8     1   4    6.0241   556.9    4.322      50.114
2014   11        8     1   9    6.0250   556.9    4.324      50.117
2014   11        8     1  14    6.0258   556.9    4.325      50.119
2014   11        8     1  20    6.0266   556.8    4.326      50.122
2014   11        8     1  25    6.0274   556.8    4.327      50.125
2014   11        8     1  30    6.0282   556.8    4.329      50.128
2014   11        8     1  35    6.0291   556.8    4.330      50.130
2014   11        8     1  40    6.0299   556.8    4.331      50.133
2014   11        8     1  45    6.0308   556.8    4.332      50.136
2014   11        8     1  51    6.0316   556.7    4.333      50.138
2014   11        8     1  56    6.0325   556.7    4.335      50.140
2014   11        8     2   1    6.0332   556.7    4.336      50.142
2014   11        8     2   6    6.0341   556.7    4.337      50.144
2014   11        8     2  11    6.0350   556.7    4.338      50.146
2014   11        8     2  16    6.0359   556.6    4.339      50.148
2014   11        8     2  22    6.0366   556.6    4.341      50.149
2014   11        8     2  27    6.0376   556.6    4.342      50.150
2014   11        8     2  32    6.0385   556.6    4.343      50.151
2014   11        8     2  37    6.0393   556.6    4.344      50.153
2014   11        8     2  42    6.0401   556.5    4.346      50.153
2014   11        8     2  47    6.0411   556.5    4.347      50.154
2014   11        8     2  53    6.0420   556.5    4.348      50.155
2014   11        8     2  58    6.0429   556.5    4.349      50.155
2014   11        8     3   3    6.0437   556.5    4.351      50.156
2014   11        8     3   8    6.0446   556.5    4.352      50.156
2014   11        8     3  13    6.0455   556.4    4.353      50.156
2014   11        8     3  18    6.0465   556.4    4.354      50.156
2014   11        8     3  24    6.0475   556.4    4.356      50.157
2014   11        8     3  29    6.0484   556.4    4.357      50.157
2014   11        8     3  34    6.0494   556.3    4.359      50.157
2014   11        8     3  39    6.0504   556.3    4.360      50.157
2014   11        8     3  44    6.0514   556.3    4.361      50.158
2014   11        8     3  49    6.0525   556.3    4.363      50.158
2014   11        8     3  54    6.0535   556.3    4.364      50.159
2014   11        8     4   0    6.0545   556.2    4.366      50.159
2014   11        8     4   5    6.0556   556.2    4.367      50.160
2014   11        8     4  10    6.0568   556.2    4.369      50.161
2014   11        8     4  15    6.0580   556.2    4.370      50.163
2014   11        8     4  20    6.0590   556.2    4.372      50.164
2014   11        8     4  25    6.0602   556.2    4.374      50.166
2014   11        8     4  31    6.0614   556.1    4.375      50.167
2014   11        8     4  36    6.0625   556.1    4.377      50.169
2014   11        8     4  41    6.0638   556.1    4.378      50.171
2014   11        8     4  46    6.0650   556.1    4.380      50.173
2014   11        8     4  51    6.0662   556.1    4.381      50.175
2014   11        8     4  56    6.0674   556.1    4.383      50.177
2014   11        8     5   2    6.0687   556.0    4.384      50.179
2014   11        8     5   7    6.0699   556.0    4.386      50.181
2014   11        8     5  12    6.0712   556.0    4.388      50.183
2014   11        8     5  17    6.0726   556.0    4.389      50.185
2014   11        8     5  22    6.0738   556.0    4.391      50.187
2014   11        8     5  27    6.0751   556.0    4.392      50.189
2014   11        8     5  33    6.0764   555.9    4.394      50.191
2014   11        8     5  38    6.0778   555.9    4.396      50.193
2014   11        8     5  43    6.0792   555.9    4.397      50.195
2014   11        8     5  48    6.0804   555.9    4.399      50.198
2014   11        8     5  53    6.0818   555.9    4.400      50.200
2014   11        8     5  58    6.0833   555.9    4.402      50.203
2014   11        8     6   4    6.0847   555.9    4.404      50.206
2014   11        8     6   9    6.0860   555.8    4.406      50.209
2014   11        8     6  14    6.0874   555.8    4.408      50.212
2014   11        8     6  19    6.0890   555.8    4.409      50.216
2014   11        8     6  24    6.0904   555.8    4.411      50.220
2014   11        8     6  29    6.0919   555.8    4.413      50.224
2014   11        8     6  34    6.0934   555.8    4.415      50.229
2014   11        8     6  40    6.0949   555.8    4.417      50.234
2014   11        8     6  45    6.0964   555.8    4.419      50.240
2014   11        8     6  50    6.0979   555.8    4.422      50.245
2014   11        8     6  55    6.0994   555.7    4.424      50.252
2014   11        8     7   0    6.1011   555.7    4.426      50.258
2014   11        8     7   5    6.1026   555.7    4.428      50.266
2014   11        8     7  11    6.1042   555.7    4.431      50.273
2014   11        8     7  16    6.1058   555.7    4.433      50.281
2014   11        8     7  21    6.1074   555.7    4.436      50.289
2014   11        8     7  26    6.1091   555.7    4.438      50.298
2014   11        8     7  31    6.1107   555.7    4.441      50.307
2014   11        8     7  36    6.1123   555.7    4.443      50.316
2014   11        8     7  42    6.1139   555.7    4.446      50.326
2014   11        8     7  47    6.1156   555.7    4.448      50.336
2014   11        8     7  52    6.1172   555.7    4.451      50.346
2014   11        8     7  57    6.1189   555.7    4.454      50.357
2014   11        8     8   2    6.1205   555.7    4.456      50.368
2014   11        8     8   7    6.1221   555.7    4.459      50.379
2014   11        8     8  13    6.1238   555.7    4.462      50.391
2014   11        8     8  18    6.1253   555.7    4.464      50.402
2014   11        8     8  23    6.1270   555.7    4.467      50.414
2014   11        8     8  28    6.1285   555.7    4.469      50.425
2014   11        8     8  33    6.1302   555.7    4.472      50.437
2014   11        8     8  38    6.1317   555.7    4.474      50.449
2014   11        8     8  44    6.1334   555.7    4.477      50.460
2014   11        8     8  49    6.1349   555.7    4.479      50.472
2014   11        8     8  54    6.1365   555.7    4.481      50.483
2014   11        8     8  59    6.1380   555.7    4.484      50.495
2014   11        8     9   4    6.1396   555.7    4.486      50.506
2014   11        8     9   9    6.1412   555.7    4.488      50.517
2014   11        8     9  14    6.1428   555.7    4.490      50.528
2014   11        8     9  20    6.1444   555.7    4.492      50.539
2014   11        8     9  25    6.1459   555.7    4.495      50.550
2014   11        8     9  30    6.1474   555.7    4.497      50.561
2014   11        8     9  35    6.1491   555.7    4.499      50.571
2014   11        8     9  40    6.1507   555.7    4.501      50.582
2014   11        8     9  45    6.1522   555.7    4.503      50.592
2014   11        8     9  51    6.1538   555.7    4.505      50.602
2014   11        8     9  56    6.1554   555.7    4.507      50.612
2014   11        8    10   1    6.1570   555.7    4.509      50.623
2014   11        8    10   6    6.1586   555.7    4.511      50.633
2014   11        8    10  11    6.1602   555.7    4.513      50.644
2014   11        8    10  16    6.1619   555.7    4.515      50.654
2014   11        8    10  22    6.1635   555.7    4.517      50.665
2014   11        8    10  27    6.1651   555.7    4.518      50.675
2014   11        8    10  32    6.1667   555.7    4.520      50.686
2014   11        8    10  37    6.1684   555.7    4.522      50.697
2014   11        8    10  42    6.1701   555.7    4.524      50.707
2014   11        8    10  47    6.1717   555.7    4.525      50.717
2014   11        8    10  53    6.1734   555.7    4.527      50.728
2014   11        8    10  58    6.1751   555.7    4.529      50.738
2014   11        8    11   3    6.1768   555.7    4.530      50.749
2014   11        8    11   8    6.1784   555.7    4.532      50.759
2014   11        8    11  13    6.1802   555.7    4.534      50.769
2014   11        8    11  18    6.1819   555.7    4.535      50.779
2014   11        8    11  24    6.1836   555.7    4.537      50.789
2014   11        8    11  29    6.1854   555.7    4.538      50.799
2014   11        8    11  34    6.1871   555.7    4.540      50.808
2014   11        8    11  39    6.1889   555.7    4.541      50.818
2014   11        8    11  44    6.1906   555.7    4.543      50.828
2014   11        8    11  49    6.1924   555.7    4.545      50.837
2014   11        8    11  55    6.1941   555.7    4.546      50.847
2014   11        8    12   0    6.1959   555.8    4.548      50.856
2014   11        8    12   5    6.1977   555.8    4.549      50.866
2014   11        8    12  10    6.1995   555.8    4.551      50.876
2014   11        8    12  15    6.2012   555.8    4.552      50.885
2014   11        8    12  20    6.2030   555.8    4.554      50.895
2014   11        8    12  25    6.2048   555.8    4.555      50.904
2014   11        8    12  31    6.2066   555.8    4.557      50.913
2014   11        8    12  36    6.2084   555.8    4.558      50.923
2014   11        8    12  41    6.2102   555.8    4.560      50.932
2014   11        8    12  46    6.2120   555.9    4.562      50.941
2014   11        8    12  51    6.2138   555.9    4.563      50.951
2014   11        8    12  56    6.2156   555.9    4.565      50.960
2014   11        8    13   2    6.2175   555.9    4.566      50.969
2014   11        8    13   7    6.2193   555.9    4.568      50.978
2014   11        8    13  12    6.2211   555.9    4.569      50.988
2014   11        8    13  17    6.2229   556.0    4.571      50.997
2014   11        8    13  22    6.2247   556.0    4.573      51.006
2014   11        8    13  27    6.2266   556.0    4.574      51.015
2014   11        8    13  33    6.2284   556.0    4.576      51.025
2014   11        8    13  38    6.2302   556.0    4.577      51.034
2014   11        8    13  43    6.2320   556.0    4.579      51.043
2014   11        8    13  48    6.2339   556.0    4.581      51.052
2014   11        8    13  53    6.2357   556.1    4.583      51.062
2014   11        8    13  58    6.2376   556.1    4.584      51.071
2014   11        8    14   4    6.2394   556.1    4.586      51.081
2014   11        8    14   9    6.2413   556.1    4.588      51.090
2014   11        8    14  14    6.2432   556.1    4.590      51.100
2014   11        8    14  19    6.2450   556.2    4.591      51.110
2014   11        8    14  24    6.2469   556.2    4.593      51.120
2014   11        8    14  29    6.2488   556.2    4.595      51.130
2014   11        8    14  35    6.2507   556.2    4.597      51.140
2014   11        8    14  40    6.2526   556.2    4.599      51.151
2014   11        8    14  45    6.2544   556.3    4.601      51.161
2014   11        8    14  50    6.2563   556.3    4.603      51.172
2014   11        8    14  55    6.2582   556.3    4.605      51.184
2014   11        8    15   0    6.2601   556.3    4.607      51.195
2014   11        8    15   5    6.2620   556.3    4.609      51.207
2014   11        8    15  11    6.2639   556.3    4.612      51.219
2014   11        8    15  16    6.2658   556.4    4.614      51.231
2014   11        8    15  21    6.2677   556.4    4.616      51.244
2014   11        8    15  26    6.2696   556.4    4.618      51.257
2014   11        8    15  31    6.2715   556.4    4.620      51.270
2014   11        8    15  36    6.2734   556.4    4.623      51.283
2014   11        8    15  42    6.2753   556.5    4.625      51.297
2014   11        8    15  47    6.2771   556.5    4.627      51.310
2014   11        8    15  52    6.2790   556.5    4.629      51.325
2014   11        8    15  57    6.2809   556.5    4.632      51.339
2014   11        8    16   2    6.2828   556.5    4.634      51.354
2014   11        8    16   7    6.2846   556.5    4.636      51.369
2014   11        8    16  13    6.2865   556.6    4.639      51.384
2014   11        8    16  18    6.2883   556.6    4.641      51.399
2014   11        8    16  23    6.2902   556.6    4.643      51.414
2014   11        8    16  28    6.2921   556.6    4.645      51.430
2014   11        8    16  33    6.2939   556.6    4.647      51.446
2014   11        8    16  38    6.2958   556.6    4.650      51.461
2014   11        8    16  44    6.2976   556.6    4.652      51.477
2014   11        8    16  49    6.2994   556.6    4.654      51.492
2014   11        8    16  54    6.3012   556.7    4.656      51.508
2014   11        8    16  59    6.3031   556.7    4.658      51.523
2014   11        8    17   4    6.3049   556.7    4.660      51.538
2014   11        8    17   9    6.3067   556.7    4.661      51.553
2014   11        8    17  15    6.3085   556.7    4.663      51.567
2014   11        8    17  20    6.3103   556.7    4.665      51.582
2014   11        8    17  25    6.3121   556.7    4.666      51.596
2014   11        8    17  30    6.3139   556.7    4.668      51.609
2014   11        8    17  35    6.3157   556.7    4.669      51.623
2014   11        8    17  40    6.3175   556.8    4.671      51.636
2014   11        8    17  45    6.3193   556.8    4.672      51.648
2014   11        8    17  51    6.3210   556.8    4.673      51.660
2014   11        8    17  56    6.3228   556.8    4.675      51.672
2014   11        8    18   1    6.3246   556.8    4.676      51.684
2014   11        8    18   6    6.3263   556.8    4.677      51.695
2014   11        8    18  11    6.3281   556.8    4.678      51.706
2014   11        8    18  16    6.3298   556.8    4.679      51.717
2014   11        8    18  22    6.3316   556.9    4.680      51.727
2014   11        8    18  27    6.3333   556.9    4.681      51.738
2014   11        8    18  32    6.3351   556.9    4.682      51.748
2014   11        8    18  37    6.3369   556.9    4.683      51.758
2014   11        8    18  42    6.3386   556.9    4.684      51.767
2014   11        8    18  47    6.3404   556.9    4.684      51.777
2014   11        8    18  53    6.3421   556.9    4.685      51.786
2014   11        8    18  58    6.3439   557.0    4.686      51.796
2014   11        8    19   3    6.3457   557.0    4.687      51.806
2014   11        8    19   8    6.3475   557.0    4.688      51.815
2014   11        8    19  13    6.3492   557.0    4.688      51.824
2014   11        8    19  18    6.3510   557.0    4.689      51.834
2014   11        8    19  24    6.3528   557.0    4.690      51.843
2014   11        8    19  29    6.3546   557.1    4.690      51.853
2014   11        8    19  34    6.3564   557.1    4.691      51.863
2014   11        8    19  39    6.3582   557.1    4.692      51.872
2014   11        8    19  44    6.3601   557.1    4.693      51.882
2014   11        8    19  49    6.3619   557.1    4.693      51.892
2014   11        8    19  55    6.3637   557.2    4.694      51.902
2014   11        8    20   0    6.3655   557.2    4.695      51.912
2014   11        8    20   5    6.3674   557.2    4.695      51.922
2014   11        8    20  10    6.3692   557.2    4.696      51.932
2014   11        8    20  15    6.3711   557.3    4.697      51.942
2014   11        8    20  20    6.3729   557.3    4.698      51.952
2014   11        8    20  25    6.3748   557.3    4.698      51.963
2014   11        8    20  31    6.3766   557.3    4.699      51.973
2014   11        8    20  36    6.3785   557.4    4.700      51.983
2014   11        8    20  41    6.3804   557.4    4.701      51.994
2014   11        8    20  46    6.3823   557.4    4.701      52.005
2014   11        8    20  51    6.3841   557.4    4.702      52.016
2014   11        8    20  56    6.3860   557.5    4.703      52.027
2014   11        8    21   2    6.3879   557.5    4.704      52.038
2014   11        8    21   7    6.3898   557.5    4.705      52.049
2014   11        8    21  12    6.3918   557.5    4.706      52.060
2014   11        8    21  17    6.3937   557.5    4.707      52.072
2014   11        8    21  22    6.3956   557.6    4.708      52.083
2014   11        8    21  27    6.3975   557.6    4.709      52.095
2014   11        8    21  33    6.3994   557.6    4.710      52.107
2014   11        8    21  38    6.4014   557.6    4.711      52.119
2014   11        8    21  43    6.4033   557.7    4.712      52.132
2014   11        8    21  48    6.4053   557.7    4.713      52.144
2014   11        8    21  53    6.4073   557.7    4.714      52.157
2014   11        8    21  58    6.4093   557.7    4.715      52.170
2014   11        8    22   4    6.4113   557.8    4.717      52.183
2014   11        8    22   9    6.4133   557.8    4.718      52.197
2014   11        8    22  14    6.4153   557.8    4.719      52.210
2014   11        8    22  19    6.4173   557.8    4.721      52.224
2014   11        8    22  24    6.4193   557.9    4.722      52.239
2014   11        8    22  29    6.4214   557.9    4.724      52.254
2014   11        8    22  35    6.4234   557.9    4.726      52.269
2014   11        8    22  40    6.4255   557.9    4.727      52.284
2014   11        8    22  45    6.4276   558.0    4.729      52.300
2014   11        8    22  50    6.4297   558.0    4.731      52.316
2014   11        8    22  55    6.4318   558.0    4.733      52.332
2014   11        8    23   0    6.4339   558.0    4.735      52.349
2014   11        8    23   5    6.4360   558.1    4.737      52.366
2014   11        8    23  11    6.4381   558.1    4.739      52.384
2014   11        8    23  16    6.4402   558.1    4.741      52.402
2014   11        8    23  21    6.4424   558.2    4.743      52.420
2014   11        8    23  26    6.4445   558.2    4.745      52.440
2014   11        8    23  31    6.4466   558.2    4.747      52.459
2014   11        8    23  36    6.4488   558.2    4.750      52.480
2014   11        8    23  42    6.4509   558.3    4.752      52.501
2014   11        8    23  47    6.4530   558.3    4.754      52.523
2014   11        8    23  52    6.4551   558.3    4.757      52.546
2014   11        8    23  57    6.4572   558.4    4.759      52.569
2014   11        9     0   2    6.4593   558.4    4.761      52.593
2014   11        9     0   7    6.4614   558.4    4.763      52.618
2014   11        9     0  13    6.4634   558.5    4.765      52.643
2014   11        9     0  18    6.4655   558.5    4.767      52.668
2014   11        9     0  23    6.4675   558.5    4.769      52.693
2014   11        9     0  28    6.4695   558.6    4.771      52.718
2014   11        9     0  33    6.4715   558.6    4.772      52.742
2014   11        9     0  38    6.4734   558.6    4.774      52.767
2014   11        9     0  44    6.4754   558.7    4.775      52.791
2014   11        9     0  49    6.4774   558.7    4.777      52.814
2014   11        9     0  54    6.4794   558.7    4.778      52.837
2014   11        9     0  59    6.4813   558.8    4.779      52.859
2014   11        9     1   4    6.4833   558.8    4.780      52.880
2014   11        9     1   9    6.4853   558.8    4.781      52.901
2014   11        9     1  15    6.4873   558.9    4.782      52.921
2014   11        9     1  20    6.4892   558.9    4.783      52.941
2014   11        9     1  25    6.4911   558.9    4.784      52.959
2014   11        9     1  30    6.4931   558.9    4.785      52.978
2014   11        9     1  35    6.4950   559.0    4.786      52.995
2014   11        9     1  40    6.4970   559.0    4.786      53.013
2014   11        9     1  45    6.4990   559.0    4.787      53.029
2014   11        9     1  51    6.5010   559.0    4.788      53.046
2014   11        9     1  56    6.5029   559.1    4.788      53.061
2014   11        9     2   1    6.5049   559.1    4.789      53.077
2014   11        9     2   6    6.5069   559.1    4.789      53.092
2014   11        9     2  11    6.5088   559.2    4.790      53.106
2014   11        9     2  16    6.5108   559.2    4.790      53.121
2014   11        9     2  22    6.5128   559.2    4.790      53.135
2014   11        9     2  27    6.5148   559.2    4.791      53.149
2014   11        9     2  32    6.5168   559.3    4.791      53.163
2014   11        9     2  37    6.5187   559.3    4.791      53.176
2014   11        9     2  42    6.5207   559.3    4.792      53.189
2014   11        9     2  47    6.5227   559.3    4.792      53.202
2014   11        9     2  53    6.5247   559.4    4.792      53.215
2014   11        9     2  58    6.5267   559.4    4.792      53.228
2014   11        9     3   3    6.5286   559.4    4.793      53.241
2014   11        9     3   8    6.5306   559.5    4.793      53.254
2014   11        9     3  13    6.5326   559.5    4.793      53.267
2014   11        9     3  18    6.5346   559.5    4.793      53.281
2014   11        9     3  24    6.5366   559.5    4.794      53.294
2014   11        9     3  29    6.5385   559.6    4.794      53.307
2014   11        9     3  34    6.5405   559.6    4.794      53.321
2014   11        9     3  39    6.5425   559.6    4.795      53.334
2014   11        9     3  44    6.5445   559.6    4.795      53.349
2014   11        9     3  49    6.5465   559.7    4.795      53.363
2014   11        9     3  55    6.5485   559.7    4.796      53.377
2014   11        9     4   0    6.5505   559.7    4.796      53.392
2014   11        9     4   5    6.5525   559.8    4.796      53.408
2014   11        9     4  10    6.5545   559.8    4.797      53.424
2014   11        9     4  15    6.5566   559.8    4.797      53.440
2014   11        9     4  20    6.5586   559.9    4.798      53.457
2014   11        9     4  25    6.5606   559.9    4.799      53.474
2014   11        9     4  31    6.5627   559.9    4.799      53.492
2014   11        9     4  36    6.5647   560.0    4.800      53.510
2014   11        9     4  41    6.5668   560.0    4.801      53.528
2014   11        9     4  46    6.5689   560.0    4.802      53.548
2014   11        9     4  51    6.5710   560.1    4.802      53.568
2014   11        9     4  56    6.5731   560.1    4.803      53.588
2014   11        9     5   2    6.5752   560.1    4.804      53.610
2014   11        9     5   7    6.5774   560.2    4.805      53.632
2014   11        9     5  12    6.5795   560.2    4.806      53.654
2014   11        9     5  17    6.5816   560.3    4.807      53.677
2014   11        9     5  22    6.5838   560.3    4.808      53.700
2014   11        9     5  27    6.5860   560.4    4.810      53.724
2014   11        9     5  33    6.5882   560.4    4.811      53.749
2014   11        9     5  38    6.5903   560.5    4.812      53.774
2014   11        9     5  43    6.5926   560.5    4.813      53.800
2014   11        9     5  48    6.5948   560.6    4.814      53.826
2014   11        9     5  53    6.5970   560.6    4.816      53.852
2014   11        9     5  58    6.5991   560.7    4.817      53.879
2014   11        9     6   4    6.6014   560.7    4.818      53.905
2014   11        9     6   9    6.6036   560.8    4.820      53.932
2014   11        9     6  14    6.6058   560.8    4.821      53.959
2014   11        9     6  19    6.6079   560.9    4.822      53.987
2014   11        9     6  24    6.6102   561.0    4.824      54.015
2014   11        9     6  29    6.6123   561.0    4.825      54.043
2014   11        9     6  35    6.6145   561.1    4.826      54.072
2014   11        9     6  40    6.6166   561.1    4.828      54.101
2014   11        9     6  45    6.6188   561.2    4.829      54.130
2014   11        9     6  50    6.6209   561.3    4.830      54.159
2014   11        9     6  55    6.6230   561.3    4.832      54.188
2014   11        9     7   0    6.6251   561.4    4.833      54.218
2014   11        9     7   5    6.6272   561.5    4.834      54.248
2014   11        9     7  11    6.6292   561.5    4.835      54.279
2014   11        9     7  16    6.6314   561.6    4.836      54.310
2014   11        9     7  21    6.6334   561.7    4.837      54.341
2014   11        9     7  26    6.6354   561.8    4.838      54.373
2014   11        9     7  31    6.6375   561.8    4.839      54.404
2014   11        9     7  36    6.6395   561.9    4.840      54.435
2014   11        9     7  42    6.6415   562.0    4.841      54.466
2014   11        9     7  47    6.6435   562.1    4.842      54.497
2014   11        9     7  52    6.6455   562.1    4.843      54.529
2014   11        9     7  57    6.6475   562.2    4.843      54.559
2014   11        9     8   2    6.6495   562.3    4.844      54.590
2014   11        9     8   7    6.6514   562.4    4.845      54.621
2014   11        9     8  13    6.6535   562.4    4.845      54.651
2014   11        9     8  18    6.6554   562.5    4.846      54.682
2014   11        9     8  23    6.6574   562.6    4.847      54.712
2014   11        9     8  28    6.6594   562.7    4.848      54.742
2014   11        9     8  33    6.6614   562.7    4.848      54.772
2014   11        9     8  38    6.6634   562.8    4.849      54.802
2014   11        9     8  44    6.6654   562.9    4.850      54.832
2014   11        9     8  49    6.6674   563.0    4.851      54.862
2014   11        9     8  54    6.6694   563.0    4.852      54.893
2014   11        9     8  59    6.6714   563.1    4.853      54.924
2014   11        9     9   4    6.6734   563.2    4.854      54.956
2014   11        9     9   9    6.6754   563.3    4.855      54.989
2014   11        9     9  14    6.6775   563.3    4.855      55.023
2014   11        9     9  20    6.6794   563.4    4.856      55.057
2014   11        9     9  25    6.6814   563.5    4.857      55.092
2014   11        9     9  30    6.6834   563.6    4.858      55.127
2014   11        9     9  35    6.6853   563.7    4.859      55.162
2014   11        9     9  40    6.6873   563.7    4.860      55.197
2014   11        9     9  45    6.6892   563.8    4.861      55.233
2014   11        9     9  51    6.6911   563.9    4.861      55.269
2014   11        9     9  56    6.6930   564.0    4.862      55.305
2014   11        9    10   1    6.6949   564.1    4.863      55.341
2014   11        9    10   6    6.6968   564.1    4.863      55.376
2014   11        9    10  11    6.6986   564.2    4.864      55.412
2014   11        9    10  16    6.7005   564.3    4.865      55.447
2014   11        9    10  22    6.7024   564.4    4.865      55.481
2014   11        9    10  27    6.7042   564.5    4.866      55.516
2014   11        9    10  32    6.7061   564.5    4.866      55.551
2014   11        9    10  37    6.7079   564.6    4.867      55.587
2014   11        9    10  42    6.7097   564.7    4.867      55.623
2014   11        9    10  47    6.7116   564.8    4.868      55.659
2014   11        9    10  53    6.7134   564.8    4.868      55.695
2014   11        9    10  58    6.7152   564.9    4.868      55.731
2014   11        9    11   3    6.7171   565.0    4.869      55.767
2014   11        9    11   8    6.7189   565.1    4.869      55.803
2014   11        9    11  13    6.7207   565.2    4.869      55.840
2014   11        9    11  18    6.7226   565.2    4.869      55.876
2014   11        9    11  24    6.7244   565.3    4.870      55.912
2014   11        9    11  29    6.7263   565.4    4.870      55.948
2014   11        9    11  34    6.7281   565.5    4.870      55.984
2014   11        9    11  39    6.7300   565.5    4.870      56.019
2014   11        9    11  44    6.7318   565.6    4.870      56.054
2014   11        9    11  49    6.7337   565.7    4.870      56.088
2014   11        9    11  54    6.7356   565.8    4.870      56.123
2014   11        9    12   0    6.7374   565.9    4.870      56.157
2014   11        9    12   5    6.7393   565.9    4.870      56.191
2014   11        9    12  10    6.7412   566.0    4.870      56.224
2014   11        9    12  15    6.7431   566.1    4.870      56.258
2014   11        9    12  20    6.7450   566.2    4.870      56.292
2014   11        9    12  25    6.7470   566.3    4.870      56.326
2014   11        9    12  31    6.7489   566.4    4.869      56.360
2014   11        9    12  36    6.7508   566.5    4.869      56.395
2014   11        9    12  41    6.7527   566.6    4.869      56.429
2014   11        9    12  46    6.7546   566.7    4.868      56.463
2014   11        9    12  51    6.7564   566.7    4.868      56.497
2014   11        9    12  56    6.7583   566.8    4.867      56.530
2014   11        9    13   2    6.7601   566.9    4.867      56.564
2014   11        9    13   7    6.7619   567.0    4.866      56.596
2014   11        9    13  12    6.7638   567.1    4.866      56.629
2014   11        9    13  17    6.7655   567.2    4.865      56.661
2014   11        9    13  22    6.7673   567.3    4.864      56.693
2014   11        9    13  27    6.7691   567.4    4.863      56.723
2014   11        9    13  33    6.7707   567.5    4.862      56.754
2014   11        9    13  38    6.7725   567.6    4.861      56.783
2014   11        9    13  43    6.7742   567.7    4.860      56.812
2014   11        9    13  48    6.7759   567.8    4.859      56.841
2014   11        9    13  53    6.7776   567.9    4.858      56.869
2014   11        9    13  58    6.7793   568.0    4.857      56.897
2014   11        9    14   4    6.7809   568.1    4.856      56.925
2014   11        9    14   9    6.7825   568.2    4.855      56.953
2014   11        9    14  14    6.7843   568.3    4.854      56.981
2014   11        9    14  19    6.7859   568.4    4.853      57.008
2014   11        9    14  24    6.7876   568.5    4.852      57.036
2014   11        9    14  29    6.7892   568.5    4.852      57.064
2014   11        9    14  34    6.7908   568.6    4.851      57.092
2014   11        9    14  40    6.7923   568.7    4.850      57.120
2014   11        9    14  45    6.7940   568.8    4.849      57.148
2014   11        9    14  50    6.7956   568.9    4.848      57.177
2014   11        9    14  55    6.7971   569.0    4.847      57.206
2014   11        9    15   0    6.7989   569.1    4.847      57.235
2014   11        9    15   5    6.8005   569.2    4.846      57.265
2014   11        9    15  11    6.8020   569.3    4.846      57.295
2014   11        9    15  16    6.8037   569.4    4.846      57.325
2014   11        9    15  21    6.8054   569.6    4.846      57.357
2014   11        9    15  26    6.8070   569.7    4.846      57.389
2014   11        9    15  31    6.8086   569.8    4.846      57.422
2014   11        9    15  36    6.8102   569.9    4.846      57.455
2014   11        9    15  42    6.8119   570.0    4.847      57.489
2014   11        9    15  47    6.8137   570.1    4.847      57.524
2014   11        9    15  52    6.8154   570.2    4.848      57.561
2014   11        9    15  57    6.8170   570.3    4.849      57.598
2014   11        9    16   2    6.8187   570.4    4.850      57.636
2014   11        9    16   7    6.8205   570.5    4.852      57.675
2014   11        9    16  13    6.8222   570.6    4.854      57.716
2014   11        9    16  18    6.8239   570.8    4.855      57.759
2014   11        9    16  23    6.8257   570.9    4.858      57.803
2014   11        9    16  28    6.8275   571.0    4.860      57.849
2014   11        9    16  33    6.8292   571.1    4.862      57.899
2014   11        9    16  38    6.8310   571.2    4.865      57.950
2014   11        9    16  43    6.8328   571.4    4.868      58.004
2014   11        9    16  49    6.8345   571.5    4.871      58.060
2014   11        9    16  54    6.8363   571.6    4.873      58.117
2014   11        9    16  59    6.8380   571.8    4.876      58.176
2014   11        9    17   4    6.8396   571.9    4.879      58.236
2014   11        9    17   9    6.8413   572.0    4.882      58.297
2014   11        9    17  14    6.8430   572.2    4.885      58.359
2014   11        9    17  20    6.8447   572.3    4.887      58.420
2014   11        9    17  25    6.8463   572.4    4.890      58.482
2014   11        9    17  30    6.8479   572.6    4.893      58.543
2014   11        9    17  35    6.8495   572.7    4.895      58.605
2014   11        9    17  40    6.8511   572.9    4.898      58.668
2014   11        9    17  45    6.8526   573.0    4.900      58.731
2014   11        9    17  51    6.8542   573.2    4.902      58.795
2014   11        9    17  56    6.8557   573.3    4.904      58.858
2014   11        9    18   1    6.8572   573.4    4.906      58.922
2014   11        9    18   6    6.8587   573.6    4.907      58.986
2014   11        9    18  11    6.8602   573.8    4.909      59.049
2014   11        9    18  16    6.8616   573.9    4.910      59.111
2014   11        9    18  22    6.8631   574.1    4.911      59.173
2014   11        9    18  27    6.8645   574.2    4.911      59.234
2014   11        9    18  32    6.8659   574.4    4.912      59.294
2014   11        9    18  37    6.8672   574.5    4.912      59.353
2014   11        9    18  42    6.8686   574.7    4.911      59.410
2014   11        9    18  47    6.8699   574.8    4.911      59.465
2014   11        9    18  53    6.8712   575.0    4.910      59.518
2014   11        9    18  58    6.8725   575.2    4.909      59.570
2014   11        9    19   3    6.8738   575.3    4.908      59.620
2014   11        9    19   8    6.8751   575.5    4.907      59.668
2014   11        9    19  13    6.8763   575.6    4.905      59.715
2014   11        9    19  18    6.8776   575.8    4.903      59.760
2014   11        9    19  23    6.8788   576.0    4.901      59.804
2014   11        9    19  29    6.8801   576.1    4.899      59.847
2014   11        9    19  34    6.8813   576.3    4.897      59.888
2014   11        9    19  39    6.8825   576.4    4.895      59.928
2014   11        9    19  44    6.8837   576.6    4.892      59.968
2014   11        9    19  49    6.8849   576.8    4.890      60.006
2014   11        9    19  54    6.8861   576.9    4.887      60.043
2014   11        9    20   0    6.8873   577.1    4.884      60.079
2014   11        9    20   5    6.8885   577.2    4.882      60.115
2014   11        9    20  10    6.8897   577.4    4.879      60.149
2014   11        9    20  15    6.8908   577.6    4.876      60.183
2014   11        9    20  20    6.8920   577.7    4.873      60.216
2014   11        9    20  25    6.8932   577.9    4.870      60.249
2014   11        9    20  31    6.8943   578.0    4.867      60.281
2014   11        9    20  36    6.8954   578.2    4.864      60.312
2014   11        9    20  41    6.8966   578.4    4.861      60.343
2014   11        9    20  46    6.8977   578.5    4.857      60.373
2014   11        9    20  51    6.8988   578.7    4.854      60.404
2014   11        9    20  56    6.8999   578.8    4.851      60.434
2014   11        9    21   2    6.9010   579.0    4.848      60.463
2014   11        9    21   7    6.9021   579.1    4.845      60.493
2014   11        9    21  12    6.9032   579.3    4.842      60.523
2014   11        9    21  17    6.9043   579.5    4.839      60.552
2014   11        9    21  22    6.9055   579.6    4.836      60.582
2014   11        9    21  27    6.9066   579.8    4.833      60.613
2014   11        9    21  33    6.9077   579.9    4.830      60.643
2014   11        9    21  38    6.9089   580.1    4.828      60.675
2014   11        9    21  43    6.9101   580.2    4.825      60.707
2014   11        9    21  48    6.9113   580.4    4.822      60.740
2014   11        9    21  53    6.9125   580.6    4.820      60.773
2014   11        9    21  58    6.9137   580.7    4.818      60.808
2014   11        9    22   3    6.9150   580.9    4.816      60.844
2014   11        9    22   9    6.9162   581.0    4.814      60.881
2014   11        9    22  14    6.9175   581.2    4.812      60.919
2014   11        9    22  19    6.9188   581.4    4.811      60.959
2014   11        9    22  24    6.9201   581.6    4.809      60.999
2014   11        9    22  29    6.9214   581.7    4.808      61.040
2014   11        9    22  34    6.9227   581.9    4.807      61.081
2014   11        9    22  40    6.9240   582.1    4.805      61.122
2014   11        9    22  45    6.9252   582.3    4.804      61.163
2014   11        9    22  50    6.9265   582.5    4.803      61.204
2014   11        9    22  55    6.9277   582.7    4.802      61.245
2014   11        9    23   0    6.9289   582.9    4.801      61.285
2014   11        9    23   5    6.9301   583.0    4.800      61.325
2014   11        9    23  11    6.9312   583.2    4.800      61.364
2014   11        9    23  16    6.9324   583.4    4.799      61.403
2014   11        9    23  21    6.9334   583.6    4.798      61.441
2014   11        9    23  26    6.9345   583.8    4.798      61.478
2014   11        9    23  31    6.9356   584.0    4.797      61.516
2014   11        9    23  36    6.9367   584.2    4.797      61.554
2014   11        9    23  42    6.9378   584.4    4.797      61.591
2014   11        9    23  47    6.9389   584.6    4.797      61.629
2014   11        9    23  52    6.9400   584.8    4.797      61.667
2014   11        9    23  57    6.9411   585.0    4.797      61.707
2014   11       10     0   2    6.9422   585.2    4.798      61.749
2014   11       10     0   7    6.9433   585.4    4.798      61.792
2014   11       10     0  13    6.9444   585.6    4.799      61.837
2014   11       10     0  18    6.9455   585.8    4.800      61.886
2014   11       10     0  23    6.9466   586.0    4.801      61.938
2014   11       10     0  28    6.9476   586.2    4.802      61.991
2014   11       10     0  33    6.9486   586.4    4.802      62.047
2014   11       10     0  38    6.9495   586.6    4.803      62.105
2014   11       10     0  43    6.9504   586.8    4.804      62.165
2014   11       10     0  49    6.9514   587.1    4.805      62.225
2014   11       10     0  54    6.9521   587.3    4.805      62.286
2014   11       10     0  59    6.9529   587.5    4.805      62.349
2014   11       10     1   4    6.9536   587.7    4.805      62.412
2014   11       10     1   9    6.9543   588.0    4.805      62.475
2014   11       10     1  14    6.9548   588.2    4.805      62.538
2014   11       10     1  20    6.9554   588.5    4.804      62.600
2014   11       10     1  25    6.9557   588.7    4.803      62.662
2014   11       10     1  30    6.9561   588.9    4.802      62.722
2014   11       10     1  35    6.9566   589.2    4.800      62.781
2014   11       10     1  40    6.9568   589.4    4.799      62.838
2014   11       10     1  45    6.9569   589.7    4.797      62.895
2014   11       10     1  51    6.9571   589.9    4.794      62.950
2014   11       10     1  56    6.9572   590.2    4.792      63.005
2014   11       10     2   1    6.9572   590.4    4.789      63.057
2014   11       10     2   6    6.9572   590.7    4.786      63.108
2014   11       10     2  11    6.9572   591.0    4.782      63.157
2014   11       10     2  16    6.9571   591.2    4.779      63.205
2014   11       10     2  22    6.9570   591.5    4.775      63.251
2014   11       10     2  27    6.9568   591.7    4.771      63.297
2014   11       10     2  32    6.9566   592.0    4.767      63.341
2014   11       10     2  37    6.9564   592.2    4.762      63.384
2014   11       10     2  42    6.9563   592.5    4.758      63.426
2014   11       10     2  47    6.9560   592.7    4.753      63.468
2014   11       10     2  53    6.9557   593.0    4.749      63.510
2014   11       10     2  58    6.9553   593.2    4.744      63.550
2014   11       10     3   3    6.9548   593.5    4.739      63.591
2014   11       10     3   8    6.9543   593.8    4.734      63.631
2014   11       10     3  13    6.9539   594.0    4.729      63.672
2014   11       10     3  18    6.9534   594.3    4.725      63.712
2014   11       10     3  23    6.9529   594.5    4.720      63.752
2014   11       10     3  29    6.9526   594.8    4.714      63.791
2014   11       10     3  34    6.9518   595.0    4.709      63.831
2014   11       10     3  39    6.9512   595.3    4.704      63.870
2014   11       10     3  44    6.9508   595.5    4.699      63.908
2014   11       10     3  49    6.9500   595.8    4.694      63.946
2014   11       10     3  54    6.9493   596.0    4.689      63.984
2014   11       10     4   0    6.9486   596.3    4.684      64.021
2014   11       10     4   5    6.9481   596.5    4.678      64.058
2014   11       10     4  10    6.9471   596.8    4.673      64.093
2014   11       10     4  15    6.9466   597.0    4.668      64.129
2014   11       10     4  20    6.9456   597.3    4.663      64.163
2014   11       10     4  25    6.9451   597.5    4.657      64.198
2014   11       10     4  31    6.9443   597.8    4.652      64.231
2014   11       10     4  36    6.9433   598.0    4.647      64.265
2014   11       10     4  41    6.9425   598.3    4.642      64.298
2014   11       10     4  46    6.9419   598.5    4.637      64.332
2014   11       10     4  51    6.9408   598.7    4.632      64.365
2014   11       10     4  56    6.9401   599.0    4.627      64.399
2014   11       10     5   2    6.9395   599.2    4.622      64.433
2014   11       10     5   7    6.9387   599.5    4.618      64.467
2014   11       10     5  12    6.9379   599.7    4.613      64.502
2014   11       10     5  17    6.9371   600.0    4.609      64.538
2014   11       10     5  22    6.9363   600.2    4.604      64.574
2014   11       10     5  27    6.9351   600.5    4.600      64.611
2014   11       10     5  32    6.9342   600.7    4.596      64.647
2014   11       10     5  38    6.9333   601.0    4.592      64.683
2014   11       10     5  43    6.9324   601.2    4.587      64.719
2014   11       10     5  48    6.9314   601.5    4.583      64.753
2014   11       10     5  53    6.9303   601.8    4.579      64.788
2014   11       10     5  58    6.9292   602.0    4.575      64.822
2014   11       10     6   3    6.9280   602.3    4.571      64.854
2014   11       10     6   9    6.9270   602.6    4.566      64.886
2014   11       10     6  14    6.9256   602.9    4.562      64.916
2014   11       10     6  19    6.9242   603.1    4.558      64.945
2014   11       10     6  24    6.9226   603.4    4.553      64.973
2014   11       10     6  29    6.9211   603.7    4.549      65.000
2014   11       10     6  34    6.9190   604.0    4.544      65.025
2014   11       10     6  40    6.9173   604.2    4.540      65.050
2014   11       10     6  45    6.9157   604.5    4.535      65.073
2014   11       10     6  50    6.9139   604.8    4.530      65.096
2014   11       10     6  55    6.9115   605.1    4.526      65.118
2014   11       10     7   0    6.9098   605.3    4.521      65.139
2014   11       10     7   5    6.9077   605.6    4.516      65.161
2014   11       10     7  11    6.9056   605.9    4.512      65.181
2014   11       10     7  16    6.9035   606.1    4.507      65.202
2014   11       10     7  21    6.9013   606.4    4.502      65.223
2014   11       10     7  26    6.8990   606.7    4.498      65.244
2014   11       10     7  31    6.8967   606.9    4.493      65.268
2014   11       10     7  36    6.8939   607.2    4.488      65.293
2014   11       10     7  42    6.8919   607.4    4.484      65.321
2014   11       10     7  47    6.8894   607.7    4.479      65.350
2014   11       10     7  52    6.8869   608.0    4.474      65.380
2014   11       10     7  57    6.8843   608.2    4.469      65.411
2014   11       10     8   2    6.8813   608.5    4.464      65.443
2014   11       10     8   7    6.8790   608.8    4.459      65.475
2014   11       10     8  12    6.8758   609.1    4.454      65.508
2014   11       10     8  18    6.8733   609.3    4.448      65.540
2014   11       10     8  23    6.8704   609.6    4.443      65.573
2014   11       10     8  28    6.8670   609.9    4.437      65.604
2014   11       10     8  33    6.8644   610.1    4.431      65.633
2014   11       10     8  38    6.8608   610.4    4.425      65.661
2014   11       10     8  43    6.8581   610.7    4.418      65.688
2014   11       10     8  49    6.8549   610.9    4.412      65.713
2014   11       10     8  54    6.8513   611.2    4.405      65.737
2014   11       10     8  59    6.8484   611.5    4.399      65.759
2014   11       10     9   4    6.8451   611.7    4.392      65.780
2014   11       10     9   9    6.8418   612.0    4.385      65.800
2014   11       10     9  14    6.8385   612.3    4.378      65.819
2014   11       10     9  20    6.8352   612.5    4.371      65.836
2014   11       10     9  25    6.8315   612.8    4.364      65.853
2014   11       10     9  30    6.8281   613.0    4.357      65.869
2014   11       10     9  35    6.8252   613.3    4.350      65.885
2014   11       10     9  40    6.8215   613.5    4.343      65.899
2014   11       10     9  45    6.8182   613.8    4.336      65.914
2014   11       10     9  51    6.8149   614.0    4.328      65.928
2014   11       10     9  56    6.8116   614.3    4.321      65.942
2014   11       10    10   1    6.8086   614.5    4.314      65.955
2014   11       10    10   6    6.8049   614.8    4.307      65.969
2014   11       10    10  11    6.8019   615.0    4.300      65.982
2014   11       10    10  16    6.7982   615.3    4.293      65.996
2014   11       10    10  22    6.7952   615.5    4.286      66.010
2014   11       10    10  27    6.7918   615.8    4.279      66.024
2014   11       10    10  32    6.7884   616.0    4.272      66.038
2014   11       10    10  37    6.7849   616.2    4.265      66.052
2014   11       10    10  42    6.7815   616.5    4.258      66.065
2014   11       10    10  47    6.7780   616.7    4.251      66.078
2014   11       10    10  52    6.7741   617.0    4.244      66.091
2014   11       10    10  58    6.7709   617.2    4.237      66.103
2014   11       10    11   3    6.7673   617.4    4.230      66.113
2014   11       10    11   8    6.7634   617.6    4.222      66.123
2014   11       10    11  13    6.7598   617.9    4.215      66.132
2014   11       10    11  18    6.7565   618.1    4.208      66.140
2014   11       10    11  23    6.7525   618.3    4.201      66.147
2014   11       10    11  29    6.7488   618.6    4.194      66.153
2014   11       10    11  34    6.7451   618.8    4.187      66.156
2014   11       10    11  39    6.7414   619.0    4.180      66.159
2014   11       10    11  44    6.7376   619.2    4.172      66.161
2014   11       10    11  49    6.7341   619.4    4.165      66.161
2014   11       10    11  54    6.7303   619.7    4.158      66.160
2014   11       10    12   0    6.7262   619.9    4.151      66.158
2014   11       10    12   5    6.7226   620.1    4.143      66.155
2014   11       10    12  10    6.7185   620.3    4.136      66.151
2014   11       10    12  15    6.7149   620.5    4.129      66.146
2014   11       10    12  20    6.7110   620.7    4.122      66.140
2014   11       10    12  25    6.7068   620.9    4.115      66.133
2014   11       10    12  31    6.7031   621.1    4.108      66.125
2014   11       10    12  36    6.6989   621.3    4.101      66.117
2014   11       10    12  41    6.6952   621.5    4.094      66.108
2014   11       10    12  46    6.6911   621.7    4.087      66.098
2014   11       10    12  51    6.6868   621.9    4.080      66.088
2014   11       10    12  56    6.6830   622.1    4.073      66.078
2014   11       10    13   1    6.6786   622.3    4.067      66.067
2014   11       10    13   7    6.6746   622.5    4.060      66.056
2014   11       10    13  12    6.6701   622.7    4.054      66.045
2014   11       10    13  17    6.6661   622.9    4.047      66.033
2014   11       10    13  22    6.6618   623.1    4.041      66.022
2014   11       10    13  27    6.6574   623.3    4.035      66.010
2014   11       10    13  32    6.6527   623.5    4.029      65.999
2014   11       10    13  38    6.6481   623.7    4.023      65.987
2014   11       10    13  43    6.6438   623.9    4.017      65.975
2014   11       10    13  48    6.6389   624.1    4.011      65.962
2014   11       10    13  53    6.6342   624.2    4.005      65.950
2014   11       10    13  58    6.6297   624.4    3.999      65.937
2014   11       10    14   3    6.6249   624.6    3.994      65.923
2014   11       10    14   9    6.6197   624.8    3.988      65.909
2014   11       10    14  14    6.6151   625.0    3.982      65.895
2014   11       10    14  19    6.6098   625.1    3.977      65.880
2014   11       10    14  24    6.6048   625.3    3.971      65.865
2014   11       10    14  29    6.6001   625.5    3.966      65.850
2014   11       10    14  34    6.5950   625.6    3.961      65.835
2014   11       10    14  40    6.5899   625.8    3.955      65.819
2014   11       10    14  45    6.5847   625.9    3.950      65.804
2014   11       10    14  50    6.5796   626.1    3.944      65.789
2014   11       10    14  55    6.5742   626.2    3.939      65.773
2014   11       10    15   0    6.5690   626.3    3.934      65.758
2014   11       10    15   5    6.5639   626.5    3.929      65.743
2014   11       10    15  11    6.5587   626.6    3.923      65.727
2014   11       10    15  16    6.5535   626.7    3.918      65.712
2014   11       10    15  21    6.5484   626.8    3.913      65.696
2014   11       10    15  26    6.5432   626.9    3.908      65.680
2014   11       10    15  31    6.5380   627.1    3.903      65.664
2014   11       10    15  36    6.5329   627.2    3.897      65.648
2014   11       10    15  41    6.5278   627.3    3.892      65.632
2014   11       10    15  47    6.5227   627.4    3.887      65.616
2014   11       10    15  52    6.5176   627.5    3.882      65.599
2014   11       10    15  57    6.5128   627.6    3.877      65.583
2014   11       10    16   2    6.5079   627.6    3.872      65.566
2014   11       10    16   7    6.5030   627.7    3.867      65.548
2014   11       10    16  12    6.4980   627.8    3.862      65.531
2014   11       10    16  18    6.4934   627.9    3.856      65.513
2014   11       10    16  23    6.4885   628.0    3.851      65.495
2014   11       10    16  28    6.4840   628.1    3.846      65.477
2014   11       10    16  33    6.4794   628.2    3.841      65.459
2014   11       10    16  38    6.4749   628.2    3.836      65.440
2014   11       10    16  43    6.4705   628.3    3.831      65.421
2014   11       10    16  49    6.4662   628.4    3.826      65.401
2014   11       10    16  54    6.4619   628.5    3.820      65.381
2014   11       10    16  59    6.4576   628.6    3.815      65.360
2014   11       10    17   4    6.4535   628.7    3.810      65.338
2014   11       10    17   9    6.4492   628.8    3.805      65.315
2014   11       10    17  14    6.4451   628.9    3.799      65.292
2014   11       10    17  20    6.4408   628.9    3.794      65.268
2014   11       10    17  25    6.4367   629.0    3.789      65.243
2014   11       10    17  30    6.4325   629.1    3.784      65.218
2014   11       10    17  35    6.4283   629.2    3.778      65.192
2014   11       10    17  40    6.4241   629.3    3.773      65.165
2014   11       10    17  45    6.4199   629.4    3.767      65.138
2014   11       10    17  50    6.4157   629.5    3.762      65.110
2014   11       10    17  56    6.4114   629.5    3.757      65.082
2014   11       10    18   1    6.4072   629.6    3.751      65.052
2014   11       10    18   6    6.4029   629.7    3.746      65.023
2014   11       10    18  11    6.3986   629.8    3.740      64.993
2014   11       10    18  16    6.3944   629.9    3.735      64.962
2014   11       10    18  21    6.3901   629.9    3.730      64.931
2014   11       10    18  27    6.3858   630.0    3.724      64.899
2014   11       10    18  32    6.3816   630.1    3.719      64.867
2014   11       10    18  37    6.3773   630.2    3.714      64.835
2014   11       10    18  42    6.3730   630.2    3.708      64.802
2014   11       10    18  47    6.3688   630.3    3.703      64.769
2014   11       10    18  52    6.3644   630.4    3.698      64.736
2014   11       10    18  58    6.3601   630.4    3.692      64.703
2014   11       10    19   3    6.3559   630.5    3.687      64.669
2014   11       10    19   8    6.3517   630.6    3.682      64.636
2014   11       10    19  13    6.3474   630.6    3.677      64.602
2014   11       10    19  18    6.3432   630.7    3.672      64.569
2014   11       10    19  23    6.3388   630.8    3.667      64.535
2014   11       10    19  29    6.3347   630.8    3.662      64.502
2014   11       10    19  34    6.3303   630.9    3.657      64.469
2014   11       10    19  39    6.3262   630.9    3.652      64.436
2014   11       10    19  44    6.3218   631.0    3.648      64.403
2014   11       10    19  49    6.3175   631.0    3.643      64.371
2014   11       10    19  54    6.3133   631.1    3.638      64.339
2014   11       10    20   0    6.3091   631.2    3.634      64.307
2014   11       10    20   5    6.3048   631.2    3.630      64.276
2014   11       10    20  10    6.3004   631.3    3.625      64.245
2014   11       10    20  15    6.2961   631.3    3.621      64.214
2014   11       10    20  20    6.2918   631.4    3.617      64.183
2014   11       10    20  25    6.2875   631.4    3.613      64.153
2014   11       10    20  30    6.2833   631.4    3.609      64.124
2014   11       10    20  36    6.2789   631.5    3.606      64.094
2014   11       10    20  41    6.2744   631.5    3.602      64.066
2014   11       10    20  46    6.2702   631.6    3.598      64.037
2014   11       10    20  51    6.2659   631.6    3.595      64.008
2014   11       10    20  56    6.2615   631.6    3.592      63.980
2014   11       10    21   1    6.2571   631.7    3.588      63.950
2014   11       10    21   7    6.2527   631.7    3.585      63.920
2014   11       10    21  12    6.2481   631.7    3.582      63.890
2014   11       10    21  17    6.2439   631.8    3.579      63.858
2014   11       10    21  22    6.2396   631.8    3.576      63.826
2014   11       10    21  27    6.2350   631.8    3.573      63.792
2014   11       10    21  32    6.2306   631.8    3.571      63.757
2014   11       10    21  38    6.2265   631.8    3.568      63.722
2014   11       10    21  43    6.2222   631.8    3.565      63.685
2014   11       10    21  48    6.2178   631.8    3.563      63.648
2014   11       10    21  53    6.2135   631.8    3.560      63.609
2014   11       10    21  58    6.2092   631.8    3.557      63.570
2014   11       10    22   3    6.2048   631.8    3.555      63.530
2014   11       10    22   9    6.2006   631.8    3.553      63.489
2014   11       10    22  14    6.1966   631.8    3.550      63.448
2014   11       10    22  19    6.1922   631.8    3.548      63.406
2014   11       10    22  24    6.1881   631.7    3.546      63.364
2014   11       10    22  29    6.1840   631.7    3.544      63.322
2014   11       10    22  34    6.1800   631.7    3.542      63.280
2014   11       10    22  40    6.1763   631.6    3.539      63.239
2014   11       10    22  45    6.1724   631.6    3.537      63.198
2014   11       10    22  50    6.1685   631.6    3.535      63.157
2014   11       10    22  55    6.1647   631.5    3.534      63.117
2014   11       10    23   0    6.1610   631.5    3.532      63.077
2014   11       10    23   5    6.1573   631.4    3.530      63.037
2014   11       10    23  10    6.1537   631.4    3.528      62.998
2014   11       10    23  16    6.1502   631.3    3.526      62.959
2014   11       10    23  21    6.1465   631.3    3.524      62.919
2014   11       10    23  26    6.1431   631.2    3.522      62.880
2014   11       10    23  31    6.1398   631.2    3.520      62.842
2014   11       10    23  36    6.1365   631.1    3.518      62.803
2014   11       10    23  41    6.1334   631.1    3.516      62.764
2014   11       10    23  47    6.1305   631.0    3.514      62.724
2014   11       10    23  52    6.1274   631.0    3.512      62.684
2014   11       10    23  57    6.1244   630.9    3.510      62.644
2014   11       11     0   2    6.1213   630.9    3.508      62.603
2014   11       11     0   7    6.1181   630.8    3.506      62.562
2014   11       11     0  12    6.1151   630.8    3.504      62.520
2014   11       11     0  18    6.1122   630.8    3.502      62.478
2014   11       11     0  23    6.1094   630.7    3.500      62.436
2014   11       11     0  28    6.1062   630.7    3.497      62.393
2014   11       11     0  33    6.1035   630.6    3.495      62.350
2014   11       11     0  38    6.1003   630.6    3.493      62.306
2014   11       11     0  43    6.0972   630.6    3.490      62.263
2014   11       11     0  49    6.0942   630.5    3.488      62.219
2014   11       11     0  54    6.0912   630.5    3.486      62.175
2014   11       11     0  59    6.0883   630.4    3.483      62.132
2014   11       11     1   4    6.0850   630.4    3.481      62.088
2014   11       11     1   9    6.0820   630.4    3.478      62.045
2014   11       11     1  14    6.0789   630.3    3.476      62.002
2014   11       11     1  19    6.0759   630.3    3.473      61.958
2014   11       11     1  25    6.0726   630.2    3.471      61.916
2014   11       11     1  30    6.0695   630.2    3.469      61.873
2014   11       11     1  35    6.0664   630.1    3.466      61.831
2014   11       11     1  40    6.0634   630.1    3.464      61.790
2014   11       11     1  45    6.0602   630.1    3.461      61.749
2014   11       11     1  50    6.0569   630.0    3.459      61.708
2014   11       11     1  56    6.0537   630.0    3.456      61.668
2014   11       11     2   1    6.0506   630.0    3.454      61.629
2014   11       11     2   6    6.0475   629.9    3.451      61.590
2014   11       11     2  11    6.0442   629.9    3.449      61.552
2014   11       11     2  16    6.0411   629.8    3.447      61.514
2014   11       11     2  21    6.0379   629.8    3.444      61.477
2014   11       11     2  27    6.0346   629.8    3.442      61.441
2014   11       11     2  32    6.0313   629.7    3.439      61.406
2014   11       11     2  37    6.0282   629.7    3.437      61.371
2014   11       11     2  42    6.0250   629.7    3.435      61.336
2014   11       11     2  47    6.0216   629.6    3.433      61.303
2014   11       11     2  52    6.0184   629.6    3.431      61.269
2014   11       11     2  58    6.0152   629.6    3.428      61.236
2014   11       11     3   3    6.0120   629.5    3.426      61.204
2014   11       11     3   8    6.0087   629.5    3.424      61.172
2014   11       11     3  13    6.0054   629.4    3.422      61.140
2014   11       11     3  18    6.0022   629.4    3.420      61.109
2014   11       11     3  23    5.9989   629.4    3.418      61.078
2014   11       11     3  29    5.9956   629.3    3.416      61.047
2014   11       11     3  34    5.9924   629.3    3.414      61.016
2014   11       11     3  39    5.9891   629.2    3.412      60.985
2014   11       11     3  44    5.9859   629.2    3.410      60.954
2014   11       11     3  49    5.9826   629.2    3.408      60.923
2014   11       11     3  54    5.9793   629.1    3.407      60.892
2014   11       11     3  59    5.9760   629.1    3.405      60.861
2014   11       11     4   5    5.9727   629.0    3.403      60.830
2014   11       11     4  10    5.9696   629.0    3.401      60.798
2014   11       11     4  15    5.9663   628.9    3.399      60.766
2014   11       11     4  20    5.9630   628.9    3.398      60.733
2014   11       11     4  25    5.9598   628.8    3.396      60.699
2014   11       11     4  30    5.9566   628.8    3.394      60.664
2014   11       11     4  36    5.9534   628.7    3.393      60.628
2014   11       11     4  41    5.9502   628.7    3.391      60.591
2014   11       11     4  46    5.9469   628.6    3.390      60.554
2014   11       11     4  51    5.9438   628.5    3.388      60.515
2014   11       11     4  56    5.9406   628.5    3.387      60.476
2014   11       11     5   1    5.9375   628.4    3.385      60.435
2014   11       11     5   7    5.9345   628.3    3.384      60.395
2014   11       11     5  12    5.9313   628.3    3.382      60.353
2014   11       11     5  17    5.9283   628.2    3.381      60.311
2014   11       11     5  22    5.9253   628.1    3.380      60.268
2014   11       11     5  27    5.9223   628.1    3.379      60.226
2014   11       11     5  32    5.9193   628.0    3.378      60.183
2014   11       11     5  38    5.9165   627.9    3.377      60.140
2014   11       11     5  43    5.9136   627.8    3.376      60.096
2014   11       11     5  48    5.9107   627.7    3.375      60.054
2014   11       11     5  53    5.9080   627.7    3.374      60.011
2014   11       11     5  58    5.9052   627.6    3.373      59.969
2014   11       11     6   3    5.9024   627.5    3.373      59.927
2014   11       11     6   9    5.8999   627.4    3.373      59.885
2014   11       11     6  14    5.8973   627.4    3.372      59.844
2014   11       11     6  19    5.8947   627.3    3.372      59.803
2014   11       11     6  24    5.8921   627.2    3.372      59.763
2014   11       11     6  29    5.8895   627.1    3.372      59.724
2014   11       11     6  34    5.8871   627.0    3.372      59.685
2014   11       11     6  39    5.8846   627.0    3.373      59.648
2014   11       11     6  45    5.8820   626.9    3.373      59.611
2014   11       11     6  50    5.8795   626.8    3.373      59.574
2014   11       11     6  55    5.8770   626.7    3.374      59.538
2014   11       11     7   0    5.8746   626.6    3.374      59.503
2014   11       11     7   5    5.8721   626.6    3.375      59.467
2014   11       11     7  10    5.8696   626.5    3.375      59.432
2014   11       11     7  16    5.8669   626.4    3.376      59.396
2014   11       11     7  21    5.8643   626.3    3.376      59.359
2014   11       11     7  26    5.8618   626.3    3.377      59.323
2014   11       11     7  31    5.8592   626.2    3.377      59.285
2014   11       11     7  36    5.8566   626.1    3.377      59.247
2014   11       11     7  41    5.8540   626.0    3.377      59.208
2014   11       11     7  47    5.8514   625.9    3.377      59.169
2014   11       11     7  52    5.8487   625.9    3.377      59.128
2014   11       11     7  57    5.8461   625.8    3.377      59.086
2014   11       11     8   2    5.8434   625.7    3.376      59.044
2014   11       11     8   7    5.8408   625.6    3.376      59.001
2014   11       11     8  12    5.8380   625.6    3.375      58.957
2014   11       11     8  18    5.8354   625.5    3.375      58.913
2014   11       11     8  23    5.8327   625.4    3.374      58.867
2014   11       11     8  28    5.8300   625.3    3.373      58.821
2014   11       11     8  33    5.8273   625.3    3.372      58.775
2014   11       11     8  38    5.8245   625.2    3.371      58.728
2014   11       11     8  43    5.8218   625.1    3.370      58.680
2014   11       11     8  48    5.8192   625.0    3.369      58.632
2014   11       11     8  54    5.8164   624.9    3.368      58.583
2014   11       11     8  59    5.8137   624.9    3.366      58.534
2014   11       11     9   4    5.8111   624.8    3.365      58.484
2014   11       11     9   9    5.8084   624.7    3.364      58.434
2014   11       11     9  14    5.8057   624.6    3.362      58.383
2014   11       11     9  19    5.8030   624.5    3.361      58.332
2014   11       11     9  25    5.8002   624.4    3.359      58.281
2014   11       11     9  30    5.7975   624.3    3.358      58.230
2014   11       11     9  35    5.7950   624.3    3.356      58.178
2014   11       11     9  40    5.7922   624.2    3.355      58.126
2014   11       11     9  45    5.7896   624.1    3.353      58.073
2014   11       11     9  50    5.7869   624.0    3.351      58.020
2014   11       11     9  56    5.7844   623.9    3.350      57.967
2014   11       11    10   1    5.7819   623.8    3.348      57.913
2014   11       11    10   6    5.7792   623.7    3.346      57.859
2014   11       11    10  11    5.7767   623.6    3.345      57.805
2014   11       11    10  16    5.7741   623.5    3.343      57.751
2014   11       11    10  21    5.7716   623.4    3.341      57.696
2014   11       11    10  27    5.7691   623.3    3.339      57.640
2014   11       11    10  32    5.7668   623.2    3.337      57.584
2014   11       11    10  37    5.7644   623.1    3.335      57.528
2014   11       11    10  42    5.7620   623.0    3.333      57.472
2014   11       11    10  47    5.7596   622.9    3.331      57.415
2014   11       11    10  52    5.7572   622.8    3.329      57.357
2014   11       11    10  57    5.7549   622.7    3.327      57.300
2014   11       11    11   3    5.7526   622.6    3.325      57.242
2014   11       11    11   8    5.7502   622.5    3.323      57.183
2014   11       11    11  13    5.7479   622.4    3.321      57.124
2014   11       11    11  18    5.7457   622.3    3.319      57.066
2014   11       11    11  23    5.7434   622.2    3.317      57.006
2014   11       11    11  28    5.7412   622.1    3.315      56.947
2014   11       11    11  34    5.7390   622.0    3.313      56.887
2014   11       11    11  39    5.7369   621.9    3.311      56.827
2014   11       11    11  44    5.7347   621.7    3.309      56.767
2014   11       11    11  49    5.7324   621.6    3.307      56.706
2014   11       11    11  54    5.7302   621.5    3.305      56.646
2014   11       11    11  59    5.7280   621.4    3.303      56.586
2014   11       11    12   5    5.7258   621.3    3.301      56.526
2014   11       11    12  10    5.7237   621.2    3.299      56.466
2014   11       11    12  15    5.7215   621.0    3.298      56.406
2014   11       11    12  20    5.7194   620.9    3.296      56.347
2014   11       11    12  25    5.7172   620.8    3.294      56.288
2014   11       11    12  30    5.7150   620.7    3.293      56.229
2014   11       11    12  36    5.7128   620.6    3.291      56.171
2014   11       11    12  41    5.7106   620.4    3.290      56.114
2014   11       11    12  46    5.7085   620.3    3.288      56.057
2014   11       11    12  51    5.7063   620.2    3.287      56.001
2014   11       11    12  56    5.7042   620.1    3.286      55.945
2014   11       11    13   1    5.7021   620.0    3.285      55.891
2014   11       11    13   7    5.7000   619.8    3.284      55.837
2014   11       11    13  12    5.6979   619.7    3.283      55.785
2014   11       11    13  17    5.6957   619.6    3.283      55.733
2014   11       11    13  22    5.6936   619.5    3.282      55.682
2014   11       11    13  27    5.6915   619.4    3.282      55.632
2014   11       11    13  32    5.6893   619.2    3.282      55.583
2014   11       11    13  37    5.6871   619.1    3.282      55.536
2014   11       11    13  43    5.6849   619.0    3.282      55.489
2014   11       11    13  48    5.6827   618.9    3.282      55.444
2014   11       11    13  53    5.6805   618.8    3.282      55.399
2014   11       11    13  58    5.6782   618.7    3.283      55.356
2014   11       11    14   3    5.6760   618.5    3.283      55.313
2014   11       11    14   8    5.6736   618.4    3.284      55.270
2014   11       11    14  14    5.6713   618.3    3.284      55.228
2014   11       11    14  19    5.6689   618.2    3.285      55.186
2014   11       11    14  24    5.6666   618.1    3.285      55.144
2014   11       11    14  29    5.6642   618.0    3.286      55.101
2014   11       11    14  34    5.6618   617.8    3.287      55.058
2014   11       11    14  39    5.6593   617.7    3.287      55.015
2014   11       11    14  45    5.6569   617.6    3.288      54.971
2014   11       11    14  50    5.6545   617.5    3.288      54.926
2014   11       11    14  55    5.6520   617.3    3.289      54.881
2014   11       11    15   0    5.6496   617.2    3.289      54.835
2014   11       11    15   5    5.6471   617.1    3.290      54.788
2014   11       11    15  10    5.6446   617.0    3.290      54.741
2014   11       11    15  16    5.6422   616.8    3.291      54.693
2014   11       11    15  21    5.6397   616.7    3.291      54.644
2014   11       11    15  26    5.6372   616.6    3.291      54.594
2014   11       11    15  31    5.6348   616.4    3.292      54.544
2014   11       11    15  36    5.6323   616.3    3.292      54.493
2014   11       11    15  41    5.6298   616.2    3.292      54.441
2014   11       11    15  47    5.6274   616.0    3.292      54.389
2014   11       11    15  52    5.6250   615.9    3.293      54.336
2014   11       11    15  57    5.6225   615.8    3.293      54.282
2014   11       11    16   2    5.6201   615.6    3.293      54.228
2014   11       11    16   7    5.6177   615.5    3.293      54.173
2014   11       11    16  12    5.6152   615.3    3.293      54.118
2014   11       11    16  17    5.6129   615.2    3.293      54.062
2014   11       11    16  23    5.6105   615.0    3.293      54.006
2014   11       11    16  28    5.6082   614.9    3.293      53.949
2014   11       11    16  33    5.6059   614.8    3.293      53.892
2014   11       11    16  38    5.6036   614.6    3.293      53.835
2014   11       11    16  43    5.6013   614.4    3.293      53.777
2014   11       11    16  48    5.5991   614.3    3.293      53.719
2014   11       11    16  54    5.5969   614.1    3.293      53.661
2014   11       11    16  59    5.5948   614.0    3.293      53.603
2014   11       11    17   4    5.5926   613.8    3.293      53.545
2014   11       11    17   9    5.5906   613.7    3.293      53.486
2014   11       11    17  14    5.5885   613.5    3.293      53.428
2014   11       11    17  19    5.5865   613.4    3.293      53.369
2014   11       11    17  25    5.5846   613.2    3.293      53.311
2014   11       11    17  30    5.5827   613.1    3.293      53.252
2014   11       11    17  35    5.5809   612.9    3.293      53.194
2014   11       11    17  40    5.5790   612.7    3.292      53.136
2014   11       11    17  45    5.5772   612.6    3.292      53.077
2014   11       11    17  50    5.5754   612.4    3.292      53.018
2014   11       11    17  56    5.5738   612.3    3.292      52.959
2014   11       11    18   1    5.5720   612.1    3.292      52.900
2014   11       11    18   6    5.5704   612.0    3.292      52.840
2014   11       11    18  11    5.5688   611.8    3.291      52.779
2014   11       11    18  16    5.5672   611.6    3.291      52.719
2014   11       11    18  21    5.5656   611.5    3.291      52.658
2014   11       11    18  26    5.5640   611.3    3.290      52.596
2014   11       11    18  32    5.5624   611.2    3.290      52.534
2014   11       11    18  37    5.5608   611.0    3.289      52.471
2014   11       11    18  42    5.5591   610.9    3.289      52.407
2014   11       11    18  47    5.5576   610.7    3.288      52.343
2014   11       11    18  52    5.5560   610.6    3.287      52.279
2014   11       11    18  57    5.5543   610.4    3.287      52.213
2014   11       11    19   3    5.5527   610.3    3.286      52.148
2014   11       11    19   8    5.5512   610.2    3.285      52.081
2014   11       11    19  13    5.5494   610.0    3.284      52.014
2014   11       11    19  18    5.5479   609.9    3.283      51.947
2014   11       11    19  23    5.5462   609.7    3.281      51.879
2014   11       11    19  28    5.5446   609.6    3.280      51.810
2014   11       11    19  34    5.5429   609.4    3.279      51.741
2014   11       11    19  39    5.5410   609.3    3.278      51.672
2014   11       11    19  44    5.5393   609.1    3.276      51.602
2014   11       11    19  49    5.5377   609.0    3.275      51.532
2014   11       11    19  54    5.5360   608.8    3.273      51.461
2014   11       11    19  59    5.5343   608.7    3.272      51.390
2014   11       11    20   5    5.5324   608.5    3.270      51.319
2014   11       11    20  10    5.5307   608.4    3.268      51.248
2014   11       11    20  15    5.5291   608.2    3.267      51.176
2014   11       11    20  20    5.5273   608.1    3.265      51.103
2014   11       11    20  25    5.5254   607.9    3.263      51.031
2014   11       11    20  30    5.5238   607.8    3.262      50.959
2014   11       11    20  36    5.5219   607.6    3.260      50.886
2014   11       11    20  41    5.5203   607.4    3.258      50.813
2014   11       11    20  46    5.5184   607.3    3.256      50.740
2014   11       11    20  51    5.5168   607.1    3.255      50.667
2014   11       11    20  56    5.5149   606.9    3.253      50.594
2014   11       11    21   1    5.5132   606.8    3.251      50.520
2014   11       11    21   6    5.5115   606.6    3.249      50.448
2014   11       11    21  12    5.5097   606.4    3.247      50.375
2014   11       11    21  17    5.5079   606.3    3.246      50.302
2014   11       11    21  22    5.5061   606.1    3.244      50.230
2014   11       11    21  27    5.5043   605.9    3.242      50.157
2014   11       11    21  32    5.5026   605.7    3.241      50.086
2014   11       11    21  37    5.5008   605.5    3.239      50.014
2014   11       11    21  43    5.4990   605.4    3.238      49.942
2014   11       11    21  48    5.4972   605.2    3.236      49.871
2014   11       11    21  53    5.4954   605.0    3.235      49.800
2014   11       11    21  58    5.4937   604.8    3.233      49.730
2014   11       11    22   3    5.4919   604.6    3.232      49.659
2014   11       11    22   8    5.4902   604.4    3.231      49.589
2014   11       11    22  14    5.4885   604.2    3.230      49.519
2014   11       11    22  19    5.4867   604.0    3.228      49.449
2014   11       11    22  24    5.4849   603.8    3.227      49.380
2014   11       11    22  29    5.4832   603.6    3.226      49.310
2014   11       11    22  34    5.4814   603.4    3.226      49.241
2014   11       11    22  39    5.4796   603.2    3.225      49.172
2014   11       11    22  45    5.4779   603.0    3.224      49.103
2014   11       11    22  50    5.4762   602.8    3.223      49.034
2014   11       11    22  55    5.4745   602.6    3.223      48.965
2014   11       11    23   0    5.4727   602.4    3.222      48.897
2014   11       11    23   5    5.4710   602.2    3.222      48.829
2014   11       11    23  10    5.4693   602.0    3.221      48.762
2014   11       11    23  15    5.4676   601.7    3.221      48.695
2014   11       11    23  21    5.4660   601.5    3.221      48.628
2014   11       11    23  26    5.4644   601.3    3.221      48.562
2014   11       11    23  31    5.4627   601.1    3.221      48.497
2014   11       11    23  36    5.4612   600.8    3.221      48.433
2014   11       11    23  41    5.4596   600.6    3.222      48.369
2014   11       11    23  46    5.4581   600.4    3.222      48.307
2014   11       11    23  52    5.4566   600.2    3.223      48.245
2014   11       11    23  57    5.4552   599.9    3.223      48.185
2014   11       12     0   2    5.4538   599.7    3.224      48.126
2014   11       12     0   7    5.4524   599.5    3.226      48.069
2014   11       12     0  12    5.4511   599.2    3.227      48.013
2014   11       12     0  17    5.4498   599.0    3.228      47.958
2014   11       12     0  23    5.4486   598.8    3.230      47.905
2014   11       12     0  28    5.4474   598.5    3.232      47.854
2014   11       12     0  33    5.4463   598.3    3.234      47.805
2014   11       12     0  38    5.4451   598.1    3.236      47.757
2014   11       12     0  43    5.4440   597.8    3.238      47.711
2014   11       12     0  48    5.4429   597.6    3.240      47.666
2014   11       12     0  54    5.4419   597.4    3.243      47.623
2014   11       12     0  59    5.4409   597.2    3.245      47.581
2014   11       12     1   4    5.4398   597.0    3.248      47.539
2014   11       12     1   9    5.4388   596.7    3.251      47.498
2014   11       12     1  14    5.4377   596.5    3.253      47.458
2014   11       12     1  19    5.4367   596.3    3.256      47.417
2014   11       12     1  25    5.4356   596.1    3.259      47.377
2014   11       12     1  30    5.4345   595.9    3.262      47.336
2014   11       12     1  35    5.4334   595.7    3.264      47.295
2014   11       12     1  40    5.4323   595.5    3.267      47.253
2014   11       12     1  45    5.4311   595.3    3.270      47.210
2014   11       12     1  50    5.4299   595.1    3.272      47.166
2014   11       12     1  55    5.4286   594.8    3.275      47.121
2014   11       12     2   1    5.4274   594.6    3.277      47.075
2014   11       12     2   6    5.4261   594.4    3.279      47.028
2014   11       12     2  11    5.4248   594.2    3.281      46.980
2014   11       12     2  16    5.4234   594.0    3.284      46.931
2014   11       12     2  21    5.4220   593.8    3.286      46.881
2014   11       12     2  26    5.4207   593.6    3.287      46.831
2014   11       12     2  32    5.4193   593.4    3.289      46.779
2014   11       12     2  37    5.4179   593.1    3.291      46.727
2014   11       12     2  42    5.4165   592.9    3.293      46.675
2014   11       12     2  47    5.4151   592.7    3.294      46.622
2014   11       12     2  52    5.4137   592.5    3.296      46.568
2014   11       12     2  57    5.4123   592.3    3.297      46.514
2014   11       12     3   3    5.4109   592.1    3.299      46.461
2014   11       12     3   8    5.4096   591.8    3.300      46.406
2014   11       12     3  13    5.4082   591.6    3.301      46.352
2014   11       12     3  18    5.4069   591.4    3.303      46.297
2014   11       12     3  23    5.4055   591.2    3.304      46.243
2014   11       12     3  28    5.4043   590.9    3.305      46.188
2014   11       12     3  34    5.4030   590.7    3.306      46.133
2014   11       12     3  39    5.4017   590.5    3.307      46.079
2014   11       12     3  44    5.4005   590.2    3.309      46.025
2014   11       12     3  49    5.3992   590.0    3.310      45.970
2014   11       12     3  54    5.3980   589.8    3.311      45.916
2014   11       12     3  59    5.3968   589.6    3.312      45.863
2014   11       12     4   5    5.3956   589.3    3.313      45.809
2014   11       12     4  10    5.3944   589.1    3.314      45.756
2014   11       12     4  15    5.3932   588.8    3.315      45.703
2014   11       12     4  20    5.3921   588.6    3.316      45.651
2014   11       12     4  25    5.3909   588.4    3.317      45.599
2014   11       12     4  30    5.3898   588.1    3.318      45.547
2014   11       12     4  35    5.3887   587.9    3.319      45.495
2014   11       12     4  41    5.3874   587.7    3.320      45.444
2014   11       12     4  46    5.3863   587.4    3.321      45.393
2014   11       12     4  51    5.3851   587.2    3.322      45.342
2014   11       12     4  56    5.3840   586.9    3.323      45.291
2014   11       12     5   1    5.3828   586.7    3.324      45.241
2014   11       12     5   6    5.3817   586.5    3.325      45.190
2014   11       12     5  12    5.3805   586.2    3.326      45.139
2014   11       12     5  17    5.3795   586.0    3.327      45.088
2014   11       12     5  22    5.3783   585.7    3.328      45.036
2014   11       12     5  27    5.3772   585.5    3.329      44.984
2014   11       12     5  32    5.3760   585.2    3.330      44.932
2014   11       12     5  37    5.3749   585.0    3.330      44.879
2014   11       12     5  43    5.3739   584.7    3.331      44.825
2014   11       12     5  48    5.3727   584.4    3.332      44.771
2014   11       12     5  53    5.3717   584.2    3.333      44.717
2014   11       12     5  58    5.3707   583.9    3.333      44.662
2014   11       12     6   3    5.3696   583.7    3.334      44.607
2014   11       12     6   8    5.3687   583.4    3.335      44.551
2014   11       12     6  14    5.3676   583.1    3.335      44.495
2014   11       12     6  19    5.3666   582.9    3.336      44.438
2014   11       12     6  24    5.3658   582.6    3.337      44.382
2014   11       12     6  29    5.3647   582.3    3.338      44.325
2014   11       12     6  34    5.3639   582.0    3.338      44.268
2014   11       12     6  39    5.3630   581.8    3.339      44.212
2014   11       12     6  44    5.3622   581.5    3.340      44.155
2014   11       12     6  50    5.3613   581.2    3.341      44.098
2014   11       12     6  55    5.3605   580.9    3.342      44.042
2014   11       12     7   0    5.3598   580.6    3.343      43.985
2014   11       12     7   5    5.3591   580.4    3.344      43.929
2014   11       12     7  10    5.3584   580.1    3.345      43.873
2014   11       12     7  15    5.3578   579.8    3.346      43.818
2014   11       12     7  21    5.3572   579.5    3.347      43.763
2014   11       12     7  26    5.3567   579.2    3.349      43.709
2014   11       12     7  31    5.3561   578.9    3.350      43.655
2014   11       12     7  36    5.3556   578.7    3.352      43.601
2014   11       12     7  41    5.3552   578.4    3.353      43.548
2014   11       12     7  46    5.3548   578.1    3.355      43.495
2014   11       12     7  52    5.3544   577.8    3.357      43.443
2014   11       12     7  57    5.3541   577.5    3.359      43.391
2014   11       12     8   2    5.3537   577.2    3.361      43.340
2014   11       12     8   7    5.3535   577.0    3.363      43.289
2014   11       12     8  12    5.3532   576.7    3.365      43.238
2014   11       12     8  17    5.3529   576.4    3.367      43.187
2014   11       12     8  23    5.3526   576.1    3.369      43.137
2014   11       12     8  28    5.3524   575.8    3.372      43.087
2014   11       12     8  33    5.3523   575.5    3.374      43.037
2014   11       12     8  38    5.3521   575.3    3.377      42.986
2014   11       12     8  43    5.3520   575.0    3.379      42.936
2014   11       12     8  48    5.3518   574.7    3.382      42.885
2014   11       12     8  53    5.3517   574.4    3.385      42.834
2014   11       12     8  59    5.3517   574.1    3.387      42.782
2014   11       12     9   4    5.3516   573.8    3.390      42.731
2014   11       12     9   9    5.3515   573.5    3.393      42.679
2014   11       12     9  14    5.3515   573.3    3.396      42.627
2014   11       12     9  19    5.3515   573.0    3.399      42.575
2014   11       12     9  24    5.3516   572.7    3.402      42.523
2014   11       12     9  30    5.3516   572.4    3.405      42.471
2014   11       12     9  35    5.3516   572.1    3.408      42.419
2014   11       12     9  40    5.3516   571.8    3.411      42.367
2014   11       12     9  45    5.3518   571.5    3.414      42.315
2014   11       12     9  50    5.3519   571.2    3.417      42.264
2014   11       12     9  55    5.3521   570.9    3.421      42.213
2014   11       12    10   1    5.3522   570.6    3.424      42.163
2014   11       12    10   6    5.3525   570.3    3.427      42.114
2014   11       12    10  11    5.3528   570.0    3.431      42.065
2014   11       12    10  16    5.3530   569.7    3.434      42.017
2014   11       12    10  21    5.3534   569.4    3.438      41.971
2014   11       12    10  26    5.3538   569.1    3.442      41.924
2014   11       12    10  32    5.3543   568.8    3.446      41.879
2014   11       12    10  37    5.3548   568.5    3.450      41.835
2014   11       12    10  42    5.3553   568.2    3.454      41.791
2014   11       12    10  47    5.3558   567.9    3.458      41.749
2014   11       12    10  52    5.3563   567.7    3.462      41.708
2014   11       12    10  57    5.3570   567.4    3.466      41.668
2014   11       12    11   3    5.3576   567.1    3.471      41.628
2014   11       12    11   8    5.3585   566.8    3.475      41.590
2014   11       12    11  13    5.3591   566.5    3.480      41.553
2014   11       12    11  18    5.3598   566.2    3.485      41.517
2014   11       12    11  23    5.3608   565.9    3.489      41.481
2014   11       12    11  28    5.3616   565.7    3.494      41.447
2014   11       12    11  33    5.3624   565.4    3.499      41.413
2014   11       12    11  39    5.3632   565.1    3.504      41.381
2014   11       12    11  44    5.3641   564.8    3.509      41.349
2014   11       12    11  49    5.3649   564.6    3.514      41.318
2014   11       12    11  54    5.3659   564.3    3.520      41.288
2014   11       12    11  59    5.3668   564.0    3.525      41.258
2014   11       12    12   4    5.3676   563.8    3.530      41.229
2014   11       12    12  10    5.3687   563.5    3.536      41.201
2014   11       12    12  15    5.3695   563.2    3.541      41.173
2014   11       12    12  20    5.3706   563.0    3.547      41.146
2014   11       12    12  25    5.3716   562.7    3.552      41.119
2014   11       12    12  30    5.3726   562.5    3.558      41.092
2014   11       12    12  35    5.3734   562.2    3.563      41.066
2014   11       12    12  41    5.3744   562.0    3.569      41.039
2014   11       12    12  46    5.3755   561.7    3.574      41.013
2014   11       12    12  51    5.3767   561.5    3.580      40.986
2014   11       12    12  56    5.3778   561.2    3.586      40.960
2014   11       12    13   1    5.3789   561.0    3.591      40.933
2014   11       12    13   6    5.3800   560.8    3.597      40.906
2014   11       12    13  12    5.3810   560.5    3.602      40.878
2014   11       12    13  17    5.3821   560.3    3.608      40.850
2014   11       12    13  22    5.3833   560.0    3.613      40.821
2014   11       12    13  27    5.3845   559.8    3.619      40.792
2014   11       12    13  32    5.3857   559.5    3.624      40.763
2014   11       12    13  37    5.3870   559.3    3.630      40.733
2014   11       12    13  43    5.3885   559.1    3.636      40.703
2014   11       12    13  48    5.3898   558.8    3.641      40.673
2014   11       12    13  53    5.3909   558.6    3.647      40.642
2014   11       12    13  58    5.3925   558.4    3.652      40.611
2014   11       12    14   3    5.3936   558.1    3.658      40.579
2014   11       12    14   8    5.3950   557.9    3.663      40.547
2014   11       12    14  13    5.3964   557.7    3.669      40.515
2014   11       12    14  19    5.3981   557.4    3.675      40.482
2014   11       12    14  24    5.3995   557.2    3.680      40.450
2014   11       12    14  29    5.4007   557.0    3.686      40.417
2014   11       12    14  34    5.4022   556.7    3.691      40.384
2014   11       12    14  39    5.4037   556.5    3.696      40.352
2014   11       12    14  44    5.4052   556.3    3.702      40.319
2014   11       12    14  50    5.4071   556.1    3.707      40.286
2014   11       12    14  55    5.4083   555.8    3.712      40.252
2014   11       12    15   0    5.4100   555.6    3.718      40.219
2014   11       12    15   5    5.4119   555.4    3.723      40.185
2014   11       12    15  10    5.4135   555.1    3.728      40.152
2014   11       12    15  15    5.4149   554.9    3.733      40.118
2014   11       12    15  21    5.4169   554.7    3.738      40.084
2014   11       12    15  26    5.4186   554.5    3.742      40.050
2014   11       12    15  31    5.4201   554.2    3.747      40.016
2014   11       12    15  36    5.4219   554.0    3.752      39.981
2014   11       12    15  41    5.4237   553.8    3.757      39.947
2014   11       12    15  46    5.4255   553.6    3.761      39.912
2014   11       12    15  52    5.4277   553.3    3.766      39.877
2014   11       12    15  57    5.4293   553.1    3.770      39.842
2014   11       12    16   2    5.4312   552.9    3.775      39.807
2014   11       12    16   7    5.4335   552.6    3.780      39.772
2014   11       12    16  12    5.4355   552.4    3.784      39.737
2014   11       12    16  17    5.4372   552.2    3.789      39.702
2014   11       12    16  22    5.4396   552.0    3.793      39.667
2014   11       12    16  28    5.4417   551.8    3.798      39.632
2014   11       12    16  33    5.4439   551.5    3.802      39.597
2014   11       12    16  38    5.4458   551.3    3.807      39.563
2014   11       12    16  43    5.4483   551.1    3.811      39.529
2014   11       12    16  48    5.4505   550.9    3.816      39.495
2014   11       12    16  53    5.4526   550.7    3.821      39.461
2014   11       12    16  59    5.4549   550.4    3.825      39.428
2014   11       12    17   4    5.4573   550.2    3.830      39.394
2014   11       12    17   9    5.4600   550.0    3.834      39.361
2014   11       12    17  14    5.4621   549.8    3.839      39.328
2014   11       12    17  19    5.4649   549.6    3.843      39.296
2014   11       12    17  24    5.4674   549.4    3.848      39.264
2014   11       12    17  30    5.4699   549.1    3.853      39.231
2014   11       12    17  35    5.4725   548.9    3.857      39.200
2014   11       12    17  40    5.4752   548.7    3.862      39.168
2014   11       12    17  45    5.4778   548.5    3.867      39.137
2014   11       12    17  50    5.4805   548.3    3.871      39.106
2014   11       12    17  55    5.4833   548.1    3.876      39.075
2014   11       12    18   1    5.4860   547.9    3.881      39.045
2014   11       12    18   6    5.4886   547.7    3.885      39.015
2014   11       12    18  11    5.4917   547.5    3.890      38.985
2014   11       12    18  16    5.4946   547.3    3.895      38.956
2014   11       12    18  21    5.4972   547.1    3.900      38.928
2014   11       12    18  26    5.5004   546.9    3.905      38.899
2014   11       12    18  32    5.5034   546.7    3.910      38.872
2014   11       12    18  37    5.5064   546.5    3.915      38.844
2014   11       12    18  42    5.5095   546.3    3.920      38.818
2014   11       12    18  47    5.5123   546.1    3.925      38.791
2014   11       12    18  52    5.5156   545.9    3.930      38.766
2014   11       12    18  57    5.5185   545.8    3.935      38.740
2014   11       12    19   2    5.5217   545.6    3.940      38.715
2014   11       12    19   8    5.5249   545.4    3.946      38.691
2014   11       12    19  13    5.5283   545.2    3.951      38.667
2014   11       12    19  18    5.5315   545.0    3.956      38.643
2014   11       12    19  23    5.5348   544.9    3.962      38.620
2014   11       12    19  28    5.5378   544.7    3.967      38.598
2014   11       12    19  33    5.5413   544.5    3.972      38.576
2014   11       12    19  39    5.5446   544.3    3.978      38.554
2014   11       12    19  44    5.5476   544.2    3.984      38.533
2014   11       12    19  49    5.5510   544.0    3.989      38.512
2014   11       12    19  54    5.5543   543.8    3.995      38.492
2014   11       12    19  59    5.5578   543.7    4.001      38.472
2014   11       12    20   4    5.5609   543.5    4.007      38.453
2014   11       12    20  10    5.5645   543.4    4.012      38.435
2014   11       12    20  15    5.5678   543.2    4.019      38.417
2014   11       12    20  20    5.5709   543.1    4.025      38.399
2014   11       12    20  25    5.5744   542.9    4.031      38.382
2014   11       12    20  30    5.5776   542.7    4.037      38.366
2014   11       12    20  35    5.5811   542.6    4.044      38.350
2014   11       12    20  41    5.5843   542.5    4.050      38.335
2014   11       12    20  46    5.5878   542.3    4.057      38.321
2014   11       12    20  51    5.5911   542.2    4.064      38.307
2014   11       12    20  56    5.5942   542.0    4.071      38.294
2014   11       12    21   1    5.5977   541.9    4.078      38.282
2014   11       12    21   6    5.6009   541.8    4.085      38.271
2014   11       12    21  12    5.6042   541.6    4.093      38.261
2014   11       12    21  17    5.6077   541.5    4.101      38.252
2014   11       12    21  22    5.6109   541.4    4.108      38.243
2014   11       12    21  27    5.6142   541.2    4.117      38.235
2014   11       12    21  32    5.6176   541.1    4.125      38.229
2014   11       12    21  37    5.6210   541.0    4.133      38.224
2014   11       12    21  42    5.6242   540.9    4.142      38.220
2014   11       12    21  48    5.6275   540.7    4.151      38.218
2014   11       12    21  53    5.6310   540.6    4.160      38.216
2014   11       12    21  58    5.6342   540.5    4.169      38.216
2014   11       12    22   3    5.6376   540.4    4.178      38.217
2014   11       12    22   8    5.6411   540.3    4.187      38.220
2014   11       12    22  13    5.6444   540.2    4.197      38.223
2014   11       12    22  19    5.6478   540.1    4.206      38.228
2014   11       12    22  24    5.6513   540.0    4.216      38.234
2014   11       12    22  29    5.6546   539.9    4.225      38.240
2014   11       12    22  34    5.6582   539.8    4.234      38.247
2014   11       12    22  39    5.6614   539.7    4.244      38.253
2014   11       12    22  44    5.6649   539.6    4.253      38.260
2014   11       12    22  50    5.6683   539.5    4.262      38.267
2014   11       12    22  55    5.6719   539.4    4.271      38.273
2014   11       12    23   0    5.6752   539.3    4.280      38.280
2014   11       12    23   5    5.6787   539.2    4.288      38.286
2014   11       12    23  10    5.6820   539.1    4.297      38.292
2014   11       12    23  15    5.6856   539.1    4.305      38.297
2014   11       12    23  21    5.6890   539.0    4.313      38.302
2014   11       12    23  26    5.6925   538.9    4.321      38.306
2014   11       12    23  31    5.6958   538.8    4.329      38.310
2014   11       12    23  36    5.6994   538.7    4.336      38.313
2014   11       12    23  41    5.7027   538.7    4.344      38.316
2014   11       12    23  46    5.7063   538.6    4.351      38.319
2014   11       12    23  51    5.7098   538.5    4.358      38.322
2014   11       12    23  57    5.7132   538.4    4.365      38.324
2014   11       13     0   2    5.7167   538.3    4.372      38.325
2014   11       13     0   7    5.7204   538.3    4.378      38.326
2014   11       13     0  12    5.7239   538.2    4.384      38.327
2014   11       13     0  17    5.7274   538.1    4.390      38.327
2014   11       13     0  22    5.7310   538.1    4.396      38.326
2014   11       13     0  28    5.7346   538.0    4.402      38.325
2014   11       13     0  33    5.7381   537.9    4.407      38.322
2014   11       13     0  38    5.7417   537.8    4.412      38.320
2014   11       13     0  43    5.7452   537.8    4.417      38.316
2014   11       13     0  48    5.7489   537.7    4.422      38.312
2014   11       13     0  53    5.7525   537.6    4.426      38.306
2014   11       13     0  59    5.7560   537.6    4.431      38.300
2014   11       13     1   4    5.7598   537.5    4.435      38.294
2014   11       13     1   9    5.7634   537.4    4.439      38.286
2014   11       13     1  14    5.7670   537.4    4.443      38.278
2014   11       13     1  19    5.7706   537.3    4.446      38.269
2014   11       13     1  24    5.7743   537.3    4.450      38.259
2014   11       13     1  30    5.7780   537.2    4.453      38.249
2014   11       13     1  35    5.7815   537.1    4.457      38.239
2014   11       13     1  40    5.7853   537.1    4.460      38.227
2014   11       13     1  45    5.7889   537.0    4.463      38.216
2014   11       13     1  50    5.7925   536.9    4.466      38.204
2014   11       13     1  55    5.7963   536.9    4.468      38.192
2014   11       13     2   1    5.7999   536.8    4.471      38.179
2014   11       13     2   6    5.8035   536.8    4.474      38.166
2014   11       13     2  11    5.8073   536.7    4.476      38.153
2014   11       13     2  16    5.8109   536.6    4.479      38.139
2014   11       13     2  21    5.8146   536.6    4.481      38.125
2014   11       13     2  26    5.8182   536.5    4.484      38.111
2014   11       13     2  31    5.8219   536.5    4.486      38.097
2014   11       13     2  37    5.8255   536.4    4.488      38.083
2014   11       13     2  42    5.8291   536.3    4.490      38.069
2014   11       13     2  47    5.8327   536.3    4.493      38.055
2014   11       13     2  52    5.8363   536.2    4.495      38.041
2014   11       13     2  57    5.8399   536.2    4.497      38.027
2014   11       13     3   2    5.8434   536.1    4.499      38.013
2014   11       13     3   8    5.8469   536.0    4.501      38.000
2014   11       13     3  13    5.8504   536.0    4.504      37.986
2014   11       13     3  18    5.8540   535.9    4.506      37.973
2014   11       13     3  23    5.8574   535.9    4.508      37.961
2014   11       13     3  28    5.8609   535.8    4.510      37.949
2014   11       13     3  33    5.8643   535.8    4.513      37.937
2014   11       13     3  39    5.8677   535.7    4.515      37.926
2014   11       13     3  44    5.8712   535.6    4.518      37.916
2014   11       13     3  49    5.8746   535.6    4.520      37.906
2014   11       13     3  54    5.8778   535.5    4.523      37.897
2014   11       13     3  59    5.8812   535.5    4.526      37.889
2014   11       13     4   4    5.8844   535.4    4.529      37.882
2014   11       13     4  10    5.8877   535.4    4.532      37.875
2014   11       13     4  15    5.8910   535.3    4.535      37.870
2014   11       13     4  20    5.8944   535.3    4.539      37.866
2014   11       13     4  25    5.8976   535.2    4.543      37.863
2014   11       13     4  30    5.9008   535.2    4.546      37.861
2014   11       13     4  35    5.9040   535.1    4.550      37.860
2014   11       13     4  41    5.9072   535.1    4.555      37.861
2014   11       13     4  46    5.9104   535.0    4.559      37.863
2014   11       13     4  51    5.9134   535.0    4.564      37.867
2014   11       13     4  56    5.9166   535.0    4.569      37.872
2014   11       13     5   1    5.9199   534.9    4.574      37.878
2014   11       13     5   6    5.9230   534.9    4.580      37.886
2014   11       13     5  11    5.9260   534.8    4.586      37.896
2014   11       13     5  17    5.9293   534.8    4.592      37.908
2014   11       13     5  22    5.9324   534.8    4.598      37.921
2014   11       13     5  27    5.9353   534.7    4.605      37.936
2014   11       13     5  32    5.9384   534.7    4.611      37.952
2014   11       13     5  37    5.9415   534.7    4.618      37.970
2014   11       13     5  42    5.9446   534.7    4.626      37.988
2014   11       13     5  48    5.9479   534.6    4.633      38.008
2014   11       13     5  53    5.9509   534.6    4.640      38.028
2014   11       13     5  58    5.9538   534.6    4.648      38.050
2014   11       13     6   3    5.9569   534.6    4.656      38.073
2014   11       13     6   8    5.9599   534.6    4.663      38.097
2014   11       13     6  13    5.9630   534.6    4.671      38.122
2014   11       13     6  19    5.9662   534.5    4.678      38.148
2014   11       13     6  24    5.9690   534.5    4.686      38.173
2014   11       13     6  29    5.9722   534.5    4.693      38.200
2014   11       13     6  34    5.9750   534.5    4.700      38.227
2014   11       13     6  39    5.9782   534.5    4.708      38.254
2014   11       13     6  44    5.9812   534.5    4.715      38.281
2014   11       13     6  50    5.9842   534.5    4.721      38.307
2014   11       13     6  55    5.9870   534.5    4.728      38.334
2014   11       13     7   0    5.9901   534.5    4.735      38.361
2014   11       13     7   5    5.9930   534.5    4.741      38.388
2014   11       13     7  10    5.9959   534.5    4.747      38.413
2014   11       13     7  15    5.9987   534.5    4.753      38.437
2014   11       13     7  20    6.0016   534.5    4.758      38.461
2014   11       13     7  26    6.0045   534.5    4.763      38.485
2014   11       13     7  31    6.0075   534.5    4.769      38.508
2014   11       13     7  36    6.0104   534.5    4.773      38.530
2014   11       13     7  41    6.0132   534.5    4.778      38.552
2014   11       13     7  46    6.0162   534.6    4.782      38.572
2014   11       13     7  51    6.0191   534.6    4.786      38.593
2014   11       13     7  57    6.0218   534.6    4.790      38.611
2014   11       13     8   2    6.0247   534.6    4.794      38.630
2014   11       13     8   7    6.0277   534.6    4.797      38.647
2014   11       13     8  12    6.0305   534.6    4.800      38.663
2014   11       13     8  17    6.0333   534.6    4.803      38.678
2014   11       13     8  22    6.0362   534.6    4.806      38.692
2014   11       13     8  28    6.0392   534.6    4.808      38.706
2014   11       13     8  33    6.0420   534.6    4.810      38.718
2014   11       13     8  38    6.0447   534.6    4.812      38.729
2014   11       13     8  43    6.0476   534.6    4.814      38.739
2014   11       13     8  48    6.0505   534.6    4.816      38.748
2014   11       13     8  53    6.0533   534.6    4.817      38.756
2014   11       13     8  59    6.0560   534.6    4.818      38.763
2014   11       13     9   4    6.0588   534.6    4.819      38.770
2014   11       13     9   9    6.0616   534.6    4.820      38.775
2014   11       13     9  14    6.0644   534.6    4.821      38.780
2014   11       13     9  19    6.0672   534.6    4.822      38.785
2014   11       13     9  24    6.0699   534.6    4.823      38.788
2014   11       13     9  29    6.0726   534.6    4.823      38.791
2014   11       13     9  35    6.0754   534.6    4.824      38.794
2014   11       13     9  40    6.0781   534.6    4.824      38.796
2014   11       13     9  45    6.0809   534.6    4.824      38.797
2014   11       13     9  50    6.0835   534.6    4.824      38.798
2014   11       13     9  55    6.0862   534.6    4.825      38.799
2014   11       13    10   0    6.0888   534.6    4.825      38.800
2014   11       13    10   6    6.0914   534.6    4.825      38.800
2014   11       13    10  11    6.0941   534.6    4.825      38.799
2014   11       13    10  16    6.0967   534.6    4.824      38.799
2014   11       13    10  21    6.0993   534.6    4.824      38.798
2014   11       13    10  26    6.1018   534.6    4.824      38.797
2014   11       13    10  31    6.1044   534.6    4.824      38.796
2014   11       13    10  37    6.1069   534.6    4.824      38.795
2014   11       13    10  42    6.1094   534.6    4.823      38.794
2014   11       13    10  47    6.1118   534.6    4.823      38.792
2014   11       13    10  52    6.1143   534.6    4.823      38.791
2014   11       13    10  57    6.1167   534.6    4.822      38.790
2014   11       13    11   2    6.1190   534.6    4.822      38.788
2014   11       13    11   8    6.1215   534.6    4.822      38.787
2014   11       13    11  13    6.1238   534.6    4.822      38.786
2014   11       13    11  18    6.1261   534.6    4.822      38.786
2014   11       13    11  23    6.1285   534.6    4.821      38.785
2014   11       13    11  28    6.1307   534.6    4.821      38.785
2014   11       13    11  33    6.1330   534.6    4.821      38.785
2014   11       13    11  39    6.1352   534.6    4.822      38.786
2014   11       13    11  44    6.1375   534.6    4.822      38.787
2014   11       13    11  49    6.1396   534.6    4.822      38.789
2014   11       13    11  54    6.1419   534.6    4.823      38.791
2014   11       13    11  59    6.1441   534.6    4.823      38.794
2014   11       13    12   4    6.1464   534.6    4.824      38.798
2014   11       13    12   9    6.1484   534.6    4.825      38.803
2014   11       13    12  15    6.1506   534.6    4.826      38.808
2014   11       13    12  20    6.1527   534.6    4.827      38.814
2014   11       13    12  25    6.1549   534.6    4.828      38.822
2014   11       13    12  30    6.1571   534.6    4.830      38.830
2014   11       13    12  35    6.1592   534.6    4.832      38.840
2014   11       13    12  40    6.1615   534.6    4.834      38.850
2014   11       13    12  46    6.1637   534.6    4.836      38.861
2014   11       13    12  51    6.1657   534.6    4.839      38.874
2014   11       13    12  56    6.1680   534.6    4.842      38.888
2014   11       13    13   1    6.1701   534.7    4.845      38.905
2014   11       13    13   6    6.1722   534.7    4.848      38.922
2014   11       13    13  11    6.1744   534.7    4.851      38.942
2014   11       13    13  17    6.1766   534.7    4.855      38.963
2014   11       13    13  22    6.1789   534.7    4.858      38.985
2014   11       13    13  27    6.1810   534.7    4.862      39.009
2014   11       13    13  32    6.1830   534.7    4.866      39.034
2014   11       13    13  37    6.1853   534.7    4.870      39.059
2014   11       13    13  42    6.1873   534.8    4.874      39.085
2014   11       13    13  48    6.1895   534.8    4.878      39.113
2014   11       13    13  53    6.1916   534.8    4.881      39.141
2014   11       13    13  58    6.1938   534.8    4.885      39.171
2014   11       13    14   3    6.1960   534.8    4.889      39.201
2014   11       13    14   8    6.1980   534.9    4.893      39.231
2014   11       13    14  13    6.2001   534.9    4.897      39.263
2014   11       13    14  19    6.2023   534.9    4.901      39.295
2014   11       13    14  24    6.2045   534.9    4.905      39.328
2014   11       13    14  29    6.2066   534.9    4.908      39.361
2014   11       13    14  34    6.2086   535.0    4.912      39.395
2014   11       13    14  39    6.2108   535.0    4.915      39.428
2014   11       13    14  44    6.2128   535.0    4.919      39.462
2014   11       13    14  49    6.2150   535.1    4.922      39.495
2014   11       13    14  55    6.2169   535.1    4.925      39.528
2014   11       13    15   0    6.2190   535.1    4.928      39.561
2014   11       13    15   5    6.2211   535.1    4.930      39.593
2014   11       13    15  10    6.2231   535.2    4.933      39.625
2014   11       13    15  15    6.2252   535.2    4.935      39.656
2014   11       13    15  20    6.2271   535.2    4.937      39.686
2014   11       13    15  26    6.2291   535.2    4.939      39.715
2014   11       13    15  31    6.2311   535.3    4.941      39.743
2014   11       13    15  36    6.2332   535.3    4.943      39.771
2014   11       13    15  41    6.2352   535.3    4.945      39.798
2014   11       13    15  46    6.2373   535.3    4.947      39.825
2014   11       13    15  51    6.2392   535.4    4.948      39.851
2014   11       13    15  57    6.2412   535.4    4.949      39.877
2014   11       13    16   2    6.2433   535.4    4.951      39.902
2014   11       13    16   7    6.2451   535.4    4.952      39.927
2014   11       13    16  12    6.2471   535.5    4.953      39.951
2014   11       13    16  17    6.2491   535.5    4.954      39.974
2014   11       13    16  22    6.2511   535.5    4.954      39.997
2014   11       13    16  28    6.2529   535.5    4.955      40.019
2014   11       13    16  33    6.2548   535.6    4.956      40.040
2014   11       13    16  38    6.2567   535.6    4.956      40.061
2014   11       13    16  43    6.2587   535.6    4.956      40.081
2014   11       13    16  48    6.2605   535.6    4.956      40.101
2014   11       13    16  53    6.2622   535.7    4.956      40.119
2014   11       13    16  59    6.2640   535.7    4.956      40.137
2014   11       13    17   4    6.2657   535.7    4.956      40.154
2014   11       13    17   9    6.2675   535.7    4.956      40.170
2014   11       13    17  14    6.2693   535.8    4.956      40.186
2014   11       13    17  19    6.2708   535.8    4.955      40.201
2014   11       13    17  24    6.2726   535.8    4.955      40.216
2014   11       13    17  29    6.2742   535.8    4.954      40.230
2014   11       13    17  35    6.2757   535.9    4.954      40.243
2014   11       13    17  40    6.2773   535.9    4.953      40.256
2014   11       13    17  45    6.2788   535.9    4.952      40.268
2014   11       13    17  50    6.2805   535.9    4.952      40.280
2014   11       13    17  55    6.2820   536.0    4.951      40.292
2014   11       13    18   0    6.2835   536.0    4.950      40.303
2014   11       13    18   6    6.2849   536.0    4.949      40.313
2014   11       13    18  11    6.2864   536.0    4.948      40.324
2014   11       13    18  16    6.2877   536.1    4.947      40.334
2014   11       13    18  21    6.2891   536.1    4.946      40.343
2014   11       13    18  26    6.2906   536.1    4.945      40.353
2014   11       13    18  31    6.2918   536.1    4.944      40.362
2014   11       13    18  37    6.2933   536.2    4.943      40.371
2014   11       13    18  42    6.2945   536.2    4.942      40.380
2014   11       13    18  47    6.2958   536.2    4.941      40.388
2014   11       13    18  52    6.2971   536.2    4.940      40.397
2014   11       13    18  57    6.2985   536.3    4.939      40.405
2014   11       13    19   2    6.2997   536.3    4.938      40.413
2014   11       13    19   8    6.3008   536.3    4.937      40.421
2014   11       13    19  13    6.3021   536.3    4.937      40.430
2014   11       13    19  18    6.3033   536.4    4.936      40.438
2014   11       13    19  23    6.3045   536.4    4.935      40.447
2014   11       13    19  28    6.3057   536.4    4.934      40.455
2014   11       13    19  33    6.3070   536.4    4.934      40.464
2014   11       13    19  38    6.3081   536.5    4.933      40.473
2014   11       13    19  44    6.3092   536.5    4.933      40.482
2014   11       13    19  49    6.3106   536.5    4.932      40.491
2014   11       13    19  54    6.3117   536.5    4.932      40.501
2014   11       13    19  59    6.3127   536.6    4.932      40.511
2014   11       13    20   4    6.3139   536.6    4.932      40.522
2014   11       13    20   9    6.3152   536.6    4.932      40.532
2014   11       13    20  15    6.3163   536.6    4.932      40.544
2014   11       13    20  20    6.3174   536.7    4.932      40.555
2014   11       13    20  25    6.3185   536.7    4.933      40.567
2014   11       13    20  30    6.3198   536.7    4.933      40.580
2014   11       13    20  35    6.3210   536.8    4.934      40.593
2014   11       13    20  40    6.3221   536.8    4.935      40.606
2014   11       13    20  46    6.3233   536.8    4.936      40.620
2014   11       13    20  51    6.3243   536.9    4.937      40.635
2014   11       13    20  56    6.3254   536.9    4.938      40.651
2014   11       13    21   1    6.3267   536.9    4.939      40.667
2014   11       13    21   6    6.3277   537.0    4.941      40.685
2014   11       13    21  11    6.3290   537.0    4.942      40.703
2014   11       13    21  17    6.3302   537.0    4.944      40.723
2014   11       13    21  22    6.3312   537.1    4.945      40.742
2014   11       13    21  27    6.3324   537.1    4.947      40.763
2014   11       13    21  32    6.3335   537.1    4.949      40.784
2014   11       13    21  37    6.3347   537.2    4.951      40.807
2014   11       13    21  42    6.3357   537.2    4.953      40.830
2014   11       13    21  47    6.3369   537.3    4.955      40.854
2014   11       13    21  53    6.3380   537.3    4.957      40.880
2014   11       13    21  58    6.3391   537.3    4.958      40.906
2014   11       13    22   3    6.3402   537.4    4.960      40.932
2014   11       13    22   8    6.3415   537.4    4.962      40.960
2014   11       13    22  13    6.3426   537.4    4.964      40.988
2014   11       13    22  18    6.3436   537.5    4.966      41.016
2014   11       13    22  24    6.3447   537.5    4.968      41.045
2014   11       13    22  29    6.3459   537.5    4.970      41.074
2014   11       13    22  34    6.3469   537.6    4.971      41.104
2014   11       13    22  39    6.3480   537.6    4.973      41.135
2014   11       13    22  44    6.3492   537.6    4.975      41.166
2014   11       13    22  49    6.3503   537.7    4.976      41.197
2014   11       13    22  55    6.3513   537.7    4.978      41.229
2014   11       13    23   0    6.3524   537.8    4.979      41.261
2014   11       13    23   5    6.3535   537.8    4.980      41.293
2014   11       13    23  10    6.3546   537.8    4.981      41.325
2014   11       13    23  15    6.3557   537.9    4.982      41.357
2014   11       13    23  20    6.3568   537.9    4.983      41.389
2014   11       13    23  26    6.3578   538.0    4.984      41.420
2014   11       13    23  31    6.3589   538.0    4.984      41.451
2014   11       13    23  36    6.3598   538.1    4.985      41.482
2014   11       13    23  41    6.3607   538.1    4.985      41.512
2014   11       13    23  46    6.3617   538.2    4.985      41.541
2014   11       13    23  51    6.3625   538.2    4.985      41.569
2014   11       13    23  57    6.3633   538.2    4.984      41.597
2014   11       14     0   2    6.3643   538.3    4.984      41.623
2014   11       14     0   7    6.3651   538.3    4.983      41.649
2014   11       14     0  12    6.3658   538.4    4.983      41.674
2014   11       14     0  17    6.3666   538.4    4.982      41.697
2014   11       14     0  22    6.3673   538.5    4.981      41.720
2014   11       14     0  27    6.3678   538.5    4.980      41.742
2014   11       14     0  33    6.3685   538.6    4.978      41.763
2014   11       14     0  38    6.3691   538.6    4.977      41.783
2014   11       14     0  43    6.3697   538.7    4.975      41.803
2014   11       14     0  48    6.3703   538.7    4.974      41.821
2014   11       14     0  53    6.3707   538.7    4.972      41.839
2014   11       14     0  58    6.3713   538.8    4.970      41.856
2014   11       14     1   4    6.3718   538.8    4.968      41.872
2014   11       14     1   9    6.3723   538.9    4.966      41.887
2014   11       14     1  14    6.3727   538.9    4.964      41.902
2014   11       14     1  19    6.3730   539.0    4.962      41.916
2014   11       14     1  24    6.3734   539.0    4.960      41.929
2014   11       14     1  29    6.3736   539.0    4.958      41.941
2014   11       14     1  35    6.3741   539.1    4.955      41.953
2014   11       14     1  40    6.3742   539.1    4.953      41.964
2014   11       14     1  45    6.3745   539.2    4.951      41.974
2014   11       14     1  50    6.3749   539.2    4.948      41.984
2014   11       14     1  55    6.3751   539.2    4.946      41.993
2014   11       14     2   0    6.3753   539.3    4.943      42.001
2014   11       14     2   6    6.3754   539.3    4.940      42.009
2014   11       14     2  11    6.3755   539.3    4.938      42.017
2014   11       14     2  16    6.3757   539.4    4.935      42.024
2014   11       14     2  21    6.3759   539.4    4.933      42.030
2014   11       14     2  26    6.3759   539.4    4.930      42.036
2014   11       14     2  31    6.3761   539.5    4.927      42.042
2014   11       14     2  37    6.3761   539.5    4.925      42.047
2014   11       14     2  42    6.3762   539.5    4.922      42.052
2014   11       14     2  47    6.3762   539.6    4.920      42.056
2014   11       14     2  52    6.3764   539.6    4.917      42.060
2014   11       14     2  57    6.3763   539.6    4.915      42.064
2014   11       14     3   2    6.3763   539.6    4.912      42.068
2014   11       14     3   7    6.3763   539.7    4.910      42.071
2014   11       14     3  13    6.3764   539.7    4.907      42.073
2014   11       14     3  18    6.3763   539.7    4.905      42.076
2014   11       14     3  23    6.3763   539.7    4.903      42.078
2014   11       14     3  28    6.3763   539.7    4.901      42.080
2014   11       14     3  33    6.3763   539.8    4.899      42.082
2014   11       14     3  38    6.3764   539.8    4.897      42.084
2014   11       14     3  44    6.3764   539.8    4.895      42.086
2014   11       14     3  49    6.3764   539.8    4.894      42.088
2014   11       14     3  54    6.3763   539.8    4.892      42.090
2014   11       14     3  59    6.3765   539.8    4.891      42.092
2014   11       14     4   4    6.3766   539.8    4.890      42.095
2014   11       14     4   9    6.3766   539.8    4.889      42.098
2014   11       14     4  15    6.3768   539.8    4.889      42.102
2014   11       14     4  20    6.3771   539.9    4.889      42.107
2014   11       14     4  25    6.3773   539.9    4.889      42.112
2014   11       14     4  30    6.3777   539.9    4.889      42.118
2014   11       14     4  35    6.3781   539.9    4.890      42.127
2014   11       14     4  40    6.3784   539.9    4.891      42.137
2014   11       14     4  46    6.3790   539.9    4.892      42.149
2014   11       14     4  51    6.3795   539.9    4.894      42.163
2014   11       14     4  56    6.3799   539.9    4.895      42.178
2014   11       14     5   1    6.3805   539.9    4.897      42.195
2014   11       14     5   6    6.3811   540.0    4.899      42.213
2014   11       14     5  11    6.3816   540.0    4.900      42.232
2014   11       14     5  17    6.3822   540.0    4.902      42.251
2014   11       14     5  22    6.3827   540.1    4.903      42.271
2014   11       14     5  27    6.3833   540.1    4.904      42.291
2014   11       14     5  32    6.3837   540.1    4.906      42.311
2014   11       14     5  37    6.3842   540.1    4.907      42.332
2014   11       14     5  42    6.3845   540.2    4.907      42.352
2014   11       14     5  47    6.3849   540.2    4.908      42.371
2014   11       14     5  53    6.3852   540.3    4.908      42.390
2014   11       14     5  58    6.3854   540.3    4.908      42.408
2014   11       14     6   3    6.3856   540.3    4.908      42.425
2014   11       14     6   8    6.3857   540.4    4.908      42.442
2014   11       14     6  13    6.3858   540.4    4.907      42.457
2014   11       14     6  18    6.3859   540.4    4.906      42.472
2014   11       14     6  24    6.3858   540.5    4.905      42.486
2014   11       14     6  29    6.3857   540.5    4.904      42.499
2014   11       14     6  34    6.3857   540.5    4.902      42.511
2014   11       14     6  39    6.3855   540.5    4.901      42.523
2014   11       14     6  44    6.3854   540.6    4.899      42.534
2014   11       14     6  49    6.3852   540.6    4.897      42.544
2014   11       14     6  55    6.3849   540.6    4.895      42.553
2014   11       14     7   0    6.3847   540.7    4.893      42.562
2014   11       14     7   5    6.3845   540.7    4.891      42.569
2014   11       14     7  10    6.3841   540.7    4.888      42.577
2014   11       14     7  15    6.3837   540.7    4.886      42.583
2014   11       14     7  20    6.3833   540.8    4.883      42.589
2014   11       14     7  26    6.3830   540.8    4.881      42.594
2014   11       14     7  31    6.3825   540.8    4.878      42.599
2014   11       14     7  36    6.3822   540.8    4.875      42.604
2014   11       14     7  41    6.3817   540.8    4.872      42.608
2014   11       14     7  46    6.3811   540.9    4.870      42.612
2014   11       14     7  51    6.3807   540.9    4.867      42.615
2014   11       14     7  56    6.3801   540.9    4.864      42.617
2014   11       14     8   2    6.3795   540.9    4.860      42.620
2014   11       14     8   7    6.3789   540.9    4.857      42.622
2014   11       14     8  12    6.3782   541.0    4.854      42.623
2014   11       14     8  17    6.3776   541.0    4.851      42.624
2014   11       14     8  22    6.3768   541.0    4.848      42.625
2014   11       14     8  27    6.3761   541.0    4.845      42.625
2014   11       14     8  33    6.3754   541.0    4.841      42.625
2014   11       14     8  38    6.3747   541.0    4.838      42.625
2014   11       14     8  43    6.3739   541.0    4.835      42.624
2014   11       14     8  48    6.3732   541.0    4.831      42.623
2014   11       14     8  53    6.3724   541.1    4.828      42.622
2014   11       14     8  58    6.3716   541.1    4.825      42.621
2014   11       14     9   4    6.3710   541.1    4.822      42.620
2014   11       14     9   9    6.3702   541.1    4.818      42.618
2014   11       14     9  14    6.3694   541.1    4.815      42.617
2014   11       14     9  19    6.3686   541.1    4.812      42.616
2014   11       14     9  24    6.3680   541.1    4.809      42.615
2014   11       14     9  29    6.3673   541.1    4.806      42.614
2014   11       14     9  35    6.3665   541.1    4.803      42.613
2014   11       14     9  40    6.3658   541.1    4.799      42.612
2014   11       14     9  45    6.3651   541.1    4.796      42.611
2014   11       14     9  50    6.3644   541.1    4.793      42.610
2014   11       14     9  55    6.3637   541.1    4.790      42.609
2014   11       14    10   0    6.3630   541.1    4.787      42.608
2014   11       14    10   6    6.3623   541.1    4.784      42.606
2014   11       14    10  11    6.3617   541.1    4.781      42.604
2014   11       14    10  16    6.3610   541.1    4.778      42.602
2014   11       14    10  21    6.3603   541.0    4.775      42.599
2014   11       14    10  26    6.3596   541.0    4.772      42.596
2014   11       14    10  31    6.3589   541.0    4.769      42.593
2014   11       14    10  36    6.3582   541.0    4.767      42.588
2014   11       14    10  42    6.3575   541.0    4.764      42.584
2014   11       14    10  47    6.3568   540.9    4.761      42.579
2014   11       14    10  52    6.3561   540.9    4.758      42.574
2014   11       14    10  57    6.3555   540.9    4.756      42.568
2014   11       14    11   2    6.3548   540.8    4.753      42.562
2014   11       14    11   7    6.3541   540.8    4.751      42.555
2014   11       14    11  13    6.3535   540.8    4.749      42.549
2014   11       14    11  18    6.3529   540.7    4.747      42.542
2014   11       14    11  23    6.3523   540.7    4.745      42.536
2014   11       14    11  28    6.3517   540.6    4.743      42.530
2014   11       14    11  33    6.3513   540.6    4.742      42.523
2014   11       14    11  38    6.3508   540.5    4.741      42.518
2014   11       14    11  44    6.3505   540.5    4.740      42.513
2014   11       14    11  49    6.3501   540.4    4.739      42.510
2014   11       14    11  54    6.3499   540.4    4.738      42.507
2014   11       14    11  59    6.3496   540.4    4.738      42.506
2014   11       14    12   4    6.3495   540.3    4.737      42.505
2014   11       14    12   9    6.3494   540.3    4.737      42.505
2014   11       14    12  15    6.3494   540.2    4.737      42.505
2014   11       14    12  20    6.3493   540.2    4.737      42.507
2014   11       14    12  25    6.3494   540.2    4.737      42.510
2014   11       14    12  30    6.3493   540.1    4.737      42.513
2014   11       14    12  35    6.3494   540.1    4.737      42.517
2014   11       14    12  40    6.3495   540.1    4.737      42.522
2014   11       14    12  46    6.3495   540.1    4.736      42.527
2014   11       14    12  51    6.3495   540.0    4.736      42.532
2014   11       14    12  56    6.3494   540.0    4.735      42.536
2014   11       14    13   1    6.3493   540.0    4.734      42.539
2014   11       14    13   6    6.3493   540.0    4.733      42.541
2014   11       14    13  11    6.3490   540.0    4.731      42.543
2014   11       14    13  16    6.3488   539.9    4.730      42.544
2014   11       14    13  22    6.3485   539.9    4.728      42.544
2014   11       14    13  27    6.3481   539.9    4.726      42.544
2014   11       14    13  32    6.3478   539.9    4.724      42.542
2014   11       14    13  37    6.3472   539.9    4.721      42.538
2014   11       14    13  42    6.3467   539.8    4.719      42.534
2014   11       14    13  47    6.3461   539.8    4.716      42.528
2014   11       14    13  53    6.3455   539.8    4.714      42.521
2014   11       14    13  58    6.3448   539.8    4.711      42.514
2014   11       14    14   3    6.3441   539.7    4.708      42.505
2014   11       14    14   8    6.3432   539.7    4.705      42.496
2014   11       14    14  13    6.3424   539.7    4.702      42.486
2014   11       14    14  18    6.3415   539.6    4.699      42.475
2014   11       14    14  24    6.3406   539.6    4.696      42.464
2014   11       14    14  29    6.3397   539.6    4.693      42.452
2014   11       14    14  34    6.3388   539.5    4.690      42.440
2014   11       14    14  39    6.3377   539.5    4.687      42.428
2014   11       14    14  44    6.3367   539.4    4.683      42.415
2014   11       14    14  49    6.3357   539.4    4.680      42.401
2014   11       14    14  55    6.3345   539.4    4.677      42.388
2014   11       14    15   0    6.3334   539.3    4.674      42.374
2014   11       14    15   5    6.3323   539.3    4.671      42.361
2014   11       14    15  10    6.3311   539.2    4.668      42.346
2014   11       14    15  15    6.3299   539.1    4.666      42.332
2014   11       14    15  20    6.3288   539.1    4.663      42.318
2014   11       14    15  26    6.3276   539.0    4.660      42.303
2014   11       14    15  31    6.3264   539.0    4.657      42.288
2014   11       14    15  36    6.3251   538.9    4.655      42.273
2014   11       14    15  41    6.3238   538.8    4.652      42.258
2014   11       14    15  46    6.3226   538.8    4.650      42.243
2014   11       14    15  51    6.3215   538.7    4.648      42.228
2014   11       14    15  56    6.3203   538.6    4.646      42.213
2014   11       14    16   2    6.3190   538.5    4.644      42.199
2014   11       14    16   7    6.3180   538.4    4.642      42.185
2014   11       14    16  12    6.3169   538.3    4.641      42.172
2014   11       14    16  17    6.3158   538.3    4.640      42.160
2014   11       14    16  22    6.3148   538.2    4.639      42.149
2014   11       14    16  27    6.3140   538.1    4.638      42.139
2014   11       14    16  33    6.3132   538.0    4.637      42.131
2014   11       14    16  38    6.3124   537.9    4.637      42.123
2014   11       14    16  43    6.3117   537.8    4.637      42.117
2014   11       14    16  48    6.3112   537.7    4.637      42.112
2014   11       14    16  53    6.3107   537.6    4.637      42.108
2014   11       14    16  58    6.3103   537.5    4.637      42.106
2014   11       14    17   4    6.3100   537.4    4.638      42.105
2014   11       14    17   9    6.3097   537.3    4.639      42.105
2014   11       14    17  14    6.3096   537.3    4.640      42.106
2014   11       14    17  19    6.3095   537.2    4.641      42.108
2014   11       14    17  24    6.3094   537.1    4.642      42.111
2014   11       14    17  29    6.3094   537.0    4.644      42.115
2014   11       14    17  35    6.3094   536.9    4.646      42.120
2014   11       14    17  40    6.3095   536.8    4.647      42.125
2014   11       14    17  45    6.3096   536.8    4.649      42.130
2014   11       14    17  50    6.3096   536.7    4.651      42.134
2014   11       14    17  55    6.3097   536.6    4.652      42.139
2014   11       14    18   0    6.3097   536.5    4.654      42.142
2014   11       14    18   5    6.3098   536.4    4.655      42.145
2014   11       14    18  11    6.3099   536.4    4.656      42.147
2014   11       14    18  16    6.3099   536.3    4.657      42.147
2014   11       14    18  21    6.3100   536.2    4.658      42.148
2014   11       14    18  26    6.3099   536.1    4.659      42.146
2014   11       14    18  31    6.3099   536.1    4.659      42.144
2014   11       14    18  36    6.3100   536.0    4.660      42.140
2014   11       14    18  42    6.3098   535.9    4.660      42.134
2014   11       14    18  47    6.3099   535.8    4.660      42.128
2014   11       14    18  52    6.3098   535.7    4.660      42.120
2014   11       14    18  57    6.3097   535.6    4.659      42.112
2014   11       14    19   2    6.3097   535.5    4.659      42.103
2014   11       14    19   7    6.3097   535.5    4.658      42.093
2014   11       14    19  13    6.3098   535.4    4.658      42.083
2014   11       14    19  18    6.3097   535.3    4.657      42.072
2014   11       14    19  23    6.3098   535.2    4.657      42.062
2014   11       14    19  28    6.3099   535.1    4.656      42.051
2014   11       14    19  33    6.3100   535.0    4.656      42.040
2014   11       14    19  38    6.3101   534.9    4.655      42.031
2014   11       14    19  44    6.3103   534.8    4.654      42.022
2014   11       14    19  49    6.3106   534.7    4.654      42.013
2014   11       14    19  54    6.3108   534.6    4.653      42.005
2014   11       14    19  59    6.3111   534.5    4.652      41.998
2014   11       14    20   4    6.3114   534.4    4.651      41.991
2014   11       14    20   9    6.3117   534.3    4.650      41.984
2014   11       14    20  15    6.3121   534.3    4.649      41.977
2014   11       14    20  20    6.3124   534.2    4.648      41.970
2014   11       14    20  25    6.3128   534.1    4.647      41.963
2014   11       14    20  30    6.3131   534.0    4.645      41.956
2014   11       14    20  35    6.3134   533.9    4.644      41.949
2014   11       14    20  40    6.3137   533.8    4.643      41.941
2014   11       14    20  45    6.3139   533.7    4.641      41.933
2014   11       14    20  51    6.3142   533.6    4.639      41.924
2014   11       14    20  56    6.3144   533.5    4.638      41.914
2014   11       14    21   1    6.3147   533.4    4.636      41.904
2014   11       14    21   6    6.3149   533.3    4.634      41.892
2014   11       14    21  11    6.3152   533.2    4.632      41.881
2014   11       14    21  16    6.3153   533.1    4.631      41.869
2014   11       14    21  22    6.3155   533.0    4.629      41.856
2014   11       14    21  27    6.3156   532.9    4.627      41.843
2014   11       14    21  32    6.3159   532.8    4.626      41.830
2014   11       14    21  37    6.3159   532.7    4.624      41.816
2014   11       14    21  42    6.3161   532.6    4.622      41.802
2014   11       14    21  47    6.3162   532.5    4.621      41.788
2014   11       14    21  53    6.3163   532.4    4.619      41.774
2014   11       14    21  58    6.3164   532.3    4.618      41.759
2014   11       14    22   3    6.3164   532.2    4.616      41.745
2014   11       14    22   8    6.3166   532.1    4.615      41.731
2014   11       14    22  13    6.3167   532.0    4.614      41.717
2014   11       14    22  18    6.3166   531.9    4.613      41.703
2014   11       14    22  24    6.3168   531.7    4.612      41.688
2014   11       14    22  29    6.3168   531.6    4.612      41.675
2014   11       14    22  34    6.3168   531.5    4.611      41.661
2014   11       14    22  39    6.3170   531.4    4.611      41.647
2014   11       14    22  44    6.3170   531.2    4.610      41.633
2014   11       14    22  49    6.3171   531.1    4.610      41.619
2014   11       14    22  55    6.3174   531.0    4.610      41.606
2014   11       14    23   0    6.3175   530.8    4.611      41.593
2014   11       14    23   5    6.3176   530.7    4.611      41.580
2014   11       14    23  10    6.3180   530.6    4.612      41.568
2014   11       14    23  15    6.3182   530.4    4.613      41.557
2014   11       14    23  20    6.3186   530.3    4.614      41.546
2014   11       14    23  25    6.3189   530.1    4.616      41.536
2014   11       14    23  31    6.3195   530.0    4.617      41.526
2014   11       14    23  36    6.3199   529.8    4.619      41.518
2014   11       14    23  41    6.3207   529.7    4.621      41.510
2014   11       14    23  46    6.3212   529.5    4.623      41.502
2014   11       14    23  51    6.3221   529.4    4.625      41.496
2014   11       14    23  56    6.3230   529.2    4.628      41.491
2014   11       15     0   2    6.3237   529.0    4.630      41.486
2014   11       15     0   7    6.3249   528.9    4.633      41.483
2014   11       15     0  12    6.3258   528.7    4.636      41.480
2014   11       15     0  17    6.3270   528.6    4.639      41.479
2014   11       15     0  22    6.3284   528.4    4.643      41.479
2014   11       15     0  27    6.3296   528.3    4.647      41.480
2014   11       15     0  33    6.3312   528.1    4.651      41.482
2014   11       15     0  38    6.3327   528.0    4.655      41.486
2014   11       15     0  43    6.3343   527.8    4.660      41.491
2014   11       15     0  48    6.3358   527.7    4.665      41.497
2014   11       15     0  53    6.3377   527.5    4.670      41.505
2014   11       15     0  58    6.3393   527.4    4.675      41.513
2014   11       15     1   4    6.3414   527.2    4.680      41.522
2014   11       15     1   9    6.3431   527.1    4.686      41.532
2014   11       15     1  14    6.3453   527.0    4.691      41.543
2014   11       15     1  19    6.3473   526.8    4.696      41.555
2014   11       15     1  24    6.3493   526.7    4.702      41.566
2014   11       15     1  29    6.3514   526.6    4.707      41.578
2014   11       15     1  34    6.3534   526.5    4.712      41.590
2014   11       15     1  40    6.3553   526.3    4.717      41.602
2014   11       15     1  45    6.3576   526.2    4.722      41.613
2014   11       15     1  50    6.3595   526.1    4.726      41.623
2014   11       15     1  55    6.3618   526.0    4.731      41.632
2014   11       15     2   0    6.3639   525.8    4.735      41.641
2014   11       15     2   5    6.3660   525.7    4.738      41.648
2014   11       15     2  11    6.3682   525.6    4.742      41.654
2014   11       15     2  16    6.3703   525.5    4.745      41.660
2014   11       15     2  21    6.3721   525.4    4.748      41.665
2014   11       15     2  26    6.3742   525.2    4.751      41.668
2014   11       15     2  31    6.3764   525.1    4.754      41.671
2014   11       15     2  36    6.3785   525.0    4.756      41.672
2014   11       15     2  42    6.3806   524.9    4.758      41.672
2014   11       15     2  47    6.3831   524.7    4.760      41.672
2014   11       15     2  52    6.3853   524.6    4.762      41.670
2014   11       15     2  57    6.3874   524.5    4.764      41.669
2014   11       15     3   2    6.3897   524.3    4.766      41.666
2014   11       15     3   7    6.3919   524.2    4.767      41.663
2014   11       15     3  13    6.3938   524.1    4.769      41.659
2014   11       15     3  18    6.3964   524.0    4.770      41.655
2014   11       15     3  23    6.3984   523.8    4.772      41.650
2014   11       15     3  28    6.4008   523.7    4.773      41.645
2014   11       15     3  33    6.4034   523.6    4.774      41.639
2014   11       15     3  38    6.4058   523.4    4.775      41.634
2014   11       15     3  44    6.4083   523.3    4.776      41.627
2014   11       15     3  49    6.4104   523.1    4.777      41.621
2014   11       15     3  54    6.4130   523.0    4.778      41.614
2014   11       15     3  59    6.4155   522.9    4.779      41.607
2014   11       15     4   4    6.4181   522.7    4.780      41.600
2014   11       15     4   9    6.4211   522.6    4.781      41.592
2014   11       15     4  14    6.4235   522.4    4.782      41.584
2014   11       15     4  20    6.4266   522.3    4.783      41.577
2014   11       15     4  25    6.4295   522.2    4.784      41.569
2014   11       15     4  30    6.4323   522.0    4.786      41.561
2014   11       15     4  35    6.4353   521.9    4.787      41.553
2014   11       15     4  40    6.4382   521.7    4.788      41.546
2014   11       15     4  45    6.4409   521.6    4.790      41.538
2014   11       15     4  51    6.4440   521.4    4.791      41.531
2014   11       15     4  56    6.4471   521.3    4.793      41.524
2014   11       15     5   1    6.4507   521.2    4.795      41.518
2014   11       15     5   6    6.4539   521.0    4.796      41.512
2014   11       15     5  11    6.4568   520.9    4.799      41.507
2014   11       15     5  16    6.4605   520.7    4.801      41.503
2014   11       15     5  22    6.4638   520.6    4.803      41.499
2014   11       15     5  27    6.4668   520.5    4.806      41.497
2014   11       15     5  32    6.4706   520.3    4.809      41.495
2014   11       15     5  37    6.4740   520.2    4.812      41.495
2014   11       15     5  42    6.4775   520.1    4.815      41.497
2014   11       15     5  47    6.4810   520.0    4.818      41.500
2014   11       15     5  53    6.4841   519.9    4.822      41.505
2014   11       15     5  58    6.4881   519.8    4.825      41.511
2014   11       15     6   3    6.4916   519.6    4.829      41.518
2014   11       15     6   8    6.4952   519.5    4.832      41.526
2014   11       15     6  13    6.4984   519.4    4.836      41.536
2014   11       15     6  18    6.5020   519.3    4.840      41.547
2014   11       15     6  24    6.5060   519.2    4.844      41.559
2014   11       15     6  29    6.5093   519.1    4.848      41.572
2014   11       15     6  34    6.5133   519.0    4.852      41.586
2014   11       15     6  39    6.5166   518.9    4.855      41.600
2014   11       15     6  44    6.5207   518.8    4.859      41.614
2014   11       15     6  49    6.5241   518.7    4.863      41.628
2014   11       15     6  54    6.5281   518.6    4.867      41.641
2014   11       15     7   0    6.5315   518.5    4.870      41.655
2014   11       15     7   5    6.5353   518.4    4.874      41.668
2014   11       15     7  10    6.5390   518.3    4.878      41.681
2014   11       15     7  15    6.5432   518.2    4.881      41.694
2014   11       15     7  20    6.5466   518.1    4.885      41.707
2014   11       15     7  25    6.5508   518.0    4.889      41.719
2014   11       15     7  31    6.5546   517.9    4.892      41.731
2014   11       15     7  36    6.5582   517.8    4.896      41.743
2014   11       15     7  41    6.5624   517.7    4.900      41.755
2014   11       15     7  46    6.5660   517.6    4.904      41.768
2014   11       15     7  51    6.5703   517.5    4.908      41.780
2014   11       15     7  56    6.5740   517.4    4.912      41.793
2014   11       15     8   2    6.5783   517.3    4.916      41.806
2014   11       15     8   7    6.5824   517.2    4.921      41.820
2014   11       15     8  12    6.5866   517.1    4.925      41.834
2014   11       15     8  17    6.5908   517.0    4.930      41.849
2014   11       15     8  22    6.5947   516.9    4.935      41.864
2014   11       15     8  27    6.5994   516.8    4.940      41.880
2014   11       15     8  33    6.6035   516.7    4.945      41.897
2014   11       15     8  38    6.6082   516.6    4.950      41.914
2014   11       15     8  43    6.6127   516.5    4.955      41.933
2014   11       15     8  48    6.6169   516.4    4.961      41.953
2014   11       15     8  53    6.6215   516.4    4.966      41.973
2014   11       15     8  58    6.6264   516.3    4.972      41.994
2014   11       15     9   4    6.6308   516.2    4.977      42.016
2014   11       15     9   9    6.6355   516.1    4.983      42.038
2014   11       15     9  14    6.6402   516.0    4.988      42.060
2014   11       15     9  19    6.6453   516.0    4.993      42.082
2014   11       15     9  24    6.6498   515.9    4.999      42.105
2014   11       15     9  29    6.6549   515.8    5.004      42.127
2014   11       15     9  34    6.6598   515.7    5.009      42.150
2014   11       15     9  40    6.6643   515.7    5.015      42.173
2014   11       15     9  45    6.6696   515.6    5.020      42.196
2014   11       15     9  50    6.6745   515.5    5.025      42.218
2014   11       15     9  55    6.6795   515.4    5.030      42.240
2014   11       15    10   0    6.6842   515.4    5.035      42.263
2014   11       15    10   5    6.6895   515.3    5.040      42.285
2014   11       15    10  11    6.6946   515.2    5.045      42.307
2014   11       15    10  16    6.6994   515.2    5.050      42.330
2014   11       15    10  21    6.7044   515.1    5.054      42.352
2014   11       15    10  26    6.7099   515.0    5.059      42.375
2014   11       15    10  31    6.7147   515.0    5.064      42.398
2014   11       15    10  36    6.7201   514.9    5.069      42.421
2014   11       15    10  42    6.7252   514.8    5.074      42.444
2014   11       15    10  47    6.7301   514.8    5.079      42.467
2014   11       15    10  52    6.7353   514.7    5.084      42.490
2014   11       15    10  57    6.7405   514.7    5.088      42.514
2014   11       15    11   2    6.7459   514.6    5.093      42.538
2014   11       15    11   7    6.7512   514.5    5.098      42.562
2014   11       15    11  13    6.7561   514.5    5.103      42.585
2014   11       15    11  18    6.7616   514.4    5.108      42.609
2014   11       15    11  23    6.7666   514.3    5.113      42.634
2014   11       15    11  28    6.7722   514.3    5.118      42.658
2014   11       15    11  33    6.7775   514.2    5.122      42.682
2014   11       15    11  38    6.7825   514.2    5.127      42.707
2014   11       15    11  44    6.7881   514.1    5.132      42.732
2014   11       15    11  49    6.7933   514.1    5.137      42.757
2014   11       15    11  54    6.7988   514.0    5.142      42.782
2014   11       15    11  59    6.8041   513.9    5.147      42.808
2014   11       15    12   4    6.8095   513.9    5.152      42.834
2014   11       15    12   9    6.8152   513.8    5.158      42.860
2014   11       15    12  14    6.8205   513.8    5.163      42.887
2014   11       15    12  20    6.8261   513.7    5.168      42.915
2014   11       15    12  25    6.8317   513.7    5.174      42.944
2014   11       15    12  30    6.8375   513.6    5.180      42.973
2014   11       15    12  35    6.8430   513.6    5.186      43.003
2014   11       15    12  40    6.8489   513.5    5.192      43.034
2014   11       15    12  45    6.8547   513.5    5.198      43.066
2014   11       15    12  51    6.8605   513.4    5.204      43.100
2014   11       15    12  56    6.8662   513.4    5.211      43.136
2014   11       15    13   1    6.8720   513.4    5.217      43.174
2014   11       15    13   6    6.8779   513.4    5.224      43.215
2014   11       15    13  11    6.8840   513.4    5.230      43.258
2014   11       15    13  16    6.8898   513.4    5.237      43.302
2014   11       15    13  22    6.8957   513.4    5.243      43.348
2014   11       15    13  27    6.9017   513.4    5.250      43.396
2014   11       15    13  32    6.9075   513.4    5.256      43.445
2014   11       15    13  37    6.9134   513.4    5.263      43.495
2014   11       15    13  42    6.9193   513.4    5.269      43.546
2014   11       15    13  47    6.9251   513.4    5.275      43.597
2014   11       15    13  53    6.9309   513.4    5.280      43.649
2014   11       15    13  58    6.9367   513.5    5.286      43.701
2014   11       15    14   3    6.9425   513.5    5.291      43.753
2014   11       15    14   8    6.9482   513.5    5.297      43.804
2014   11       15    14  13    6.9538   513.5    5.302      43.854
2014   11       15    14  18    6.9595   513.6    5.307      43.903
2014   11       15    14  24    6.9651   513.6    5.311      43.952
2014   11       15    14  29    6.9707   513.6    5.316      43.999
2014   11       15    14  34    6.9763   513.7    5.321      44.046
2014   11       15    14  39    6.9818   513.7    5.325      44.092
2014   11       15    14  44    6.9874   513.7    5.329      44.137
2014   11       15    14  49    6.9929   513.8    5.334      44.182
2014   11       15    14  54    6.9985   513.8    5.338      44.226
2014   11       15    15   0    7.0040   513.8    5.342      44.269
2014   11       15    15   5    7.0095   513.9    5.346      44.312
2014   11       15    15  10    7.0150   513.9    5.350      44.354
2014   11       15    15  15    7.0205   513.9    5.354      44.396
2014   11       15    15  20    7.0260   514.0    5.358      44.437
2014   11       15    15  25    7.0315   514.0    5.361      44.478
2014   11       15    15  31    7.0369   514.0    5.365      44.518
2014   11       15    15  36    7.0424   514.1    5.369      44.559
2014   11       15    15  41    7.0479   514.1    5.373      44.599
2014   11       15    15  46    7.0534   514.2    5.377      44.638
2014   11       15    15  51    7.0588   514.2    5.381      44.678
2014   11       15    15  56    7.0644   514.3    5.384      44.717
2014   11       15    16   2    7.0698   514.3    5.388      44.757
2014   11       15    16   7    7.0753   514.3    5.392      44.796
2014   11       15    16  12    7.0809   514.4    5.396      44.836
2014   11       15    16  17    7.0864   514.4    5.400      44.875
2014   11       15    16  22    7.0920   514.5    5.404      44.915
2014   11       15    16  27    7.0976   514.5    5.409      44.955
2014   11       15    16  33    7.1033   514.6    5.413      44.995
2014   11       15    16  38    7.1090   514.6    5.418      45.036
2014   11       15    16  43    7.1147   514.7    5.422      45.079
2014   11       15    16  48    7.1205   514.7    5.427      45.121
2014   11       15    16  53    7.1264   514.8    5.432      45.164
2014   11       15    16  58    7.1323   514.8    5.438      45.208
2014   11       15    17   3    7.1383   514.9    5.443      45.253
2014   11       15    17   9    7.1444   515.0    5.449      45.301
2014   11       15    17  14    7.1505   515.1    5.455      45.352
2014   11       15    17  19    7.1566   515.1    5.461      45.406
2014   11       15    17  24    7.1628   515.2    5.467      45.462
2014   11       15    17  29    7.1690   515.3    5.473      45.520
2014   11       15    17  34    7.1752   515.4    5.479      45.580
2014   11       15    17  40    7.1813   515.5    5.485      45.641
2014   11       15    17  45    7.1875   515.6    5.491      45.704
2014   11       15    17  50    7.1936   515.7    5.497      45.768
2014   11       15    17  55    7.1996   515.9    5.503      45.833
2014   11       15    18   0    7.2056   516.0    5.508      45.900
2014   11       15    18   5    7.2115   516.1    5.514      45.967
2014   11       15    18  11    7.2174   516.2    5.518      46.034
2014   11       15    18  16    7.2232   516.4    5.523      46.100
2014   11       15    18  21    7.2289   516.5    5.528      46.166
2014   11       15    18  26    7.2345   516.6    5.532      46.231
2014   11       15    18  31    7.2402   516.8    5.536      46.295
2014   11       15    18  36    7.2457   516.9    5.540      46.359
2014   11       15    18  42    7.2513   517.0    5.544      46.422
2014   11       15    18  47    7.2567   517.2    5.547      46.484
2014   11       15    18  52    7.2622   517.3    5.550      46.546
2014   11       15    18  57    7.2676   517.4    5.553      46.607
2014   11       15    19   2    7.2730   517.6    5.556      46.667
2014   11       15    19   7    7.2784   517.7    5.559      46.727
2014   11       15    19  13    7.2838   517.8    5.561      46.786
2014   11       15    19  18    7.2891   517.9    5.564      46.845
2014   11       15    19  23    7.2945   518.1    5.566      46.903
2014   11       15    19  28    7.2998   518.2    5.569      46.961
2014   11       15    19  33    7.3051   518.3    5.571      47.018
2014   11       15    19  38    7.3104   518.4    5.573      47.075
2014   11       15    19  44    7.3158   518.6    5.575      47.132
2014   11       15    19  49    7.3211   518.7    5.577      47.189
2014   11       15    19  54    7.3264   518.8    5.579      47.245
2014   11       15    19  59    7.3318   518.9    5.581      47.302
2014   11       15    20   4    7.3371   519.0    5.584      47.358
2014   11       15    20   9    7.3424   519.2    5.586      47.414
2014   11       15    20  14    7.3477   519.3    5.588      47.471
2014   11       15    20  20    7.3531   519.4    5.590      47.527
2014   11       15    20  25    7.3585   519.5    5.592      47.584
2014   11       15    20  30    7.3638   519.6    5.594      47.643
2014   11       15    20  35    7.3692   519.8    5.596      47.702
2014   11       15    20  40    7.3746   519.9    5.598      47.761
2014   11       15    20  45    7.3800   520.0    5.600      47.821
2014   11       15    20  51    7.3854   520.2    5.602      47.882
2014   11       15    20  56    7.3907   520.3    5.604      47.942
2014   11       15    21   1    7.3960   520.4    5.605      48.003
2014   11       15    21   6    7.4013   520.6    5.607      48.063
2014   11       15    21  11    7.4066   520.7    5.609      48.124
2014   11       15    21  16    7.4119   520.9    5.610      48.184
2014   11       15    21  22    7.4171   521.0    5.611      48.244
2014   11       15    21  27    7.4221   521.2    5.612      48.304
2014   11       15    21  32    7.4273   521.3    5.614      48.363
2014   11       15    21  37    7.4323   521.4    5.614      48.421
2014   11       15    21  42    7.4375   521.6    5.615      48.479
2014   11       15    21  47    7.4424   521.7    5.616      48.535
2014   11       15    21  53    7.4473   521.9    5.617      48.591
2014   11       15    21  58    7.4523   522.0    5.617      48.647
2014   11       15    22   3    7.4570   522.2    5.618      48.702
2014   11       15    22   8    7.4620   522.3    5.618      48.756
2014   11       15    22  13    7.4667   522.5    5.619      48.809
2014   11       15    22  18    7.4716   522.6    5.619      48.862
2014   11       15    22  24    7.4762   522.8    5.620      48.914
2014   11       15    22  29    7.4809   522.9    5.620      48.967
2014   11       15    22  34    7.4858   523.1    5.620      49.018
2014   11       15    22  39    7.4904   523.2    5.621      49.069
2014   11       15    22  44    7.4949   523.4    5.621      49.120
2014   11       15    22  49    7.4997   523.5    5.622      49.171
2014   11       15    22  54    7.5043   523.7    5.622      49.221
2014   11       15    23   0    7.5088   523.8    5.623      49.271
2014   11       15    23   5    7.5133   524.0    5.623      49.321
2014   11       15    23  10    7.5179   524.1    5.624      49.371
2014   11       15    23  15    7.5225   524.3    5.625      49.421
2014   11       15    23  20    7.5271   524.4    5.626      49.471
2014   11       15    23  25    7.5318   524.6    5.627      49.521
2014   11       15    23  31    7.5364   524.7    5.628      49.571
2014   11       15    23  36    7.5410   524.9    5.629      49.621
2014   11       15    23  41    7.5456   525.0    5.630      49.672
2014   11       15    23  46    7.5500   525.2    5.632      49.723
2014   11       15    23  51    7.5546   525.3    5.634      49.774
2014   11       15    23  56    7.5592   525.5    5.636      49.826
2014   11       16     0   2    7.5641   525.6    5.638      49.879
2014   11       16     0   7    7.5688   525.7    5.640      49.932
2014   11       16     0  12    7.5736   525.9    5.643      49.985
2014   11       16     0  17    7.5781   526.0    5.646      50.039
2014   11       16     0  22    7.5832   526.2    5.650      50.095
2014   11       16     0  27    7.5881   526.3    5.654      50.154
2014   11       16     0  33    7.5927   526.5    5.658      50.215
2014   11       16     0  38    7.5977   526.6    5.662      50.279
2014   11       16     0  43    7.6027   526.8    5.666      50.346
2014   11       16     0  48    7.6080   527.0    5.671      50.415
2014   11       16     0  53    7.6128   527.2    5.675      50.487
2014   11       16     0  58    7.6179   527.3    5.680      50.560
2014   11       16     1   3    7.6230   527.5    5.685      50.635
2014   11       16     1   9    7.6281   527.7    5.690      50.712
2014   11       16     1  14    7.6333   527.9    5.695      50.793
2014   11       16     1  19    7.6386   528.1    5.699      50.876
2014   11       16     1  24    7.6437   528.3    5.704      50.961
2014   11       16     1  29    7.6488   528.5    5.708      51.048
2014   11       16     1  34    7.6537   528.8    5.712      51.135
2014   11       16     1  40    7.6588   529.0    5.716      51.222
2014   11       16     1  45    7.6640   529.2    5.719      51.309
2014   11       16     1  50    7.6688   529.4    5.723      51.395
2014   11       16     1  55    7.6739   529.7    5.726      51.481
2014   11       16     2   0    7.6785   529.9    5.728      51.567
2014   11       16     2   5    7.6835   530.2    5.730      51.653
2014   11       16     2  11    7.6881   530.4    5.732      51.738
2014   11       16     2  16    7.6928   530.6    5.734      51.822
2014   11       16     2  21    7.6974   530.9    5.735      51.904
2014   11       16     2  26    7.7022   531.1    5.736      51.985
2014   11       16     2  31    7.7065   531.4    5.736      52.064
2014   11       16     2  36    7.7111   531.6    5.737      52.142
2014   11       16     2  42    7.7153   531.9    5.736      52.219
2014   11       16     2  47    7.7196   532.1    5.736      52.294
2014   11       16     2  52    7.7240   532.4    5.735      52.368
2014   11       16     2  57    7.7283   532.6    5.735      52.440
2014   11       16     3   2    7.7323   532.9    5.734      52.511
2014   11       16     3   7    7.7366   533.1    5.732      52.581
2014   11       16     3  13    7.7407   533.4    5.731      52.650
2014   11       16     3  18    7.7448   533.6    5.729      52.718
2014   11       16     3  23    7.7488   533.9    5.727      52.785
2014   11       16     3  28    7.7527   534.1    5.725      52.851
2014   11       16     3  33    7.7567   534.4    5.723      52.916
2014   11       16     3  38    7.7607   534.7    5.721      52.980
2014   11       16     3  44    7.7645   534.9    5.718      53.043
2014   11       16     3  49    7.7684   535.2    5.716      53.105
2014   11       16     3  54    7.7722   535.4    5.713      53.166
2014   11       16     3  59    7.7761   535.7    5.710      53.227
2014   11       16     4   4    7.7799   535.9    5.707      53.287
2014   11       16     4   9    7.7836   536.2    5.704      53.347
2014   11       16     4  14    7.7873   536.5    5.701      53.406
2014   11       16     4  20    7.7910   536.7    5.698      53.464
2014   11       16     4  25    7.7945   537.0    5.695      53.521
2014   11       16     4  30    7.7981   537.2    5.691      53.578
2014   11       16     4  35    7.8018   537.5    5.688      53.634
2014   11       16     4  40    7.8054   537.8    5.685      53.690
2014   11       16     4  45    7.8089   538.0    5.681      53.745
2014   11       16     4  51    7.8124   538.3    5.678      53.799
2014   11       16     4  56    7.8159   538.5    5.674      53.853
2014   11       16     5   1    7.8192   538.8    5.671      53.907
2014   11       16     5   6    7.8228   539.1    5.667      53.960
2014   11       16     5  11    7.8262   539.3    5.664      54.013
2014   11       16     5  16    7.8296   539.6    5.660      54.066
2014   11       16     5  22    7.8331   539.8    5.657      54.119
2014   11       16     5  27    7.8364   540.1    5.653      54.171
2014   11       16     5  32    7.8398   540.4    5.650      54.224
2014   11       16     5  37    7.8433   540.6    5.647      54.277
2014   11       16     5  42    7.8467   540.9    5.643      54.330
2014   11       16     5  47    7.8500   541.1    5.640      54.384
2014   11       16     5  53    7.8534   541.4    5.637      54.438
2014   11       16     5  58    7.8568   541.7    5.634      54.492
2014   11       16     6   3    7.8601   541.9    5.631      54.547
2014   11       16     6   8    7.8635   542.2    5.629      54.602
2014   11       16     6  13    7.8670   542.5    5.626      54.658
2014   11       16     6  18    7.8704   542.7    5.624      54.716
2014   11       16     6  24    7.8739   543.0    5.621      54.773
2014   11       16     6  29    7.8773   543.2    5.619      54.832
2014   11       16     6  34    7.8808   543.5    5.618      54.892
2014   11       16     6  39    7.8844   543.8    5.616      54.953
2014   11       16     6  44    7.8879   544.0    5.615      55.017
2014   11       16     6  49    7.8915   544.3    5.613      55.082
2014   11       16     6  54    7.8952   544.6    5.612      55.150
2014   11       16     7   0    7.8987   544.9    5.611      55.218
2014   11       16     7   5    7.9023   545.1    5.610      55.288
2014   11       16     7  10    7.9060   545.4    5.610      55.360
2014   11       16     7  15    7.9096   545.7    5.609      55.432
2014   11       16     7  20    7.9132   546.0    5.608      55.504
2014   11       16     7  25    7.9168   546.2    5.608      55.577
2014   11       16     7  31    7.9204   546.5    5.607      55.651
2014   11       16     7  36    7.9240   546.8    5.606      55.724
2014   11       16     7  41    7.9276   547.1    5.606      55.799
2014   11       16     7  46    7.9311   547.4    5.605      55.872
2014   11       16     7  51    7.9346   547.7    5.605      55.945
2014   11       16     7  56    7.9382   548.0    5.604      56.018
2014   11       16     8   2    7.9418   548.2    5.604      56.091
2014   11       16     8   7    7.9454   548.5    5.604      56.163
2014   11       16     8  12    7.9490   548.8    5.604      56.235
2014   11       16     8  17    7.9526   549.1    5.604      56.307
2014   11       16     8  22    7.9563   549.3    5.604      56.380
2014   11       16     8  27    7.9600   549.6    5.604      56.455
2014   11       16     8  33    7.9636   549.9    5.604      56.532
2014   11       16     8  38    7.9674   550.2    5.604      56.609
2014   11       16     8  43    7.9713   550.5    5.605      56.689
2014   11       16     8  48    7.9751   550.8    5.605      56.769
2014   11       16     8  53    7.9788   551.1    5.605      56.851
2014   11       16     8  58    7.9827   551.4    5.605      56.933
2014   11       16     9   4    7.9865   551.7    5.605      57.015
2014   11       16     9   9    7.9902   552.0    5.605      57.098
2014   11       16     9  14    7.9939   552.4    5.604      57.181
2014   11       16     9  19    7.9973   552.7    5.603      57.264
2014   11       16     9  24    8.0010   553.0    5.602      57.347
2014   11       16     9  29    8.0044   553.4    5.601      57.430
2014   11       16     9  34    8.0078   553.7    5.600      57.512
2014   11       16     9  40    8.0111   554.1    5.598      57.592
2014   11       16     9  45    8.0145   554.4    5.596      57.670
2014   11       16     9  50    8.0175   554.7    5.593      57.748
2014   11       16     9  55    8.0207   555.1    5.591      57.824
2014   11       16    10   0    8.0236   555.5    5.588      57.899
2014   11       16    10   5    8.0264   555.8    5.584      57.973
2014   11       16    10  11    8.0293   556.2    5.581      58.046
2014   11       16    10  16    8.0320   556.5    5.577      58.117
2014   11       16    10  21    8.0347   556.9    5.573      58.187
2014   11       16    10  26    8.0373   557.3    5.569      58.256
2014   11       16    10  31    8.0398   557.6    5.565      58.324
2014   11       16    10  36    8.0421   558.0    5.560      58.391
2014   11       16    10  42    8.0444   558.4    5.556      58.457
2014   11       16    10  47    8.0469   558.7    5.551      58.522
2014   11       16    10  52    8.0490   559.1    5.546      58.587
2014   11       16    10  57    8.0514   559.5    5.541      58.650
2014   11       16    11   2    8.0535   559.9    5.535      58.714
2014   11       16    11   7    8.0556   560.2    5.530      58.776
2014   11       16    11  13    8.0577   560.6    5.524      58.838
2014   11       16    11  18    8.0596   561.0    5.519      58.900
2014   11       16    11  23    8.0616   561.4    5.513      58.961
2014   11       16    11  28    8.0635   561.8    5.507      59.021
2014   11       16    11  33    8.0651   562.2    5.501      59.081
2014   11       16    11  38    8.0670   562.5    5.495      59.140
2014   11       16    11  44    8.0689   562.9    5.489      59.199
2014   11       16    11  49    8.0705   563.3    5.483      59.258
2014   11       16    11  54    8.0724   563.7    5.477      59.316
2014   11       16    11  59    8.0740   564.1    5.470      59.375
2014   11       16    12   4    8.0756   564.5    5.464      59.433
2014   11       16    12   9    8.0770   564.9    5.458      59.491
2014   11       16    12  14    8.0788   565.3    5.451      59.549
2014   11       16    12  20    8.0803   565.7    5.445      59.606
2014   11       16    12  25    8.0818   566.1    5.439      59.664
2014   11       16    12  30    8.0833   566.5    5.432      59.720
2014   11       16    12  35    8.0847   566.9    5.426      59.777
2014   11       16    12  40    8.0861   567.3    5.419      59.834
2014   11       16    12  45    8.0872   567.7    5.413      59.890
2014   11       16    12  51    8.0888   568.1    5.406      59.947
2014   11       16    12  56    8.0901   568.5    5.399      60.003
2014   11       16    13   1    8.0914   568.9    5.393      60.060
2014   11       16    13   6    8.0926   569.3    5.386      60.118
2014   11       16    13  11    8.0935   569.6    5.380      60.175
2014   11       16    13  16    8.0949   570.0    5.373      60.233
2014   11       16    13  22    8.0957   570.4    5.367      60.292
2014   11       16    13  27    8.0968   570.9    5.360      60.351
2014   11       16    13  32    8.0978   571.3    5.354      60.411
2014   11       16    13  37    8.0988   571.7    5.348      60.471
2014   11       16    13  42    8.0998   572.1    5.342      60.532
2014   11       16    13  47    8.1008   572.5    5.335      60.593
2014   11       16    13  53    8.1017   572.9    5.329      60.654
2014   11       16    13  58    8.1029   573.3    5.323      60.717
2014   11       16    14   3    8.1038   573.7    5.317      60.781
2014   11       16    14   8    8.1046   574.1    5.312      60.846
2014   11       16    14  13    8.1051   574.5    5.306      60.912
2014   11       16    14  18    8.1061   574.9    5.299      60.979
2014   11       16    14  23    8.1065   575.3    5.293      61.046
2014   11       16    14  29    8.1075   575.7    5.287      61.113
2014   11       16    14  34    8.1081   576.2    5.281      61.180
2014   11       16    14  39    8.1086   576.6    5.274      61.246
2014   11       16    14  44    8.1091   577.0    5.268      61.310
2014   11       16    14  49    8.1095   577.4    5.261      61.374
2014   11       16    14  54    8.1095   577.8    5.254      61.438
2014   11       16    15   0    8.1101   578.2    5.246      61.500
2014   11       16    15   5    8.1103   578.7    5.238      61.560
2014   11       16    15  10    8.1100   579.1    5.230      61.619
2014   11       16    15  15    8.1099   579.6    5.222      61.676
2014   11       16    15  20    8.1097   580.0    5.214      61.730
2014   11       16    15  25    8.1095   580.4    5.205      61.783
2014   11       16    15  31    8.1091   580.9    5.196      61.832
2014   11       16    15  36    8.1087   581.3    5.187      61.879
2014   11       16    15  41    8.1086   581.7    5.179      61.923
2014   11       16    15  46    8.1080   582.1    5.170      61.965
2014   11       16    15  51    8.1070   582.5    5.161      62.006
2014   11       16    15  56    8.1069   582.9    5.152      62.047
2014   11       16    16   2    8.1058   583.3    5.144      62.088
2014   11       16    16   7    8.1057   583.7    5.136      62.130
2014   11       16    16  12    8.1051   584.1    5.127      62.173
2014   11       16    16  17    8.1045   584.5    5.119      62.221
2014   11       16    16  22    8.1036   584.9    5.111      62.273
2014   11       16    16  27    8.1031   585.3    5.104      62.330
2014   11       16    16  33    8.1026   585.7    5.096      62.389
2014   11       16    16  38    8.1025   586.2    5.088      62.452
2014   11       16    16  43    8.1015   586.6    5.081      62.516
2014   11       16    16  48    8.1013   587.1    5.073      62.581
2014   11       16    16  53    8.1005   587.5    5.065      62.645
2014   11       16    16  58    8.0992   588.0    5.057      62.709
2014   11       16    17   3    8.0987   588.5    5.049      62.772
2014   11       16    17   9    8.0973   588.9    5.041      62.834
2014   11       16    17  14    8.0961   589.4    5.032      62.894
2014   11       16    17  19    8.0948   589.9    5.024      62.951
2014   11       16    17  24    8.0938   590.3    5.015      63.004
2014   11       16    17  29    8.0920   590.7    5.006      63.055
2014   11       16    17  34    8.0904   591.2    4.997      63.103
2014   11       16    17  40    8.0891   591.6    4.988      63.150
2014   11       16    17  45    8.0870   592.1    4.978      63.195
2014   11       16    17  50    8.0852   592.5    4.969      63.239
2014   11       16    17  55    8.0832   593.0    4.959      63.281
2014   11       16    18   0    8.0816   593.4    4.949      63.323
2014   11       16    18   5    8.0790   593.9    4.939      63.363
2014   11       16    18  11    8.0772   594.3    4.929      63.403
2014   11       16    18  16    8.0749   594.8    4.919      63.441
2014   11       16    18  21    8.0720   595.3    4.909      63.477
2014   11       16    18  26    8.0695   595.7    4.898      63.511
2014   11       16    18  31    8.0675   596.2    4.888      63.543
2014   11       16    18  36    8.0644   596.6    4.878      63.575
2014   11       16    18  42    8.0623   597.0    4.868      63.606
2014   11       16    18  47    8.0596   597.5    4.858      63.636
2014   11       16    18  52    8.0570   597.9    4.848      63.667
2014   11       16    18  57    8.0543   598.3    4.838      63.697
2014   11       16    19   2    8.0517   598.7    4.829      63.728
2014   11       16    19   7    8.0485   599.1    4.819      63.761
2014   11       16    19  13    8.0462   599.6    4.809      63.796
2014   11       16    19  18    8.0430   600.0    4.800      63.831
2014   11       16    19  23    8.0402   600.4    4.790      63.868
2014   11       16    19  28    8.0374   600.9    4.780      63.905
2014   11       16    19  33    8.0350   601.3    4.771      63.943
2014   11       16    19  38    8.0316   601.7    4.761      63.980
2014   11       16    19  44    8.0290   602.2    4.751      64.016
2014   11       16    19  49    8.0259   602.6    4.741      64.053
2014   11       16    19  54    8.0226   603.1    4.731      64.088
2014   11       16    19  59    8.0192   603.5    4.721      64.123
2014   11       16    20   4    8.0153   603.9    4.710      64.155
2014   11       16    20   9    8.0122   604.4    4.700      64.186
2014   11       16    20  14    8.0082   604.8    4.690      64.214
2014   11       16    20  20    8.0046   605.2    4.680      64.241
2014   11       16    20  25    8.0015   605.5    4.670      64.267
2014   11       16    20  30    7.9978   605.9    4.660      64.293
2014   11       16    20  35    7.9943   606.3    4.651      64.318
2014   11       16    20  40    7.9901   606.7    4.641      64.345
2014   11       16    20  45    7.9866   607.0    4.631      64.374
2014   11       16    20  51    7.9830   607.4    4.622      64.405
2014   11       16    20  56    7.9794   607.8    4.613      64.438
2014   11       16    21   1    7.9758   608.2    4.604      64.474
2014   11       16    21   6    7.9728   608.6    4.595      64.511
2014   11       16    21  11    7.9691   609.0    4.586      64.548
2014   11       16    21  16    7.9649   609.5    4.576      64.586
2014   11       16    21  22    7.9611   609.9    4.567      64.623
2014   11       16    21  27    7.9578   610.3    4.558      64.658
2014   11       16    21  32    7.9539   610.7    4.548      64.693
2014   11       16    21  37    7.9493   611.2    4.539      64.725
2014   11       16    21  42    7.9451   611.6    4.529      64.755
2014   11       16    21  47    7.9408   612.0    4.520      64.782
2014   11       16    21  53    7.9369   612.4    4.510      64.806
2014   11       16    21  58    7.9325   612.8    4.500      64.827
2014   11       16    22   3    7.9273   613.2    4.490      64.846
2014   11       16    22   8    7.9226   613.6    4.480      64.863
2014   11       16    22  13    7.9178   614.0    4.469      64.878
2014   11       16    22  18    7.9135   614.4    4.459      64.891
2014   11       16    22  24    7.9084   614.8    4.448      64.903
2014   11       16    22  29    7.9034   615.2    4.437      64.914
2014   11       16    22  34    7.8977   615.6    4.427      64.922
2014   11       16    22  39    7.8930   616.0    4.416      64.927
2014   11       16    22  44    7.8878   616.4    4.405      64.929
2014   11       16    22  49    7.8820   616.8    4.394      64.928
2014   11       16    22  54    7.8773   617.1    4.384      64.925
2014   11       16    23   0    7.8722   617.5    4.374      64.920
2014   11       16    23   5    7.8670   617.8    4.364      64.915
2014   11       16    23  10    7.8614   618.1    4.354      64.910
2014   11       16    23  15    7.8568   618.4    4.345      64.906
2014   11       16    23  20    7.8519   618.7    4.336      64.904
2014   11       16    23  25    7.8464   619.0    4.328      64.906
2014   11       16    23  31    7.8422   619.3    4.319      64.915
2014   11       16    23  36    7.8374   619.7    4.311      64.930
2014   11       16    23  41    7.8328   620.0    4.304      64.950
2014   11       16    23  46    7.8281   620.3    4.297      64.974
2014   11       16    23  51    7.8235   620.7    4.290      65.003
2014   11       16    23  56    7.8184   621.0    4.283      65.035
2014   11       17     0   2    7.8142   621.4    4.276      65.068
2014   11       17     0   7    7.8090   621.8    4.269      65.101
2014   11       17     0  12    7.8048   622.1    4.262      65.134
2014   11       17     0  17    7.7999   622.5    4.255      65.166
2014   11       17     0  22    7.7947   622.8    4.249      65.198
2014   11       17     0  27    7.7902   623.2    4.242      65.227
2014   11       17     0  33    7.7848   623.5    4.235      65.253
2014   11       17     0  38    7.7798   623.9    4.227      65.275
2014   11       17     0  43    7.7752   624.2    4.220      65.295
2014   11       17     0  48    7.7697   624.5    4.212      65.312
2014   11       17     0  53    7.7649   624.8    4.205      65.327
2014   11       17     0  58    7.7593   625.2    4.197      65.341
2014   11       17     1   4    7.7540   625.5    4.189      65.353
2014   11       17     1   9    7.7487   625.9    4.180      65.364
2014   11       17     1  14    7.7433   626.2    4.172      65.374
2014   11       17     1  19    7.7382   626.6    4.164      65.381
2014   11       17     1  24    7.7326   626.9    4.155      65.387
2014   11       17     1  29    7.7270   627.3    4.146      65.391
2014   11       17     1  34    7.7214   627.6    4.138      65.392
2014   11       17     1  40    7.7153   628.0    4.129      65.392
2014   11       17     1  45    7.7097   628.3    4.121      65.391
2014   11       17     1  50    7.7043   628.6    4.112      65.388
2014   11       17     1  55    7.6983   629.0    4.104      65.385
2014   11       17     2   0    7.6929   629.3    4.095      65.381
2014   11       17     2   5    7.6872   629.6    4.087      65.378
2014   11       17     2  11    7.6814   629.9    4.078      65.377
2014   11       17     2  16    7.6757   630.2    4.070      65.377
2014   11       17     2  21    7.6699   630.5    4.062      65.378
2014   11       17     2  26    7.6639   630.8    4.054      65.380
2014   11       17     2  31    7.6582   631.1    4.046      65.382
2014   11       17     2  36    7.6527   631.5    4.038      65.385
2014   11       17     2  42    7.6467   631.8    4.029      65.388
2014   11       17     2  47    7.6411   632.1    4.021      65.391
2014   11       17     2  52    7.6351   632.4    4.013      65.395
2014   11       17     2  57    7.6289   632.8    4.005      65.398
2014   11       17     3   2    7.6231   633.1    3.996      65.400
2014   11       17     3   7    7.6170   633.4    3.988      65.400
2014   11       17     3  13    7.6109   633.7    3.980      65.399
2014   11       17     3  18    7.6048   633.9    3.972      65.395
2014   11       17     3  23    7.5986   634.2    3.964      65.388
2014   11       17     3  28    7.5925   634.4    3.956      65.381
2014   11       17     3  33    7.5867   634.7    3.949      65.373
2014   11       17     3  38    7.5807   634.9    3.942      65.365
2014   11       17     3  44    7.5749   635.1    3.934      65.358
2014   11       17     3  49    7.5689   635.3    3.928      65.353
2014   11       17     3  54    7.5632   635.5    3.921      65.353
2014   11       17     3  59    7.5575   635.7    3.914      65.355
2014   11       17     4   4    7.5519   635.9    3.908      65.362
2014   11       17     4   9    7.5463   636.2    3.902      65.371
2014   11       17     4  14    7.5409   636.4    3.896      65.383
2014   11       17     4  20    7.5353   636.7    3.890      65.397
2014   11       17     4  25    7.5298   636.9    3.884      65.412
2014   11       17     4  30    7.5242   637.2    3.878      65.426
2014   11       17     4  35    7.5186   637.5    3.872      65.440
2014   11       17     4  40    7.5130   637.8    3.866      65.452
2014   11       17     4  45    7.5073   638.0    3.860      65.463
2014   11       17     4  51    7.5015   638.3    3.854      65.472
2014   11       17     4  56    7.4957   638.6    3.848      65.478
2014   11       17     5   1    7.4898   638.8    3.841      65.482
2014   11       17     5   6    7.4838   639.1    3.835      65.482
2014   11       17     5  11    7.4778   639.3    3.829      65.481
2014   11       17     5  16    7.4718   639.5    3.822      65.478
2014   11       17     5  22    7.4657   639.8    3.816      65.473
2014   11       17     5  27    7.4597   640.0    3.809      65.467
2014   11       17     5  32    7.4537   640.2    3.803      65.461
2014   11       17     5  37    7.4477   640.5    3.796      65.454
2014   11       17     5  42    7.4418   640.7    3.790      65.445
2014   11       17     5  47    7.4359   640.9    3.783      65.436
2014   11       17     5  53    7.4300   641.1    3.777      65.427
2014   11       17     5  58    7.4243   641.3    3.771      65.416
2014   11       17     6   3    7.4186   641.5    3.764      65.406
2014   11       17     6   8    7.4131   641.7    3.758      65.396
2014   11       17     6  13    7.4074   641.9    3.752      65.385
2014   11       17     6  18    7.4019   642.1    3.746      65.375
2014   11       17     6  24    7.3965   642.3    3.740      65.365
2014   11       17     6  29    7.3911   642.5    3.734      65.355
2014   11       17     6  34    7.3858   642.7    3.729      65.346
2014   11       17     6  39    7.3805   642.9    3.723      65.337
2014   11       17     6  44    7.3754   643.1    3.717      65.329
2014   11       17     6  49    7.3701   643.3    3.712      65.321
2014   11       17     6  54    7.3650   643.4    3.707      65.314
2014   11       17     7   0    7.3601   643.6    3.702      65.307
2014   11       17     7   5    7.3549   643.8    3.697      65.302
2014   11       17     7  10    7.3499   643.9    3.692      65.297
2014   11       17     7  15    7.3450   644.1    3.688      65.292
2014   11       17     7  20    7.3401   644.3    3.683      65.288
2014   11       17     7  25    7.3352   644.5    3.678      65.284
2014   11       17     7  31    7.3303   644.6    3.674      65.279
2014   11       17     7  36    7.3255   644.8    3.669      65.275
2014   11       17     7  41    7.3209   645.0    3.665      65.271
2014   11       17     7  46    7.3160   645.1    3.660      65.266
2014   11       17     7  51    7.3113   645.3    3.656      65.260
2014   11       17     7  56    7.3065   645.5    3.651      65.254
2014   11       17     8   2    7.3018   645.6    3.646      65.248
2014   11       17     8   7    7.2971   645.8    3.642      65.241
2014   11       17     8  12    7.2924   646.0    3.637      65.233
2014   11       17     8  17    7.2877   646.1    3.632      65.225
2014   11       17     8  22    7.2830   646.3    3.627      65.216
2014   11       17     8  27    7.2783   646.5    3.622      65.206
2014   11       17     8  33    7.2736   646.6    3.617      65.195
2014   11       17     8  38    7.2689   646.8    3.612      65.184
2014   11       17     8  43    7.2642   647.0    3.607      65.173
2014   11       17     8  48    7.2596   647.1    3.602      65.162
2014   11       17     8  53    7.2547   647.3    3.597      65.151
2014   11       17     8  58    7.2500   647.5    3.592      65.140
2014   11       17     9   4    7.2453   647.6    3.588      65.128
2014   11       17     9   9    7.2408   647.8    3.583      65.117
2014   11       17     9  14    7.2359   648.0    3.578      65.106
2014   11       17     9  19    7.2311   648.1    3.573      65.095
2014   11       17     9  24    7.2266   648.3    3.568      65.085
2014   11       17     9  29    7.2217   648.4    3.564      65.075
2014   11       17     9  35    7.2171   648.6    3.559      65.066
2014   11       17     9  40    7.2126   648.8    3.555      65.058
2014   11       17     9  45    7.2077   648.9    3.550      65.051
2014   11       17     9  50    7.2030   649.1    3.546      65.044
2014   11       17     9  55    7.1984   649.2    3.542      65.039
2014   11       17    10   0    7.1939   649.4    3.538      65.035
2014   11       17    10   5    7.1891   649.6    3.534      65.032
2014   11       17    10  11    7.1845   649.7    3.530      65.031
2014   11       17    10  16    7.1799   649.9    3.527      65.030
2014   11       17    10  21    7.1752   650.0    3.523      65.031
2014   11       17    10  26    7.1706   650.2    3.520      65.033
2014   11       17    10  31    7.1660   650.3    3.517      65.037
2014   11       17    10  36    7.1613   650.5    3.513      65.041
2014   11       17    10  42    7.1567   650.6    3.511      65.047
2014   11       17    10  47    7.1523   650.8    3.508      65.054
2014   11       17    10  52    7.1474   650.9    3.505      65.062
2014   11       17    10  57    7.1427   651.1    3.502      65.071
2014   11       17    11   2    7.1381   651.2    3.500      65.081
2014   11       17    11   7    7.1334   651.4    3.497      65.092
2014   11       17    11  13    7.1287   651.5    3.495      65.103
2014   11       17    11  18    7.1239   651.7    3.493      65.115
2014   11       17    11  23    7.1192   651.8    3.490      65.126
2014   11       17    11  28    7.1144   652.0    3.488      65.136
2014   11       17    11  33    7.1097   652.1    3.485      65.146
2014   11       17    11  38    7.1051   652.2    3.483      65.155
2014   11       17    11  44    7.1001   652.4    3.480      65.162
2014   11       17    11  49    7.0955   652.5    3.478      65.169
2014   11       17    11  54    7.0906   652.6    3.475      65.175
2014   11       17    11  59    7.0860   652.8    3.472      65.180
2014   11       17    12   4    7.0810   652.9    3.469      65.183
2014   11       17    12   9    7.0762   653.0    3.466      65.185
2014   11       17    12  15    7.0715   653.1    3.463      65.185
2014   11       17    12  20    7.0668   653.2    3.460      65.184
2014   11       17    12  25    7.0623   653.4    3.457      65.182
2014   11       17    12  30    7.0574   653.5    3.453      65.179
2014   11       17    12  35    7.0530   653.6    3.450      65.175
2014   11       17    12  40    7.0482   653.7    3.447      65.170
2014   11       17    12  45    7.0438   653.8    3.443      65.164
2014   11       17    12  51    7.0390   653.9    3.440      65.157
2014   11       17    12  56    7.0347   654.0    3.436      65.149
2014   11       17    13   1    7.0300   654.1    3.433      65.140
2014   11       17    13   6    7.0255   654.2    3.429      65.130
2014   11       17    13  11    7.0211   654.3    3.425      65.120
2014   11       17    13  16    7.0170   654.4    3.421      65.109
2014   11       17    13  22    7.0124   654.5    3.418      65.097
2014   11       17    13  27    7.0081   654.6    3.414      65.085
2014   11       17    13  32    7.0038   654.7    3.410      65.072
2014   11       17    13  37    6.9998   654.8    3.406      65.058
2014   11       17    13  42    6.9954   654.9    3.402      65.044
2014   11       17    13  47    6.9912   655.0    3.398      65.029
2014   11       17    13  53    6.9874   655.1    3.395      65.014
2014   11       17    13  58    6.9833   655.2    3.391      64.998
2014   11       17    14   3    6.9790   655.3    3.387      64.981
2014   11       17    14   8    6.9752   655.4    3.383      64.964
2014   11       17    14  13    6.9713   655.4    3.379      64.947
2014   11       17    14  18    6.9673   655.5    3.375      64.929
2014   11       17    14  24    6.9634   655.6    3.371      64.911
2014   11       17    14  29    6.9596   655.7    3.367      64.892
2014   11       17    14  34    6.9557   655.8    3.363      64.873
2014   11       17    14  39    6.9517   655.8    3.359      64.853
2014   11       17    14  44    6.9480   655.9    3.355      64.834
2014   11       17    14  49    6.9444   656.0    3.351      64.814
2014   11       17    14  55    6.9405   656.1    3.347      64.793
2014   11       17    15   0    6.9370   656.2    3.343      64.773
2014   11       17    15   5    6.9331   656.2    3.339      64.752
2014   11       17    15  10    6.9294   656.3    3.336      64.731
2014   11       17    15  15    6.9259   656.4    3.332      64.710
2014   11       17    15  20    6.9223   656.5    3.328      64.690
2014   11       17    15  25    6.9185   656.5    3.324      64.669
2014   11       17    15  31    6.9148   656.6    3.320      64.648
2014   11       17    15  36    6.9114   656.7    3.317      64.627
2014   11       17    15  41    6.9078   656.8    3.313      64.606
2014   11       17    15  46    6.9040   656.8    3.309      64.586
2014   11       17    15  51    6.9004   656.9    3.306      64.566
2014   11       17    15  56    6.8967   657.0    3.302      64.546
2014   11       17    16   2    6.8931   657.0    3.299      64.526
2014   11       17    16   7    6.8896   657.1    3.295      64.507
2014   11       17    16  12    6.8858   657.2    3.292      64.488
2014   11       17    16  17    6.8823   657.3    3.288      64.469
2014   11       17    16  22    6.8784   657.3    3.285      64.452
2014   11       17    16  27    6.8748   657.4    3.282      64.435
2014   11       17    16  33    6.8712   657.5    3.279      64.418
2014   11       17    16  38    6.8675   657.5    3.276      64.403
2014   11       17    16  43    6.8638   657.6    3.273      64.388
2014   11       17    16  48    6.8600   657.7    3.270      64.373
2014   11       17    16  53    6.8564   657.8    3.267      64.360
2014   11       17    16  58    6.8525   657.8    3.265      64.348
2014   11       17    17   4    6.8489   657.9    3.262      64.336
2014   11       17    17   9    6.8450   658.0    3.260      64.326
2014   11       17    17  14    6.8413   658.0    3.257      64.316
2014   11       17    17  19    6.8374   658.1    3.255      64.308
2014   11       17    17  24    6.8338   658.1    3.253      64.300
2014   11       17    17  29    6.8299   658.2    3.251      64.293
2014   11       17    17  35    6.8261   658.3    3.249      64.288
2014   11       17    17  40    6.8223   658.3    3.247      64.283
2014   11       17    17  45    6.8186   658.4    3.246      64.280
2014   11       17    17  50    6.8147   658.4    3.244      64.277
2014   11       17    17  55    6.8111   658.5    3.243      64.276
2014   11       17    18   0    6.8072   658.5    3.241      64.275
2014   11       17    18   6    6.8034   658.6    3.240      64.276
2014   11       17    18  11    6.7996   658.7    3.239      64.278
2014   11       17    18  16    6.7958   658.7    3.238      64.281
2014   11       17    18  21    6.7921   658.8    3.237      64.285
2014   11       17    18  26    6.7884   658.8    3.236      64.290
2014   11       17    18  31    6.7846   658.9    3.235      64.297
2014   11       17    18  36    6.7811   658.9    3.235      64.303
2014   11       17    18  42    6.7773   658.9    3.234      64.311
2014   11       17    18  47    6.7736   659.0    3.233      64.318
2014   11       17    18  52    6.7700   659.0    3.232      64.325
2014   11       17    18  57    6.7664   659.1    3.231      64.332
2014   11       17    19   2    6.7628   659.1    3.231      64.339
2014   11       17    19   7    6.7593   659.2    3.230      64.346
2014   11       17    19  13    6.7560   659.2    3.229      64.352
2014   11       17    19  18    6.7523   659.2    3.228      64.357
2014   11       17    19  23    6.7490   659.3    3.227      64.362
2014   11       17    19  28    6.7456   659.3    3.226      64.365
2014   11       17    19  33    6.7422   659.4    3.225      64.368
2014   11       17    19  38    6.7389   659.4    3.224      64.369
2014   11       17    19  44    6.7355   659.4    3.223      64.370
2014   11       17    19  49    6.7320   659.4    3.221      64.370
2014   11       17    19  54    6.7290   659.5    3.220      64.369
2014   11       17    19  59    6.7257   659.5    3.219      64.367
2014   11       17    20   4    6.7223   659.5    3.217      64.365
2014   11       17    20   9    6.7191   659.5    3.216      64.362
2014   11       17    20  15    6.7161   659.6    3.214      64.359
2014   11       17    20  20    6.7128   659.6    3.213      64.355
2014   11       17    20  25    6.7099   659.6    3.211      64.350
2014   11       17    20  30    6.7069   659.6    3.209      64.344
2014   11       17    20  35    6.7038   659.6    3.208      64.338
2014   11       17    20  40    6.7008   659.6    3.206      64.331
2014   11       17    20  46    6.6978   659.7    3.204      64.324
2014   11       17    20  51    6.6948   659.7    3.202      64.315
2014   11       17    20  56    6.6917   659.7    3.200      64.306
2014   11       17    21   1    6.6890   659.7    3.198      64.297
2014   11       17    21   6    6.6859   659.7    3.196      64.286
2014   11       17    21  11    6.6833   659.7    3.194      64.275
2014   11       17    21  16    6.6802   659.7    3.192      64.262
2014   11       17    21  22    6.6776   659.8    3.190      64.249
2014   11       17    21  27    6.6746   659.8    3.188      64.235
2014   11       17    21  32    6.6717   659.8    3.186      64.221
2014   11       17    21  37    6.6691   659.8    3.183      64.205
2014   11       17    21  42    6.6661   659.8    3.181      64.189
2014   11       17    21  47    6.6633   659.8    3.179      64.172
2014   11       17    21  53    6.6605   659.8    3.176      64.154
2014   11       17    21  58    6.6577   659.8    3.174      64.136
2014   11       17    22   3    6.6551   659.9    3.171      64.117
2014   11       17    22   8    6.6521   659.9    3.169      64.097
2014   11       17    22  13    6.6495   659.9    3.167      64.077
2014   11       17    22  18    6.6467   659.9    3.164      64.056
2014   11       17    22  24    6.6438   659.9    3.162      64.035
2014   11       17    22  29    6.6411   659.9    3.159      64.013
2014   11       17    22  34    6.6383   659.9    3.156      63.990
2014   11       17    22  39    6.6355   659.9    3.154      63.968
2014   11       17    22  44    6.6325   659.9    3.151      63.944
2014   11       17    22  49    6.6298   659.9    3.149      63.921
2014   11       17    22  55    6.6269   660.0    3.146      63.897
2014   11       17    23   0    6.6241   660.0    3.144      63.873
2014   11       17    23   5    6.6212   660.0    3.141      63.848
2014   11       17    23  10    6.6185   660.0    3.138      63.824
2014   11       17    23  15    6.6156   660.0    3.136      63.799
2014   11       17    23  20    6.6127   660.0    3.133      63.774
2014   11       17    23  26    6.6099   660.0    3.131      63.749
2014   11       17    23  31    6.6071   660.0    3.128      63.724
2014   11       17    23  36    6.6042   660.0    3.126      63.699
2014   11       17    23  41    6.6015   660.0    3.123      63.674
2014   11       17    23  46    6.5985   660.0    3.121      63.649
2014   11       17    23  51    6.5958   660.0    3.118      63.624
2014   11       17    23  56    6.5928   660.0    3.116      63.600
2014   11       18     0   2    6.5900   660.0    3.114      63.576
